PreTrainingPAS4_loop.thisRepN,PreTrainingPAS4_loop.thisTrialN,PreTrainingPAS4_loop.thisN,PreTrainingPAS4_loop.thisIndex,PreTrainingPAS1_loop.thisRepN,PreTrainingPAS1_loop.thisTrialN,PreTrainingPAS1_loop.thisN,PreTrainingPAS1_loop.thisIndex,RepeatCV_loop.thisRepN,RepeatCV_loop.thisTrialN,RepeatCV_loop.thisN,RepeatCV_loop.thisIndex,TrainingCV_loop.thisRepN,TrainingCV_loop.thisTrialN,TrainingCV_loop.thisN,TrainingCV_loop.thisIndex,TrainingCAL_loop.thisRepN,TrainingCAL_loop.thisTrialN,TrainingCAL_loop.thisN,TrainingCAL_loop.thisIndex,blocks_loop.thisRepN,blocks_loop.thisTrialN,blocks_loop.thisN,blocks_loop.thisIndex,trials_loop.thisRepN,trials_loop.thisTrialN,trials_loop.thisN,trials_loop.thisIndex,TrainingPAS1_loop.thisRepN,TrainingPAS1_loop.thisTrialN,TrainingPAS1_loop.thisN,TrainingPAS1_loop.thisIndex,spacebarWelcome0.started,spacebarWelcome0.keys,spacebarWelcome0.rt,spacebarWelcome1.started,gaborWelcome1.started,maskWelcome1.started,textMaskWelcome1.started,spacebarWelcome1.keys,spacebarWelcome1.rt,spacebarWelcome2.started,spacebarWelcome2.keys,spacebarWelcome2.rt,textInst_PreTrainingPAS4.started,spacebarPreTrainingPAS4.started,spacebarPreTrainingPAS4.keys,spacebarPreTrainingPAS4.rt,textPreTrainingPAS1.started,spacebarPreTrainingPAS1.started,spacebarPreTrainingPAS1.keys,spacebarPreTrainingPAS1.rt,textQUEST0.started,spacebarQUEST0.started,spacebarQUEST0.keys,spacebarQUEST0.rt,spacebar0.started,spacebar0.keys,spacebar0.rt,spacebar1.started,spacebar1.keys,spacebar1.rt,textInstructions2.started,spacebar2.started,Gabor1Inst2.started,Gabor2Inst2.started,Gabor3Inst2.started,Gabor4Inst2.started,spacebar2.keys,spacebar2.rt,textInstructionsPAS.started,spacebarInstPAS.started,spacebarInstPAS.keys,spacebarInstPAS.rt,textInstructions3.started,spacebar3.started,spacebar3.keys,spacebar3.rt,WMresp_CV,WMresp_CV_acc,oriMemo_CV,gyre_CV,oriTest_CV,feedbackText.started,sliderCV.started,PAStextCV.started,PASkeyCV.started,sliderCV.response,sliderCV.rt,PASkeyCV.keys,PASkeyCV.corr,PASkeyCV.rt,feedbackText.stopped,TextInstructionsCAL.started,spacebarCAL.started,spacebarCAL.keys,spacebarCAL.rt,contrast,WMresp_CAL,WMresp_CAL_acc,oriMemo_CAL,gyre_CAL,oriTest_CAL,cue_CAL,sliderCAL.started,PAStextCAL.started,PASkeyCAL.started,sliderCAL.response,sliderCAL.rt,PASkeyCAL.keys,PASkeyCAL.corr,PASkeyCAL.rt,propUnseen_CAL,textStart.started,spacebar4.started,spacebar4.keys,spacebar4.rt,three.started,three.stopped,two.started,two.stopped,one.started,one.stopped,blank_countdown.started,blank_countdown.stopped,WMresp,WMresp_acc,oriMemo,gyre,oriTest,cue,slider.started,textPAS_firstGabor.started,PASkey.started,slider.response,slider.rt,PASkey.keys,PASkey.corr,PASkey.rt,spacebarContinue.started,textBreak.started,spacebarContinue.keys,spacebarContinue.rt,spacebar_reminder.keys,spacebar_TrainingPAS1.keys,spacebar_endpractice.keys,spacebar_reminder.started,textReminder.started,spacebar_reminder.rt,textInst_TrainingPAS1.started,spacebar_TrainingPAS1.started,spacebar_TrainingPAS1.rt,textend_practicePAS1.started,spacebar_endpractice.started,spacebar_endpractice.rt,textThanks.started,buttonURL.started,buttonURL.numClicks,buttonURL.timesOn,buttonURL.timesOff,laboratory,participant,session,date,expName,psychopyVersion,frameRate
,,,,,,,,,,,,,,,,,,,,,,,,,,,,,,,,39.1666109,space,19.9484159,,,,,,,,,,,,,,,,,,,,,,,,,,,,,,,,,,,,,,,,,,,,,,,,,,,,,,,,,,,,,,,,,,,,,,,,,,,,,,,,,,,,,,,,,,,,,,,,,,,,,,,,,,,,,,,,,,,,,,,,,,,,,,10,10,2,2024-10-23_08h41.46.333,uWM_experiment,2022.2.3,60.01763318
,,,,,,,,,,,,,,,,,,,,,,,,,,,,,,,,,,,59.1505306,59.1505306,59.1505306,59.1505306,space,3.548518,,,,,,,,,,,,,,,,,,,,,,,,,,,,,,,,,,,,,,,,,,,,,,,,,,,,,,,,,,,,,,,,,,,,,,,,,,,,,,,,,,,,,,,,,,,,,,,,,,,,,,,,,,,,,,,,,,,,,,,,10,10,2,2024-10-23_08h41.46.333,uWM_experiment,2022.2.3,60.01763318
,,,,,,,,,,,,,,,,,,,,,,,,,,,,,,,,,,,,,,,,,62.7340296,space,0.4849799,,,,,,,,,,,,,,,,,,,,,,,,,,,,,,,,,,,,,,,,,,,,,,,,,,,,,,,,,,,,,,,,,,,,,,,,,,,,,,,,,,,,,,,,,,,,,,,,,,,,,,,,,,,,,,,,,,,,,10,10,2,2024-10-23_08h41.46.333,uWM_experiment,2022.2.3,60.01763318
,,,,,,,,,,,,,,,,,,,,,,,,,,,,,,,,,,,,,,,,,,,,63.2507316,63.2507316,space,0.9524243,,,,,,,,,,,,,,,,,,,,,,,,,,,,,,,,,,,,,,,,,,,,,,,,,,,,,,,,,,,,,,,,,,,,,,,,,,,,,,,,,,,,,,,,,,,,,,,,,,,,,,,,,,,,,,,,,10,10,2,2024-10-23_08h41.46.333,uWM_experiment,2022.2.3,60.01763318
0,0,0,0,,,,,,,,,,,,,,,,,,,,,,,,,,,,,,,,,,,,,,,,,,,,,,,,,,,,,,,,,,,,,,,,,,,,,,,,,,,,,,,,,,,,,,,,,,,,,,,,,,,,,,,,,,,,,,,,,,,,,,,,,,,,,,,,,,,,,,,,,,,,,,,,,,,,,,,,,,,,,10,10,2,2024-10-23_08h41.46.333,uWM_experiment,2022.2.3,60.01763318
1,0,1,0,,,,,,,,,,,,,,,,,,,,,,,,,,,,,,,,,,,,,,,,,,,,,,,,,,,,,,,,,,,,,,,,,,,,,,,,,,,,,,,,,,,,,,,,,,,,,,,,,,,,,,,,,,,,,,,,,,,,,,,,,,,,,,,,,,,,,,,,,,,,,,,,,,,,,,,,,,,,,10,10,2,2024-10-23_08h41.46.333,uWM_experiment,2022.2.3,60.01763318
2,0,2,0,,,,,,,,,,,,,,,,,,,,,,,,,,,,,,,,,,,,,,,,,,,,,,,,,,,,,,,,,,,,,,,,,,,,,,,,,,,,,,,,,,,,,,,,,,,,,,,,,,,,,,,,,,,,,,,,,,,,,,,,,,,,,,,,,,,,,,,,,,,,,,,,,,,,,,,,,,,,,10,10,2,2024-10-23_08h41.46.333,uWM_experiment,2022.2.3,60.01763318
,,,,,,,,,,,,,,,,,,,,,,,,,,,,,,,,,,,,,,,,,,,,,,,,77.68464,77.68464,space,5.0143619,,,,,,,,,,,,,,,,,,,,,,,,,,,,,,,,,,,,,,,,,,,,,,,,,,,,,,,,,,,,,,,,,,,,,,,,,,,,,,,,,,,,,,,,,,,,,,,,,,,,,,,,,,,,,10,10,2,2024-10-23_08h41.46.333,uWM_experiment,2022.2.3,60.01763318
,,,,0,0,0,0,,,,,,,,,,,,,,,,,,,,,,,,,,,,,,,,,,,,,,,,,,,,,,,,,,,,,,,,,,,,,,,,,,,,,,,,,,,,,,,,,,,,,,,,,,,,,,,,,,,,,,,,,,,,,,,,,,,,,,,,,,,,,,,,,,,,,,,,,,,,,,,,,,,,,,,,,10,10,2,2024-10-23_08h41.46.333,uWM_experiment,2022.2.3,60.01763318
,,,,1,0,1,0,,,,,,,,,,,,,,,,,,,,,,,,,,,,,,,,,,,,,,,,,,,,,,,,,,,,,,,,,,,,,,,,,,,,,,,,,,,,,,,,,,,,,,,,,,,,,,,,,,,,,,,,,,,,,,,,,,,,,,,,,,,,,,,,,,,,,,,,,,,,,,,,,,,,,,,,,10,10,2,2024-10-23_08h41.46.333,uWM_experiment,2022.2.3,60.01763318
,,,,2,0,2,0,,,,,,,,,,,,,,,,,,,,,,,,,,,,,,,,,,,,,,,,,,,,,,,,,,,,,,,,,,,,,,,,,,,,,,,,,,,,,,,,,,,,,,,,,,,,,,,,,,,,,,,,,,,,,,,,,,,,,,,,,,,,,,,,,,,,,,,,,,,,,,,,,,,,,,,,,10,10,2,2024-10-23_08h41.46.333,uWM_experiment,2022.2.3,60.01763318
,,,,,,,,,,,,,,,,,,,,,,,,,,,,,,,,,,,,,,,,,,,,,,,,,,,,90.3184726,90.3184726,space,4.9644373,,,,,,,,,,,,,,,,,,,,,,,,,,,,,,,,,,,,,,,,,,,,,,,,,,,,,,,,,,,,,,,,,,,,,,,,,,,,,,,,,,,,,,,,,,,,,,,,,,,,,,,,,10,10,2,2024-10-23_08h41.46.333,uWM_experiment,2022.2.3,60.01763318
,,,,,,,,,,,,,,,,,,,,,,,,,,,,,,,,,,,,,,,,,,,,,,,,,,,,,,,,222.3905263,space,4.747933,,,,,,,,,,,,,,,,,,,,,,,,,,,,,,,,,,,,,,,,,,,,,,,,,,,,,,,,,,,,,,,,,,,,,,,,,,,,,,,,,,,,,,,,,,,,,,,,,,,,,,10,10,2,2024-10-23_08h41.46.333,uWM_experiment,2022.2.3,60.01763318
,,,,,,,,,,,,,,,,,,,,,,,,,,,,,,,,,,,,,,,,,,,,,,,,,,,,,,,,,,,227.1573871,space,9.1731038,,,,,,,,,,,,,,,,,,,,,,,,,,,,,,,,,,,,,,,,,,,,,,,,,,,,,,,,,,,,,,,,,,,,,,,,,,,,,,,,,,,,,,,,,,,,,,,,,,,10,10,2,2024-10-23_08h41.46.333,uWM_experiment,2022.2.3,60.01763318
,,,,,,,,,,,,,,,,,,,,,,,,,,,,,,,,,,,,,,,,,,,,,,,,,,,,,,,,,,,,,,236.3577549,236.3577549,236.3577549,236.3577549,236.3577549,236.3577549,space,3.9087468,,,,,,,,,,,,,,,,,,,,,,,,,,,,,,,,,,,,,,,,,,,,,,,,,,,,,,,,,,,,,,,,,,,,,,,,,,,,,,,,,,,,,,,,,,,10,10,2,2024-10-23_08h41.46.333,uWM_experiment,2022.2.3,60.01763318
,,,,,,,,,,,,,,,,,,,,,,,,,,,,,,,,,,,,,,,,,,,,,,,,,,,,,,,,,,,,,,,,,,,,,,240.2912603,240.2912603,space,0.9112273,,,,,,,,,,,,,,,,,,,,,,,,,,,,,,,,,,,,,,,,,,,,,,,,,,,,,,,,,,,,,,,,,,,,,,,,,,,,,,,,,,,,,,,10,10,2,2024-10-23_08h41.46.333,uWM_experiment,2022.2.3,60.01763318
,,,,,,,,,,,,,,,,,,,,,,,,,,,,,,,,,,,,,,,,,,,,,,,,,,,,,,,,,,,,,,,,,,,,,,,,,,241.2246532,241.2246532,space,0.9057796,,,,,,,,,,,,,,,,,,,,,,,,,,,,,,,,,,,,,,,,,,,,,,,,,,,,,,,,,,,,,,,,,,,,,,,,,,,,,,,,,,,10,10,2,2024-10-23_08h41.46.333,uWM_experiment,2022.2.3,60.01763318
,,,,,,,,0,0,0,0,0,0,0,0,,,,,,,,,,,,,,,,,,,,,,,,,,,,,,,,,,,,,,,,,,,,,,,,,,,,,,,,,,,,,,,right,1,10,30,40,248.1582551,249.1582849,249.1582849,249.1582849,None,None,4,0,2.1561563,,,,,,,,,,,,,,,,,,,,,,,,,,,,,,,,,,,,,,,,,,,,,,,,,,,,,,,,,,,,,,,,,,,,,10,10,2,2024-10-23_08h41.46.333,uWM_experiment,2022.2.3,60.01763318
,,,,,,,,0,0,0,0,1,0,1,0,,,,,,,,,,,,,,,,,,,,,,,,,,,,,,,,,,,,,,,,,,,,,,,,,,,,,,,,,,,,,,,left,1,100,-30,70,256.991973,257.9920101,257.9920101,257.9920101,None,None,4,0,0.3063894,257.9920101,,,,,,,,,,,,,,,,,,,,,,,,,,,,,,,,,,,,,,,,,,,,,,,,,,,,,,,,,,,,,,,,,,,,10,10,2,2024-10-23_08h41.46.333,uWM_experiment,2022.2.3,60.01763318
,,,,,,,,0,0,0,0,2,0,2,0,,,,,,,,,,,,,,,,,,,,,,,,,,,,,,,,,,,,,,,,,,,,,,,,,,,,,,,,,,,,,,,left,1,10,-30,-20,263.8755522,264.8755922,264.8755922,264.8755922,None,None,4,0,0.2628138,264.8755922,,,,,,,,,,,,,,,,,,,,,,,,,,,,,,,,,,,,,,,,,,,,,,,,,,,,,,,,,,,,,,,,,,,,10,10,2,2024-10-23_08h41.46.333,uWM_experiment,2022.2.3,60.01763318
,,,,,,,,0,0,0,0,3,0,3,0,,,,,,,,,,,,,,,,,,,,,,,,,,,,,,,,,,,,,,,,,,,,,,,,,,,,,,,,,,,,,,,right,1,40,30,70,271.3258747,272.3259143,272.3259143,272.3259143,None,None,4,0,0.2443632,272.3259143,,,,,,,,,,,,,,,,,,,,,,,,,,,,,,,,,,,,,,,,,,,,,,,,,,,,,,,,,,,,,,,,,,,,10,10,2,2024-10-23_08h41.46.333,uWM_experiment,2022.2.3,60.01763318
,,,,,,,,0,0,0,0,4,0,4,0,,,,,,,,,,,,,,,,,,,,,,,,,,,,,,,,,,,,,,,,,,,,,,,,,,,,,,,,,,,,,,,right,1,100,30,130,278.1594608,279.1595278,279.1595278,279.1595278,None,None,4,0,0.0828014,279.1595278,,,,,,,,,,,,,,,,,,,,,,,,,,,,,,,,,,,,,,,,,,,,,,,,,,,,,,,,,,,,,,,,,,,,10,10,2,2024-10-23_08h41.46.333,uWM_experiment,2022.2.3,60.01763318
,,,,,,,,0,0,0,0,5,0,5,0,,,,,,,,,,,,,,,,,,,,,,,,,,,,,,,,,,,,,,,,,,,,,,,,,,,,,,,,,,,,,,,left,1,130,-30,100,284.9097298,285.909784,285.909784,285.909784,None,None,4,0,0.0523895,285.909784,,,,,,,,,,,,,,,,,,,,,,,,,,,,,,,,,,,,,,,,,,,,,,,,,,,,,,,,,,,,,,,,,,,,10,10,2,2024-10-23_08h41.46.333,uWM_experiment,2022.2.3,60.01763318
,,,,,,,,0,0,0,0,,,,,,,,,,,,,,,,,,,,,,,,,,,,,,,,,,,,,,,,,,,,,,,,,,,,,,,,,,,,,,,,,,,,,,,,,,,,,,,,,,,,,,,,,,,,,,,,,,,,,,,,,,,,,,,,,,,,,,,,,,,,,,,,,,,,,,,,,,,,,,,,,,,,,10,10,2,2024-10-23_08h41.46.333,uWM_experiment,2022.2.3,60.01763318
,,,,,,,,,,,,,,,,,,,,,,,,,,,,,,,,,,,,,,,,,,,,,,,,,,,,,,,,,,,,,,,,,,,,,,,,,,,,,,,,,,,,,,,,,,,,,290.776693,290.776693,space,4.6656062,,,,,,,,,,,,,,,,,,,,,,,,,,,,,,,,,,,,,,,,,,,,,,,,,,,,,,,,,,,,,,,,10,10,2,2024-10-23_08h41.46.333,uWM_experiment,2022.2.3,60.01763318
,,,,,,,,,,,,,,,,0,0,0,0,,,,,,,,,,,,,,,,,,,,,,,,,,,,,,,,,,,,,,,,,,,,,,,,,,,,,,,,,,,,,,,,,,,,,,,,,,,,,,0.035167562,left,0,130,30,160,1,301.1438141,301.1438141,301.1438141,None,None,1,1,0.4823922,,,,,,,,,,,,,,,,,,,,,,,,,,,,,,,,,,,,,,,,,,,,,,,,,10,10,2,2024-10-23_08h41.46.333,uWM_experiment,2022.2.3,60.01763318
,,,,,,,,,,,,,,,,1,0,1,0,,,,,,,,,,,,,,,,,,,,,,,,,,,,,,,,,,,,,,,,,,,,,,,,,,,,,,,,,,,,,,,,,,,,,,,,,,,,,,0.045167562,left,1,100,-30,70,1,306.7940035,306.7940035,306.7940035,None,None,2,0,0.3122224,1,,,,,,,,,,,,,,,,,,,,,,,,,,,,,,,,,,,,,,,,,,,,,,,,10,10,2,2024-10-23_08h41.46.333,uWM_experiment,2022.2.3,60.01763318
,,,,,,,,,,,,,,,,2,0,2,0,,,,,,,,,,,,,,,,,,,,,,,,,,,,,,,,,,,,,,,,,,,,,,,,,,,,,,,,,,,,,,,,,,,,,,,,,,,,,,0.1,right,1,40,30,70,2,312.8942198,312.8942198,312.8942198,None,None,3,0,0.8839576,0.5,,,,,,,,,,,,,,,,,,,,,,,,,,,,,,,,,,,,,,,,,,,,,,,,10,10,2,2024-10-23_08h41.46.333,uWM_experiment,2022.2.3,60.01763318
,,,,,,,,,,,,,,,,3,0,3,0,,,,,,,,,,,,,,,,,,,,,,,,,,,,,,,,,,,,,,,,,,,,,,,,,,,,,,,,,,,,,,,,,,,,,,,,,,,,,,0.035167562,left,0,10,30,40,1,319.5111808,319.5111808,319.5111808,None,None,1,1,0.274974,0.333333333,,,,,,,,,,,,,,,,,,,,,,,,,,,,,,,,,,,,,,,,,,,,,,,,10,10,2,2024-10-23_08h41.46.333,uWM_experiment,2022.2.3,60.01763318
,,,,,,,,,,,,,,,,4,0,4,0,,,,,,,,,,,,,,,,,,,,,,,,,,,,,,,,,,,,,,,,,,,,,,,,,,,,,,,,,,,,,,,,,,,,,,,,,,,,,,0.1,left,1,70,-30,40,2,325.8614271,325.8614271,325.8614271,None,None,4,0,1.0206566,0.5,,,,,,,,,,,,,,,,,,,,,,,,,,,,,,,,,,,,,,,,,,,,,,,,10,10,2,2024-10-23_08h41.46.333,uWM_experiment,2022.2.3,60.01763318
,,,,,,,,,,,,,,,,5,0,5,0,,,,,,,,,,,,,,,,,,,,,,,,,,,,,,,,,,,,,,,,,,,,,,,,,,,,,,,,,,,,,,,,,,,,,,,,,,,,,,0.1,left,1,160,-30,130,2,332.6451074,332.6451074,332.6451074,None,None,4,0,0.3090465,0.4,,,,,,,,,,,,,,,,,,,,,,,,,,,,,,,,,,,,,,,,,,,,,,,,10,10,2,2024-10-23_08h41.46.333,uWM_experiment,2022.2.3,60.01763318
,,,,,,,,,,,,,,,,,,,,,,,,,,,,,,,,,,,,,,,,,,,,,,,,,,,,,,,,,,,,,,,,,,,,,,,,,,,,,,,,,,,,,,,,,,,,,,,,,,,,,,,,,,,,,,,,,332.9783869,333.9784881,space,2.9836098,,,,,,,,,,,,,,,,,,,,,,,,,,,,,,,,,,,,,,,,,,,,10,10,2,2024-10-23_08h41.46.333,uWM_experiment,2022.2.3,60.01763318
,,,,,,,,,,,,,,,,,,,,0,0,0,0,0,0,0,0,,,,,,,,,,,,,,,,,,,,,,,,,,,,,,,,,,,,,,,,,,,,,,,,,,,,,,,,,,,,,,,,,,,,,,0.035167562,,,,,,,,,,,,,,,,,,,,336.9952152,337.6953239,337.9786032,338.6787007,338.9786445,339.678691,339.678691,340.0287296,left,1,100,-30,70,1,344.4956477,344.4956477,344.4956477,None,None,2,0,0.250425,,,,,,,,,,,,,,,,,,,,,,10,10,2,2024-10-23_08h41.46.333,uWM_experiment,2022.2.3,60.01763318
,,,,,,,,,,,,,,,,,,,,0,0,0,0,1,0,1,0,,,,,,,,,,,,,,,,,,,,,,,,,,,,,,,,,,,,,,,,,,,,,,,,,,,,,,,,,,,,,,,,,,,,,,0.025167562,,,,,,,,,,,,,,,,,,,,,,,,,,,,left,0,10,30,40,1,350.1791108,350.1791108,350.1791108,None,None,2,0,0.2469781,,,,,,,,,,,,,,,,,,,,,,10,10,2,2024-10-23_08h41.46.333,uWM_experiment,2022.2.3,60.01763318
,,,,,,,,,,,,,,,,,,,,0,0,0,0,2,0,2,0,,,,,,,,,,,,,,,,,,,,,,,,,,,,,,,,,,,,,,,,,,,,,,,,,,,,,,,,,,,,,,,,,,,,,,0.015167562,,,,,,,,,,,,,,,,,,,,,,,,,,,,left,0,100,30,130,1,355.6293311,355.6293311,355.6293311,None,None,1,1,0.260757,,,,,,,,,,,,,,,,,,,,,,10,10,2,2024-10-23_08h41.46.333,uWM_experiment,2022.2.3,60.01763318
,,,,,,,,,,,,,,,,,,,,0,0,0,0,3,0,3,0,,,,,,,,,,,,,,,,,,,,,,,,,,,,,,,,,,,,,,,,,,,,,,,,,,,,,,,,,,,,,,,,,,,,,,0.025167562,,,,,,,,,,,,,,,,,,,,,,,,,,,,right,1,40,30,70,1,361.5629082,361.5629082,361.5629082,None,None,2,0,0.3270612,,,,,,,,,,,,,,,,,,,,,,10,10,2,2024-10-23_08h41.46.333,uWM_experiment,2022.2.3,60.01763318
,,,,,,,,,,,,,,,,,,,,0,0,0,0,4,0,4,0,,,,,,,,,,,,,,,,,,,,,,,,,,,,,,,,,,,,,,,,,,,,,,,,,,,,,,,,,,,,,,,,,,,,,,0.015167562,,,,,,,,,,,,,,,,,,,,,,,,,,,,left,1,160,-30,130,1,367.1131336,367.1131336,367.1131336,None,None,1,1,0.2648906,,,,,,,,,,,,,,,,,,,,,,10,10,2,2024-10-23_08h41.46.333,uWM_experiment,2022.2.3,60.01763318
,,,,,,,,,,,,,,,,,,,,0,0,0,0,5,0,5,0,,,,,,,,,,,,,,,,,,,,,,,,,,,,,,,,,,,,,,,,,,,,,,,,,,,,,,,,,,,,,,,,,,,,,,0.025167562,,,,,,,,,,,,,,,,,,,,,,,,,,,,left,1,40,-30,10,1,372.4800229,372.4800229,372.4800229,None,None,1,1,0.2339426,,,,,,,,,,,,,,,,,,,,,,10,10,2,2024-10-23_08h41.46.333,uWM_experiment,2022.2.3,60.01763318
,,,,,,,,,,,,,,,,,,,,0,0,0,0,6,0,6,0,,,,,,,,,,,,,,,,,,,,,,,,,,,,,,,,,,,,,,,,,,,,,,,,,,,,,,,,,,,,,,,,,,,,,,0.035167562,,,,,,,,,,,,,,,,,,,,,,,,,,,,left,0,100,30,130,1,377.8135702,377.8135702,377.8135702,None,None,1,1,0.2523117,,,,,,,,,,,,,,,,,,,,,,10,10,2,2024-10-23_08h41.46.333,uWM_experiment,2022.2.3,60.01763318
,,,,,,,,,,,,,,,,,,,,0,0,0,0,7,0,7,0,,,,,,,,,,,,,,,,,,,,,,,,,,,,,,,,,,,,,,,,,,,,,,,,,,,,,,,,,,,,,,,,,,,,,,0.045167562,,,,,,,,,,,,,,,,,,,,,,,,,,,,left,1,130,-30,100,1,383.5471437,383.5471437,383.5471437,None,None,2,0,0.2787471,,,,,,,,,,,,,,,,,,,,,,10,10,2,2024-10-23_08h41.46.333,uWM_experiment,2022.2.3,60.01763318
,,,,,,,,,,,,,,,,,,,,0,0,0,0,8,0,8,0,,,,,,,,,,,,,,,,,,,,,,,,,,,,,,,,,,,,,,,,,,,,,,,,,,,,,,,,,,,,,,,,,,,,,,0.035167562,,,,,,,,,,,,,,,,,,,,,,,,,,,,left,1,70,-30,40,1,388.964028,388.964028,388.964028,None,None,1,1,0.3418619,,,,,,,,,,,,,,,,,,,,,,10,10,2,2024-10-23_08h41.46.333,uWM_experiment,2022.2.3,60.01763318
,,,,,,,,,,,,,,,,,,,,0,0,0,0,9,0,9,0,,,,,,,,,,,,,,,,,,,,,,,,,,,,,,,,,,,,,,,,,,,,,,,,,,,,,,,,,,,,,,,,,,,,,,0.045167562,,,,,,,,,,,,,,,,,,,,,,,,,,,,left,1,40,-30,10,1,394.7476416,394.7476416,394.7476416,None,None,2,0,0.3583126,,,,,,,,,,,,,,,,,,,,,,10,10,2,2024-10-23_08h41.46.333,uWM_experiment,2022.2.3,60.01763318
,,,,,,,,,,,,,,,,,,,,0,0,0,0,10,0,10,0,,,,,,,,,,,,,,,,,,,,,,,,,,,,,,,,,,,,,,,,,,,,,,,,,,,,,,,,,,,,,,,,,,,,,,0.035167562,,,,,,,,,,,,,,,,,,,,,,,,,,,,left,0,130,30,160,1,400.7978304,400.7978304,400.7978304,None,None,2,0,0.1880005,,,,,,,,,,,,,,,,,,,,,,10,10,2,2024-10-23_08h41.46.333,uWM_experiment,2022.2.3,60.01763318
,,,,,,,,,,,,,,,,,,,,0,0,0,0,11,0,11,0,,,,,,,,,,,,,,,,,,,,,,,,,,,,,,,,,,,,,,,,,,,,,,,,,,,,,,,,,,,,,,,,,,,,,,0.025167562,,,,,,,,,,,,,,,,,,,,,,,,,,,,left,1,40,-30,10,1,406.1814122,406.1814122,406.1814122,None,None,1,1,0.3084892,,,,,,,,,,,,,,,,,,,,,,10,10,2,2024-10-23_08h41.46.333,uWM_experiment,2022.2.3,60.01763318
,,,,,,,,,,,,,,,,,,,,0,0,0,0,12,0,12,0,,,,,,,,,,,,,,,,,,,,,,,,,,,,,,,,,,,,,,,,,,,,,,,,,,,,,,,,,,,,,,,,,,,,,,0.035167562,,,,,,,,,,,,,,,,,,,,,,,,,,,,left,1,40,-30,10,1,411.6316391,411.6316391,411.6316391,None,None,1,1,0.2181145,,,,,,,,,,,,,,,,,,,,,,10,10,2,2024-10-23_08h41.46.333,uWM_experiment,2022.2.3,60.01763318
,,,,,,,,,,,,,,,,,,,,0,0,0,0,13,0,13,0,,,,,,,,,,,,,,,,,,,,,,,,,,,,,,,,,,,,,,,,,,,,,,,,,,,,,,,,,,,,,,,,,,,,,,0,,,,,,,,,,,,,,,,,,,,,,,,,,,,left,0,130,30,160,0,417.0151818,417.0151818,417.0151818,None,None,1,1,0.2346382,,,,,,,,,,,,,,,,,,,,,,10,10,2,2024-10-23_08h41.46.333,uWM_experiment,2022.2.3,60.01763318
,,,,,,,,,,,,,,,,,,,,0,0,0,0,14,0,14,0,,,,,,,,,,,,,,,,,,,,,,,,,,,,,,,,,,,,,,,,,,,,,,,,,,,,,,,,,,,,,,,,,,,,,,0.045167562,,,,,,,,,,,,,,,,,,,,,,,,,,,,right,1,160,30,190,1,422.7487833,422.7487833,422.7487833,None,None,2,0,0.5489788,,,,,,,,,,,,,,,,,,,,,,10,10,2,2024-10-23_08h41.46.333,uWM_experiment,2022.2.3,60.01763318
,,,,,,,,,,,,,,,,,,,,0,0,0,0,15,0,15,0,,,,,,,,,,,,,,,,,,,,,,,,,,,,,,,,,,,,,,,,,,,,,,,,,,,,,,,,,,,,,,,,,,,,,,0,,,,,,,,,,,,,,,,,,,,,,,,,,,,left,0,130,30,160,0,428.4323168,428.4323168,428.4323168,None,None,1,1,0.3214014,,,,,,,,,,,,,,,,,,,,,,10,10,2,2024-10-23_08h41.46.333,uWM_experiment,2022.2.3,60.01763318
,,,,,,,,,,,,,,,,,,,,0,0,0,0,16,0,16,0,,,,,,,,,,,,,,,,,,,,,,,,,,,,,,,,,,,,,,,,,,,,,,,,,,,,,,,,,,,,,,,,,,,,,,0.035167562,,,,,,,,,,,,,,,,,,,,,,,,,,,,right,1,100,30,130,1,434.2158791,434.2158791,434.2158791,None,None,2,0,0.4659255,,,,,,,,,,,,,,,,,,,,,,10,10,2,2024-10-23_08h41.46.333,uWM_experiment,2022.2.3,60.01763318
,,,,,,,,,,,,,,,,,,,,0,0,0,0,17,0,17,0,,,,,,,,,,,,,,,,,,,,,,,,,,,,,,,,,,,,,,,,,,,,,,,,,,,,,,,,,,,,,,,,,,,,,,0.025167562,,,,,,,,,,,,,,,,,,,,,,,,,,,,left,1,100,-30,70,1,439.8161239,439.8161239,439.8161239,None,None,1,1,0.297623,,,,,,,,,,,,,,,,,,,,,,10,10,2,2024-10-23_08h41.46.333,uWM_experiment,2022.2.3,60.01763318
,,,,,,,,,,,,,,,,,,,,0,0,0,0,18,0,18,0,,,,,,,,,,,,,,,,,,,,,,,,,,,,,,,,,,,,,,,,,,,,,,,,,,,,,,,,,,,,,,,,,,,,,,0.035167562,,,,,,,,,,,,,,,,,,,,,,,,,,,,left,0,130,30,160,1,445.2163294,445.2163294,445.2163294,None,None,1,1,0.345446,,,,,,,,,,,,,,,,,,,,,,10,10,2,2024-10-23_08h41.46.333,uWM_experiment,2022.2.3,60.01763318
,,,,,,,,,,,,,,,,,,,,0,0,0,0,19,0,19,0,,,,,,,,,,,,,,,,,,,,,,,,,,,,,,,,,,,,,,,,,,,,,,,,,,,,,,,,,,,,,,,,,,,,,,0,,,,,,,,,,,,,,,,,,,,,,,,,,,,left,0,160,30,190,0,450.7165486,450.7165486,450.7165486,None,None,1,1,0.3651927,,,,,,,,,,,,,,,,,,,,,,10,10,2,2024-10-23_08h41.46.333,uWM_experiment,2022.2.3,60.01763318
,,,,,,,,,,,,,,,,,,,,0,0,0,0,20,0,20,0,,,,,,,,,,,,,,,,,,,,,,,,,,,,,,,,,,,,,,,,,,,,,,,,,,,,,,,,,,,,,,,,,,,,,,0.045167562,,,,,,,,,,,,,,,,,,,,,,,,,,,,right,1,40,30,70,1,456.5168,456.5168,456.5168,None,None,2,0,0.3169467,,,,,,,,,,,,,,,,,,,,,,10,10,2,2024-10-23_08h41.46.333,uWM_experiment,2022.2.3,60.01763318
,,,,,,,,,,,,,,,,,,,,0,0,0,0,21,0,21,0,,,,,,,,,,,,,,,,,,,,,,,,,,,,,,,,,,,,,,,,,,,,,,,,,,,,,,,,,,,,,,,,,,,,,,0,,,,,,,,,,,,,,,,,,,,,,,,,,,,left,1,130,-30,100,0,462.3337264,462.3337264,462.3337264,None,None,1,1,0.2759213,,,,,,,,,,,,,,,,,,,,,,10,10,2,2024-10-23_08h41.46.333,uWM_experiment,2022.2.3,60.01763318
,,,,,,,,,,,,,,,,,,,,0,0,0,0,22,0,22,0,,,,,,,,,,,,,,,,,,,,,,,,,,,,,,,,,,,,,,,,,,,,,,,,,,,,,,,,,,,,,,,,,,,,,,0.035167562,,,,,,,,,,,,,,,,,,,,,,,,,,,,left,0,160,30,190,1,468.0673185,468.0673185,468.0673185,None,None,1,1,0.2463316,,,,,,,,,,,,,,,,,,,,,,10,10,2,2024-10-23_08h41.46.333,uWM_experiment,2022.2.3,60.01763318
,,,,,,,,,,,,,,,,,,,,0,0,0,0,23,0,23,0,,,,,,,,,,,,,,,,,,,,,,,,,,,,,,,,,,,,,,,,,,,,,,,,,,,,,,,,,,,,,,,,,,,,,,0,,,,,,,,,,,,,,,,,,,,,,,,,,,,left,0,100,30,130,0,473.5174728,473.5174728,473.5174728,None,None,1,1,0.284111,,,,,,,,,,,,,,,,,,,,,,10,10,2,2024-10-23_08h41.46.333,uWM_experiment,2022.2.3,60.01763318
,,,,,,,,,,,,,,,,,,,,0,0,0,0,,,,,0,0,0,0,,,,,,,,,,,,,,,,,,,,,,,,,,,,,,,,,,,,,,,,,,,,,,,,,,,,,,,,,,,,,,,,,,,,,,,,,,,,,,,,,,,,,,,,,,,,,,,,,,,,,,,,,,,,473.8341491,473.8341491,space,24.8154238,None,None,,,,,,,,,,,,,,,,10,10,2,2024-10-23_08h41.46.333,uWM_experiment,2022.2.3,60.01763318
,,,,,,,,,,,,,,,,,,,,0,0,0,0,,,,,1,0,1,0,,,,,,,,,,,,,,,,,,,,,,,,,,,,,,,,,,,,,,,,,,,,,,,,,,,,,,,,,,,,,,,,,,,,,,,,,,,,,,,,,,,,,,,,,,,,,,,,,,,,,,,,,,,,,,,,,,,,,,,,,,,,,,,,,10,10,2,2024-10-23_08h41.46.333,uWM_experiment,2022.2.3,60.01763318
,,,,,,,,,,,,,,,,,,,,0,0,0,0,,,,,2,0,2,0,,,,,,,,,,,,,,,,,,,,,,,,,,,,,,,,,,,,,,,,,,,,,,,,,,,,,,,,,,,,,,,,,,,,,,,,,,,,,,,,,,,,,,,,,,,,,,,,,,,,,,,,,,,,,,,,,,,,,,,,,,,,,,,,,10,10,2,2024-10-23_08h41.46.333,uWM_experiment,2022.2.3,60.01763318
,,,,,,,,,,,,,,,,,,,,1,0,1,0,0,0,0,0,,,,,,,,,,,,,,,,,,,,,,,,,,,,,,,,,,,,,,,,,,,,,,,,,,,,,,,,,,,,,,,,,,,,,,0,,,,,,,,,,,,,,,,,,,,498.6685295,499.3685769,499.6685874,500.3685903,500.6686088,501.3687071,501.3687071,501.6853166,left,1,70,-30,40,0,505.9855174,505.9855174,505.9855174,None,None,1,1,0.2239283,,,,,,,None,,,,,,,,,,,,,,,10,10,2,2024-10-23_08h41.46.333,uWM_experiment,2022.2.3,60.01763318
,,,,,,,,,,,,,,,,,,,,1,0,1,0,1,0,1,0,,,,,,,,,,,,,,,,,,,,,,,,,,,,,,,,,,,,,,,,,,,,,,,,,,,,,,,,,,,,,,,,,,,,,,0.045167562,,,,,,,,,,,,,,,,,,,,,,,,,,,,left,0,160,30,190,1,511.319019,511.319019,511.319019,None,None,2,0,0.2105167,,,,,,,,,,,,,,,,,,,,,,10,10,2,2024-10-23_08h41.46.333,uWM_experiment,2022.2.3,60.01763318
,,,,,,,,,,,,,,,,,,,,1,0,1,0,2,0,2,0,,,,,,,,,,,,,,,,,,,,,,,,,,,,,,,,,,,,,,,,,,,,,,,,,,,,,,,,,,,,,,,,,,,,,,0.035167562,,,,,,,,,,,,,,,,,,,,,,,,,,,,left,1,130,-30,100,1,517.0859472,517.0859472,517.0859472,None,None,2,0,0.4435977,,,,,,,,,,,,,,,,,,,,,,10,10,2,2024-10-23_08h41.46.333,uWM_experiment,2022.2.3,60.01763318
,,,,,,,,,,,,,,,,,,,,1,0,1,0,3,0,3,0,,,,,,,,,,,,,,,,,,,,,,,,,,,,,,,,,,,,,,,,,,,,,,,,,,,,,,,,,,,,,,,,,,,,,,0.025167562,,,,,,,,,,,,,,,,,,,,,,,,,,,,left,0,70,30,100,1,523.0362014,523.0362014,523.0362014,None,None,3,0,0.2532062,,,,,,,,,,,,,,,,,,,,,,10,10,2,2024-10-23_08h41.46.333,uWM_experiment,2022.2.3,60.01763318
,,,,,,,,,,,,,,,,,,,,1,0,1,0,4,0,4,0,,,,,,,,,,,,,,,,,,,,,,,,,,,,,,,,,,,,,,,,,,,,,,,,,,,,,,,,,,,,,,,,,,,,,,0.015167562,,,,,,,,,,,,,,,,,,,,,,,,,,,,left,0,100,30,130,1,529.0364566,529.0364566,529.0364566,None,None,1,1,0.2930203,,,,,,,,,,,,,,,,,,,,,,10,10,2,2024-10-23_08h41.46.333,uWM_experiment,2022.2.3,60.01763318
,,,,,,,,,,,,,,,,,,,,1,0,1,0,5,0,5,0,,,,,,,,,,,,,,,,,,,,,,,,,,,,,,,,,,,,,,,,,,,,,,,,,,,,,,,,,,,,,,,,,,,,,,0.1,,,,,,,,,,,,,,,,,,,,,,,,,,,,left,1,130,-30,100,2,535.0366589,535.0366589,535.0366589,None,None,4,0,0.2686753,,,,,,,,,,,,,,,,,,,,,,10,10,2,2024-10-23_08h41.46.333,uWM_experiment,2022.2.3,60.01763318
,,,,,,,,,,,,,,,,,,,,1,0,1,0,6,0,6,0,,,,,,,,,,,,,,,,,,,,,,,,,,,,,,,,,,,,,,,,,,,,,,,,,,,,,,,,,,,,,,,,,,,,,,0.025167562,,,,,,,,,,,,,,,,,,,,,,,,,,,,right,0,70,-30,40,1,540.7535927,540.7535927,540.7535927,None,None,2,0,0.3677794,,,,,,,,,,,,,,,,,,,,,,10,10,2,2024-10-23_08h41.46.333,uWM_experiment,2022.2.3,60.01763318
,,,,,,,,,,,,,,,,,,,,1,0,1,0,7,0,7,0,,,,,,,,,,,,,,,,,,,,,,,,,,,,,,,,,,,,,,,,,,,,,,,,,,,,,,,,,,,,,,,,,,,,,,0,,,,,,,,,,,,,,,,,,,,,,,,,,,,left,1,10,-30,-20,0,546.3038046,546.3038046,546.3038046,None,None,1,1,0.2656701,,,,,,,,,,,,,,,,,,,,,,10,10,2,2024-10-23_08h41.46.333,uWM_experiment,2022.2.3,60.01763318
,,,,,,,,,,,,,,,,,,,,1,0,1,0,8,0,8,0,,,,,,,,,,,,,,,,,,,,,,,,,,,,,,,,,,,,,,,,,,,,,,,,,,,,,,,,,,,,,,,,,,,,,,0.015167562,,,,,,,,,,,,,,,,,,,,,,,,,,,,left,1,160,-30,130,1,551.7206942,551.7206942,551.7206942,None,None,1,1,0.2487571,,,,,,,,,,,,,,,,,,,,,,10,10,2,2024-10-23_08h41.46.333,uWM_experiment,2022.2.3,60.01763318
,,,,,,,,,,,,,,,,,,,,1,0,1,0,9,0,9,0,,,,,,,,,,,,,,,,,,,,,,,,,,,,,,,,,,,,,,,,,,,,,,,,,,,,,,,,,,,,,,,,,,,,,,0.025167562,,,,,,,,,,,,,,,,,,,,,,,,,,,,left,0,40,30,70,1,557.3376095,557.3376095,557.3376095,None,None,1,1,0.2478006,,,,,,,,,,,,,,,,,,,,,,10,10,2,2024-10-23_08h41.46.333,uWM_experiment,2022.2.3,60.01763318
,,,,,,,,,,,,,,,,,,,,1,0,1,0,10,0,10,0,,,,,,,,,,,,,,,,,,,,,,,,,,,,,,,,,,,,,,,,,,,,,,,,,,,,,,,,,,,,,,,,,,,,,,0.1,,,,,,,,,,,,,,,,,,,,,,,,,,,,left,1,70,-30,40,2,563.4711966,563.4711966,563.4711966,None,None,4,0,0.2101659,,,,,,,,,,,,,,,,,,,,,,10,10,2,2024-10-23_08h41.46.333,uWM_experiment,2022.2.3,60.01763318
,,,,,,,,,,,,,,,,,,,,1,0,1,0,11,0,11,0,,,,,,,,,,,,,,,,,,,,,,,,,,,,,,,,,,,,,,,,,,,,,,,,,,,,,,,,,,,,,,,,,,,,,,0.035167562,,,,,,,,,,,,,,,,,,,,,,,,,,,,left,0,70,30,100,1,568.8380589,568.8380589,568.8380589,None,None,1,1,0.2672492,,,,,,,,,,,,,,,,,,,,,,10,10,2,2024-10-23_08h41.46.333,uWM_experiment,2022.2.3,60.01763318
,,,,,,,,,,,,,,,,,,,,1,0,1,0,12,0,12,0,,,,,,,,,,,,,,,,,,,,,,,,,,,,,,,,,,,,,,,,,,,,,,,,,,,,,,,,,,,,,,,,,,,,,,0,,,,,,,,,,,,,,,,,,,,,,,,,,,,left,1,40,-30,10,0,575.2050908,575.2050908,575.2050908,None,None,1,1,0.1881146,,,,,,,,,,,,,,,,,,,,,,10,10,2,2024-10-23_08h41.46.333,uWM_experiment,2022.2.3,60.01763318
,,,,,,,,,,,,,,,,,,,,1,0,1,0,13,0,13,0,,,,,,,,,,,,,,,,,,,,,,,,,,,,,,,,,,,,,,,,,,,,,,,,,,,,,,,,,,,,,,,,,,,,,,0,,,,,,,,,,,,,,,,,,,,,,,,,,,,left,0,100,30,130,0,580.9052356,580.9052356,580.9052356,None,None,1,1,0.240063,,,,,,,,,,,,,,,,,,,,,,10,10,2,2024-10-23_08h41.46.333,uWM_experiment,2022.2.3,60.01763318
,,,,,,,,,,,,,,,,,,,,1,0,1,0,14,0,14,0,,,,,,,,,,,,,,,,,,,,,,,,,,,,,,,,,,,,,,,,,,,,,,,,,,,,,,,,,,,,,,,,,,,,,,0.045167562,,,,,,,,,,,,,,,,,,,,,,,,,,,,left,0,100,30,130,1,586.5887779,586.5887779,586.5887779,None,None,1,1,0.1884265,,,,,,,,,,,,,,,,,,,,,,10,10,2,2024-10-23_08h41.46.333,uWM_experiment,2022.2.3,60.01763318
,,,,,,,,,,,,,,,,,,,,1,0,1,0,15,0,15,0,,,,,,,,,,,,,,,,,,,,,,,,,,,,,,,,,,,,,,,,,,,,,,,,,,,,,,,,,,,,,,,,,,,,,,0.055167562,,,,,,,,,,,,,,,,,,,,,,,,,,,,right,1,100,30,130,1,592.2057044,592.2057044,592.2057044,None,None,2,0,0.2595366,,,,,,,,,,,,,,,,,,,,,,10,10,2,2024-10-23_08h41.46.333,uWM_experiment,2022.2.3,60.01763318
,,,,,,,,,,,,,,,,,,,,1,0,1,0,16,0,16,0,,,,,,,,,,,,,,,,,,,,,,,,,,,,,,,,,,,,,,,,,,,,,,,,,,,,,,,,,,,,,,,,,,,,,,0.045167562,,,,,,,,,,,,,,,,,,,,,,,,,,,,left,0,100,30,130,1,597.8392559,597.8392559,597.8392559,None,None,1,1,0.2739728,,,,,,,,,,,,,,,,,,,,,,10,10,2,2024-10-23_08h41.46.333,uWM_experiment,2022.2.3,60.01763318
,,,,,,,,,,,,,,,,,,,,1,0,1,0,17,0,17,0,,,,,,,,,,,,,,,,,,,,,,,,,,,,,,,,,,,,,,,,,,,,,,,,,,,,,,,,,,,,,,,,,,,,,,0.055167562,,,,,,,,,,,,,,,,,,,,,,,,,,,,left,1,40,-30,10,1,603.5061731,603.5061731,603.5061731,None,None,3,0,0.2549909,,,,,,,,,,,,,,,,,,,,,,10,10,2,2024-10-23_08h41.46.333,uWM_experiment,2022.2.3,60.01763318
,,,,,,,,,,,,,,,,,,,,1,0,1,0,18,0,18,0,,,,,,,,,,,,,,,,,,,,,,,,,,,,,,,,,,,,,,,,,,,,,,,,,,,,,,,,,,,,,,,,,,,,,,0.045167562,,,,,,,,,,,,,,,,,,,,,,,,,,,,left,1,160,-30,130,1,608.9231097,608.9231097,608.9231097,None,None,1,1,0.3420124,,,,,,,,,,,,,,,,,,,,,,10,10,2,2024-10-23_08h41.46.333,uWM_experiment,2022.2.3,60.01763318
,,,,,,,,,,,,,,,,,,,,1,0,1,0,19,0,19,0,,,,,,,,,,,,,,,,,,,,,,,,,,,,,,,,,,,,,,,,,,,,,,,,,,,,,,,,,,,,,,,,,,,,,,0,,,,,,,,,,,,,,,,,,,,,,,,,,,,left,0,130,30,160,0,614.4399453,614.4399453,614.4399453,None,None,1,1,0.1691406,,,,,,,,,,,,,,,,,,,,,,10,10,2,2024-10-23_08h41.46.333,uWM_experiment,2022.2.3,60.01763318
,,,,,,,,,,,,,,,,,,,,1,0,1,0,20,0,20,0,,,,,,,,,,,,,,,,,,,,,,,,,,,,,,,,,,,,,,,,,,,,,,,,,,,,,,,,,,,,,,,,,,,,,,0.055167562,,,,,,,,,,,,,,,,,,,,,,,,,,,,left,1,130,-30,100,1,620.406856,620.406856,620.406856,None,None,2,0,0.2583112,,,,,,,,,,,,,,,,,,,,,,10,10,2,2024-10-23_08h41.46.333,uWM_experiment,2022.2.3,60.01763318
,,,,,,,,,,,,,,,,,,,,1,0,1,0,21,0,21,0,,,,,,,,,,,,,,,,,,,,,,,,,,,,,,,,,,,,,,,,,,,,,,,,,,,,,,,,,,,,,,,,,,,,,,0,,,,,,,,,,,,,,,,,,,,,,,,,,,,left,0,10,30,40,0,626.4404246,626.4404246,626.4404246,None,None,1,1,0.4726217,,,,,,,,,,,,,,,,,,,,,,10,10,2,2024-10-23_08h41.46.333,uWM_experiment,2022.2.3,60.01763318
,,,,,,,,,,,,,,,,,,,,1,0,1,0,22,0,22,0,,,,,,,,,,,,,,,,,,,,,,,,,,,,,,,,,,,,,,,,,,,,,,,,,,,,,,,,,,,,,,,,,,,,,,0.045167562,,,,,,,,,,,,,,,,,,,,,,,,,,,,left,1,40,-30,10,1,632.3740203,632.3740203,632.3740203,None,None,2,0,0.3311129,,,,,,,,,,,,,,,,,,,,,,10,10,2,2024-10-23_08h41.46.333,uWM_experiment,2022.2.3,60.01763318
,,,,,,,,,,,,,,,,,,,,1,0,1,0,23,0,23,0,,,,,,,,,,,,,,,,,,,,,,,,,,,,,,,,,,,,,,,,,,,,,,,,,,,,,,,,,,,,,,,,,,,,,,0.035167562,,,,,,,,,,,,,,,,,,,,,,,,,,,,right,0,40,-30,10,1,638.2409231,638.2409231,638.2409231,None,None,2,0,0.2322223,,,,,,,,,,,,,,,,,,,,,,10,10,2,2024-10-23_08h41.46.333,uWM_experiment,2022.2.3,60.01763318
,,,,,,,,,,,,,,,,,,,,1,0,1,0,,,,,0,0,0,0,,,,,,,,,,,,,,,,,,,,,,,,,,,,,,,,,,,,,,,,,,,,,,,,,,,,,,,,,,,,,,,,,,,,,,,,,,,,,,,,,,,,,,,,,,,,,,,,,,,,,,,,,,,,638.4909102,638.4909102,space,0.9102278,None,None,,,,,,,,,,,,,,,,10,10,2,2024-10-23_08h41.46.333,uWM_experiment,2022.2.3,60.01763318
,,,,,,,,,,,,,,,,,,,,1,0,1,0,,,,,1,0,1,0,,,,,,,,,,,,,,,,,,,,,,,,,,,,,,,,,,,,,,,,,,,,,,,,,,,,,,,,,,,,,,,,,,,,,,,,,,,,,,,,,,,,,,,,,,,,,,,,,,,,,,,,,,,,,,,,,,,,,,,,,,,,,,,,,10,10,2,2024-10-23_08h41.46.333,uWM_experiment,2022.2.3,60.01763318
,,,,,,,,,,,,,,,,,,,,1,0,1,0,,,,,2,0,2,0,,,,,,,,,,,,,,,,,,,,,,,,,,,,,,,,,,,,,,,,,,,,,,,,,,,,,,,,,,,,,,,,,,,,,,,,,,,,,,,,,,,,,,,,,,,,,,,,,,,,,,,,,,,,,,,,,,,,,,,,,,,,,,,,,10,10,2,2024-10-23_08h41.46.333,uWM_experiment,2022.2.3,60.01763318
,,,,,,,,,,,,,,,,,,,,2,0,2,0,0,0,0,0,,,,,,,,,,,,,,,,,,,,,,,,,,,,,,,,,,,,,,,,,,,,,,,,,,,,,,,,,,,,,,,,,,,,,,0,,,,,,,,,,,,,,,,,,,,639.4243058,640.124333,640.4243561,641.1244205,641.4243829,642.1244684,642.1244684,642.4410863,left,1,100,-30,70,0,646.6912851,646.6912851,646.6912851,None,None,1,1,0.1577479,,,,,,,None,,,,,,,,,,,,,,,10,10,2,2024-10-23_08h41.46.333,uWM_experiment,2022.2.3,60.01763318
,,,,,,,,,,,,,,,,,,,,2,0,2,0,1,0,1,0,,,,,,,,,,,,,,,,,,,,,,,,,,,,,,,,,,,,,,,,,,,,,,,,,,,,,,,,,,,,,,,,,,,,,,0.1,,,,,,,,,,,,,,,,,,,,,,,,,,,,right,1,160,30,190,2,652.5081723,652.5081723,652.5081723,None,None,4,0,0.2288747,,,,,,,,,,,,,,,,,,,,,,10,10,2,2024-10-23_08h41.46.333,uWM_experiment,2022.2.3,60.01763318
,,,,,,,,,,,,,,,,,,,,2,0,2,0,2,0,2,0,,,,,,,,,,,,,,,,,,,,,,,,,,,,,,,,,,,,,,,,,,,,,,,,,,,,,,,,,,,,,,,,,,,,,,0.025167562,,,,,,,,,,,,,,,,,,,,,,,,,,,,right,0,40,-30,10,1,657.8750571,657.8750571,657.8750571,None,None,2,0,0.2059673,,,,,,,,,,,,,,,,,,,,,,10,10,2,2024-10-23_08h41.46.333,uWM_experiment,2022.2.3,60.01763318
,,,,,,,,,,,,,,,,,,,,2,0,2,0,3,0,3,0,,,,,,,,,,,,,,,,,,,,,,,,,,,,,,,,,,,,,,,,,,,,,,,,,,,,,,,,,,,,,,,,,,,,,,0,,,,,,,,,,,,,,,,,,,,,,,,,,,,left,1,70,-30,40,0,663.3586468,663.3586468,663.3586468,None,None,1,1,0.2182669,,,,,,,,,,,,,,,,,,,,,,10,10,2,2024-10-23_08h41.46.333,uWM_experiment,2022.2.3,60.01763318
,,,,,,,,,,,,,,,,,,,,2,0,2,0,4,0,4,0,,,,,,,,,,,,,,,,,,,,,,,,,,,,,,,,,,,,,,,,,,,,,,,,,,,,,,,,,,,,,,,,,,,,,,0.1,,,,,,,,,,,,,,,,,,,,,,,,,,,,left,1,10,-30,-20,2,669.7755449,669.7755449,669.7755449,None,None,4,0,0.2734772,,,,,,,,,,,,,,,,,,,,,,10,10,2,2024-10-23_08h41.46.333,uWM_experiment,2022.2.3,60.01763318
,,,,,,,,,,,,,,,,,,,,2,0,2,0,5,0,5,0,,,,,,,,,,,,,,,,,,,,,,,,,,,,,,,,,,,,,,,,,,,,,,,,,,,,,,,,,,,,,,,,,,,,,,0.015167562,,,,,,,,,,,,,,,,,,,,,,,,,,,,left,0,100,30,130,1,675.2257632,675.2257632,675.2257632,None,None,1,1,0.1751783,,,,,,,,,,,,,,,,,,,,,,10,10,2,2024-10-23_08h41.46.333,uWM_experiment,2022.2.3,60.01763318
,,,,,,,,,,,,,,,,,,,,2,0,2,0,6,0,6,0,,,,,,,,,,,,,,,,,,,,,,,,,,,,,,,,,,,,,,,,,,,,,,,,,,,,,,,,,,,,,,,,,,,,,,0.025167562,,,,,,,,,,,,,,,,,,,,,,,,,,,,left,0,10,30,40,1,680.8759775,680.8759775,680.8759775,None,None,1,1,0.1969889,,,,,,,,,,,,,,,,,,,,,,10,10,2,2024-10-23_08h41.46.333,uWM_experiment,2022.2.3,60.01763318
,,,,,,,,,,,,,,,,,,,,2,0,2,0,7,0,7,0,,,,,,,,,,,,,,,,,,,,,,,,,,,,,,,,,,,,,,,,,,,,,,,,,,,,,,,,,,,,,,,,,,,,,,0,,,,,,,,,,,,,,,,,,,,,,,,,,,,left,1,10,-30,-20,0,686.459589,686.459589,686.459589,None,None,1,1,0.1973138,,,,,,,,,,,,,,,,,,,,,,10,10,2,2024-10-23_08h41.46.333,uWM_experiment,2022.2.3,60.01763318
,,,,,,,,,,,,,,,,,,,,2,0,2,0,8,0,8,0,,,,,,,,,,,,,,,,,,,,,,,,,,,,,,,,,,,,,,,,,,,,,,,,,,,,,,,,,,,,,,,,,,,,,,0.035167562,,,,,,,,,,,,,,,,,,,,,,,,,,,,left,1,100,-30,70,1,691.8431015,691.8431015,691.8431015,None,None,1,1,0.1817758,,,,,,,,,,,,,,,,,,,,,,10,10,2,2024-10-23_08h41.46.333,uWM_experiment,2022.2.3,60.01763318
,,,,,,,,,,,,,,,,,,,,2,0,2,0,9,0,9,0,,,,,,,,,,,,,,,,,,,,,,,,,,,,,,,,,,,,,,,,,,,,,,,,,,,,,,,,,,,,,,,,,,,,,,0.045167562,,,,,,,,,,,,,,,,,,,,,,,,,,,,right,0,130,-30,100,1,697.1600071,697.1600071,697.1600071,None,None,2,0,0.3208094,,,,,,,,,,,,,,,,,,,,,,10,10,2,2024-10-23_08h41.46.333,uWM_experiment,2022.2.3,60.01763318
,,,,,,,,,,,,,,,,,,,,2,0,2,0,10,0,10,0,,,,,,,,,,,,,,,,,,,,,,,,,,,,,,,,,,,,,,,,,,,,,,,,,,,,,,,,,,,,,,,,,,,,,,0.035167562,,,,,,,,,,,,,,,,,,,,,,,,,,,,right,1,10,30,40,1,702.8435798,702.8435798,702.8435798,None,None,3,0,0.5012542,,,,,,,,,,,,,,,,,,,,,,10,10,2,2024-10-23_08h41.46.333,uWM_experiment,2022.2.3,60.01763318
,,,,,,,,,,,,,,,,,,,,2,0,2,0,11,0,11,0,,,,,,,,,,,,,,,,,,,,,,,,,,,,,,,,,,,,,,,,,,,,,,,,,,,,,,,,,,,,,,,,,,,,,,0,,,,,,,,,,,,,,,,,,,,,,,,,,,,left,0,130,30,160,0,708.5271397,708.5271397,708.5271397,None,None,1,1,0.5536582,,,,,,,,,,,,,,,,,,,,,,10,10,2,2024-10-23_08h41.46.333,uWM_experiment,2022.2.3,60.01763318
,,,,,,,,,,,,,,,,,,,,2,0,2,0,12,0,12,0,,,,,,,,,,,,,,,,,,,,,,,,,,,,,,,,,,,,,,,,,,,,,,,,,,,,,,,,,,,,,,,,,,,,,,0.025167562,,,,,,,,,,,,,,,,,,,,,,,,,,,,left,1,40,-30,10,1,714.3273773,714.3273773,714.3273773,None,None,1,1,0.2574868,,,,,,,,,,,,,,,,,,,,,,10,10,2,2024-10-23_08h41.46.333,uWM_experiment,2022.2.3,60.01763318
,,,,,,,,,,,,,,,,,,,,2,0,2,0,13,0,13,0,,,,,,,,,,,,,,,,,,,,,,,,,,,,,,,,,,,,,,,,,,,,,,,,,,,,,,,,,,,,,,,,,,,,,,0.035167562,,,,,,,,,,,,,,,,,,,,,,,,,,,,left,1,10,-30,-20,1,719.9776174,719.9776174,719.9776174,None,None,1,1,0.2471509,,,,,,,,,,,,,,,,,,,,,,10,10,2,2024-10-23_08h41.46.333,uWM_experiment,2022.2.3,60.01763318
,,,,,,,,,,,,,,,,,,,,2,0,2,0,14,0,14,0,,,,,,,,,,,,,,,,,,,,,,,,,,,,,,,,,,,,,,,,,,,,,,,,,,,,,,,,,,,,,,,,,,,,,,0.045167562,,,,,,,,,,,,,,,,,,,,,,,,,,,,right,1,70,30,100,1,725.3778226,725.3778226,725.3778226,None,None,2,0,0.2469963,,,,,,,,,,,,,,,,,,,,,,10,10,2,2024-10-23_08h41.46.333,uWM_experiment,2022.2.3,60.01763318
,,,,,,,,,,,,,,,,,,,,2,0,2,0,15,0,15,0,,,,,,,,,,,,,,,,,,,,,,,,,,,,,,,,,,,,,,,,,,,,,,,,,,,,,,,,,,,,,,,,,,,,,,0,,,,,,,,,,,,,,,,,,,,,,,,,,,,left,0,10,30,40,0,730.9613999,730.9613999,730.9613999,None,None,1,1,0.4794163,,,,,,,,,,,,,,,,,,,,,,10,10,2,2024-10-23_08h41.46.333,uWM_experiment,2022.2.3,60.01763318
,,,,,,,,,,,,,,,,,,,,2,0,2,0,16,0,16,0,,,,,,,,,,,,,,,,,,,,,,,,,,,,,,,,,,,,,,,,,,,,,,,,,,,,,,,,,,,,,,,,,,,,,,0.035167562,,,,,,,,,,,,,,,,,,,,,,,,,,,,left,0,40,30,70,1,736.5949908,736.5949908,736.5949908,None,None,1,1,0.1738505,,,,,,,,,,,,,,,,,,,,,,10,10,2,2024-10-23_08h41.46.333,uWM_experiment,2022.2.3,60.01763318
,,,,,,,,,,,,,,,,,,,,2,0,2,0,17,0,17,0,,,,,,,,,,,,,,,,,,,,,,,,,,,,,,,,,,,,,,,,,,,,,,,,,,,,,,,,,,,,,,,,,,,,,,0.045167562,,,,,,,,,,,,,,,,,,,,,,,,,,,,left,0,70,30,100,1,742.0785133,742.0785133,742.0785133,None,None,1,1,0.1701365,,,,,,,,,,,,,,,,,,,,,,10,10,2,2024-10-23_08h41.46.333,uWM_experiment,2022.2.3,60.01763318
,,,,,,,,,,,,,,,,,,,,2,0,2,0,18,0,18,0,,,,,,,,,,,,,,,,,,,,,,,,,,,,,,,,,,,,,,,,,,,,,,,,,,,,,,,,,,,,,,,,,,,,,,0.055167562,,,,,,,,,,,,,,,,,,,,,,,,,,,,left,1,100,-30,70,1,747.3954287,747.3954287,747.3954287,None,None,1,1,0.2453212,,,,,,,,,,,,,,,,,,,,,,10,10,2,2024-10-23_08h41.46.333,uWM_experiment,2022.2.3,60.01763318
,,,,,,,,,,,,,,,,,,,,2,0,2,0,19,0,19,0,,,,,,,,,,,,,,,,,,,,,,,,,,,,,,,,,,,,,,,,,,,,,,,,,,,,,,,,,,,,,,,,,,,,,,0.1,,,,,,,,,,,,,,,,,,,,,,,,,,,,right,1,10,30,40,2,753.3956488,753.3956488,753.3956488,None,None,4,0,0.3010158,,,,,,,,,,,,,,,,,,,,,,10,10,2,2024-10-23_08h41.46.333,uWM_experiment,2022.2.3,60.01763318
,,,,,,,,,,,,,,,,,,,,2,0,2,0,20,0,20,0,,,,,,,,,,,,,,,,,,,,,,,,,,,,,,,,,,,,,,,,,,,,,,,,,,,,,,,,,,,,,,,,,,,,,,0.065167562,,,,,,,,,,,,,,,,,,,,,,,,,,,,right,1,10,30,40,1,759.0125195,759.0125195,759.0125195,None,None,2,0,0.3002544,,,,,,,,,,,,,,,,,,,,,,10,10,2,2024-10-23_08h41.46.333,uWM_experiment,2022.2.3,60.01763318
,,,,,,,,,,,,,,,,,,,,2,0,2,0,21,0,21,0,,,,,,,,,,,,,,,,,,,,,,,,,,,,,,,,,,,,,,,,,,,,,,,,,,,,,,,,,,,,,,,,,,,,,,0,,,,,,,,,,,,,,,,,,,,,,,,,,,,left,1,100,-30,70,0,764.446092,764.446092,764.446092,None,None,1,1,0.2425692,,,,,,,,,,,,,,,,,,,,,,10,10,2,2024-10-23_08h41.46.333,uWM_experiment,2022.2.3,60.01763318
,,,,,,,,,,,,,,,,,,,,2,0,2,0,22,0,22,0,,,,,,,,,,,,,,,,,,,,,,,,,,,,,,,,,,,,,,,,,,,,,,,,,,,,,,,,,,,,,,,,,,,,,,0.055167562,,,,,,,,,,,,,,,,,,,,,,,,,,,,left,1,70,-30,40,1,769.7962967,769.7962967,769.7962967,None,None,2,0,0.2522974,,,,,,,,,,,,,,,,,,,,,,10,10,2,2024-10-23_08h41.46.333,uWM_experiment,2022.2.3,60.01763318
,,,,,,,,,,,,,,,,,,,,2,0,2,0,23,0,23,0,,,,,,,,,,,,,,,,,,,,,,,,,,,,,,,,,,,,,,,,,,,,,,,,,,,,,,,,,,,,,,,,,,,,,,0.045167562,,,,,,,,,,,,,,,,,,,,,,,,,,,,right,1,100,30,130,1,775.5465369,775.5465369,775.5465369,None,None,2,0,0.3980819,,,,,,,,,,,,,,,,,,,,,,10,10,2,2024-10-23_08h41.46.333,uWM_experiment,2022.2.3,60.01763318
,,,,,,,,,,,,,,,,,,,,2,0,2,0,,,,,0,0,0,0,,,,,,,,,,,,,,,,,,,,,,,,,,,,,,,,,,,,,,,,,,,,,,,,,,,,,,,,,,,,,,,,,,,,,,,,,,,,,,,,,,,,,,,,,,,,,,,,,,,,,,,,,,,,775.9632647,775.9632647,space,5.6774074,space,None,,781.6634624,781.6634624,5.4491363,,,,,,,,,,,,10,10,2,2024-10-23_08h41.46.333,uWM_experiment,2022.2.3,60.01763318
,,,,,,,,,,,,,,,,,,,,2,0,2,0,,,,,1,0,1,0,,,,,,,,,,,,,,,,,,,,,,,,,,,,,,,,,,,,,,,,,,,,,,,,,,,,,,,,,,,,,,,,,,,,,,,,,,,,,,,,,,,,,,,,,,,,,,,,,,,,,,,,,,,,,,,,,,,,,,,,,,,,,,,,,10,10,2,2024-10-23_08h41.46.333,uWM_experiment,2022.2.3,60.01763318
,,,,,,,,,,,,,,,,,,,,2,0,2,0,,,,,2,0,2,0,,,,,,,,,,,,,,,,,,,,,,,,,,,,,,,,,,,,,,,,,,,,,,,,,,,,,,,,,,,,,,,,,,,,,,,,,,,,,,,,,,,,,,,,,,,,,,,,,,,,,,,,,,,,,,,,,,,,,,,,,,,,,,,,,10,10,2,2024-10-23_08h41.46.333,uWM_experiment,2022.2.3,60.01763318
,,,,,,,,,,,,,,,,,,,,3,0,3,0,0,0,0,0,,,,,,,,,,,,,,,,,,,,,,,,,,,,,,,,,,,,,,,,,,,,,,,,,,,,,,,,,,,,,,,,,,,,,,0.035167562,,,,,,,,,,,,,,,,,,,,787.1304145,787.8303685,788.1304497,788.830417,789.1305058,789.8304948,789.8304948,790.1471386,left,1,10,-30,-20,1,794.5306387,794.5306387,794.5306387,None,None,2,0,0.3579447,,,,,,,None,,,,,,,,,,,,,,,10,10,2,2024-10-23_08h41.46.333,uWM_experiment,2022.2.3,60.01763318
,,,,,,,,,,,,,,,,,,,,3,0,3,0,1,0,1,0,,,,,,,,,,,,,,,,,,,,,,,,,,,,,,,,,,,,,,,,,,,,,,,,,,,,,,,,,,,,,,,,,,,,,,0.025167562,,,,,,,,,,,,,,,,,,,,,,,,,,,,left,0,160,30,190,1,800.0642463,800.0642463,800.0642463,None,None,1,1,0.7123789,,,,,,,,,,,,,,,,,,,,,,10,10,2,2024-10-23_08h41.46.333,uWM_experiment,2022.2.3,60.01763318
,,,,,,,,,,,,,,,,,,,,3,0,3,0,2,0,2,0,,,,,,,,,,,,,,,,,,,,,,,,,,,,,,,,,,,,,,,,,,,,,,,,,,,,,,,,,,,,,,,,,,,,,,0.035167562,,,,,,,,,,,,,,,,,,,,,,,,,,,,left,1,70,-30,40,1,806.3144694,806.3144694,806.3144694,None,None,1,1,0.582015,,,,,,,,,,,,,,,,,,,,,,10,10,2,2024-10-23_08h41.46.333,uWM_experiment,2022.2.3,60.01763318
,,,,,,,,,,,,,,,,,,,,3,0,3,0,3,0,3,0,,,,,,,,,,,,,,,,,,,,,,,,,,,,,,,,,,,,,,,,,,,,,,,,,,,,,,,,,,,,,,,,,,,,,,0.045167562,,,,,,,,,,,,,,,,,,,,,,,,,,,,left,1,10,-30,-20,1,812.2980419,812.2980419,812.2980419,None,None,2,0,0.2863597,,,,,,,,,,,,,,,,,,,,,,10,10,2,2024-10-23_08h41.46.333,uWM_experiment,2022.2.3,60.01763318
,,,,,,,,,,,,,,,,,,,,3,0,3,0,4,0,4,0,,,,,,,,,,,,,,,,,,,,,,,,,,,,,,,,,,,,,,,,,,,,,,,,,,,,,,,,,,,,,,,,,,,,,,0.035167562,,,,,,,,,,,,,,,,,,,,,,,,,,,,left,0,10,30,40,1,817.7316067,817.7316067,817.7316067,None,None,1,1,0.2527916,,,,,,,,,,,,,,,,,,,,,,10,10,2,2024-10-23_08h41.46.333,uWM_experiment,2022.2.3,60.01763318
,,,,,,,,,,,,,,,,,,,,3,0,3,0,5,0,5,0,,,,,,,,,,,,,,,,,,,,,,,,,,,,,,,,,,,,,,,,,,,,,,,,,,,,,,,,,,,,,,,,,,,,,,0.045167562,,,,,,,,,,,,,,,,,,,,,,,,,,,,right,1,70,30,100,1,823.6151855,823.6151855,823.6151855,None,None,2,0,0.3372504,,,,,,,,,,,,,,,,,,,,,,10,10,2,2024-10-23_08h41.46.333,uWM_experiment,2022.2.3,60.01763318
,,,,,,,,,,,,,,,,,,,,3,0,3,0,6,0,6,0,,,,,,,,,,,,,,,,,,,,,,,,,,,,,,,,,,,,,,,,,,,,,,,,,,,,,,,,,,,,,,,,,,,,,,0.035167562,,,,,,,,,,,,,,,,,,,,,,,,,,,,right,1,10,30,40,1,829.6320991,829.6320991,829.6320991,None,None,2,0,0.1923221,,,,,,,,,,,,,,,,,,,,,,10,10,2,2024-10-23_08h41.46.333,uWM_experiment,2022.2.3,60.01763318
,,,,,,,,,,,,,,,,,,,,3,0,3,0,7,0,7,0,,,,,,,,,,,,,,,,,,,,,,,,,,,,,,,,,,,,,,,,,,,,,,,,,,,,,,,,,,,,,,,,,,,,,,0.025167562,,,,,,,,,,,,,,,,,,,,,,,,,,,,left,1,100,-30,70,1,835.3490227,835.3490227,835.3490227,None,None,1,1,0.2193448,,,,,,,,,,,,,,,,,,,,,,10,10,2,2024-10-23_08h41.46.333,uWM_experiment,2022.2.3,60.01763318
,,,,,,,,,,,,,,,,,,,,3,0,3,0,8,0,8,0,,,,,,,,,,,,,,,,,,,,,,,,,,,,,,,,,,,,,,,,,,,,,,,,,,,,,,,,,,,,,,,,,,,,,,0.035167562,,,,,,,,,,,,,,,,,,,,,,,,,,,,right,1,10,30,40,1,841.0992826,841.0992826,841.0992826,None,None,2,0,0.1571208,,,,,,,,,,,,,,,,,,,,,,10,10,2,2024-10-23_08h41.46.333,uWM_experiment,2022.2.3,60.01763318
,,,,,,,,,,,,,,,,,,,,3,0,3,0,9,0,9,0,,,,,,,,,,,,,,,,,,,,,,,,,,,,,,,,,,,,,,,,,,,,,,,,,,,,,,,,,,,,,,,,,,,,,,0,,,,,,,,,,,,,,,,,,,,,,,,,,,,left,1,130,-30,100,0,846.4994522,846.4994522,846.4994522,None,None,1,1,0.5649506,,,,,,,,,,,,,,,,,,,,,,10,10,2,2024-10-23_08h41.46.333,uWM_experiment,2022.2.3,60.01763318
,,,,,,,,,,,,,,,,,,,,3,0,3,0,10,0,10,0,,,,,,,,,,,,,,,,,,,,,,,,,,,,,,,,,,,,,,,,,,,,,,,,,,,,,,,,,,,,,,,,,,,,,,0,,,,,,,,,,,,,,,,,,,,,,,,,,,,left,0,130,30,160,0,852.4163469,852.4163469,852.4163469,None,None,1,1,0.1840208,,,,,,,,,,,,,,,,,,,,,,10,10,2,2024-10-23_08h41.46.333,uWM_experiment,2022.2.3,60.01763318
,,,,,,,,,,,,,,,,,,,,3,0,3,0,11,0,11,0,,,,,,,,,,,,,,,,,,,,,,,,,,,,,,,,,,,,,,,,,,,,,,,,,,,,,,,,,,,,,,,,,,,,,,0.025167562,,,,,,,,,,,,,,,,,,,,,,,,,,,,right,0,70,-30,40,1,858.5332951,858.5332951,858.5332951,None,None,2,0,0.2910408,,,,,,,,,,,,,,,,,,,,,,10,10,2,2024-10-23_08h41.46.333,uWM_experiment,2022.2.3,60.01763318
,,,,,,,,,,,,,,,,,,,,3,0,3,0,12,0,12,0,,,,,,,,,,,,,,,,,,,,,,,,,,,,,,,,,,,,,,,,,,,,,,,,,,,,,,,,,,,,,,,,,,,,,,0.015167562,,,,,,,,,,,,,,,,,,,,,,,,,,,,left,0,100,30,130,1,864.5501651,864.5501651,864.5501651,None,None,1,1,0.2741795,,,,,,,,,,,,,,,,,,,,,,10,10,2,2024-10-23_08h41.46.333,uWM_experiment,2022.2.3,60.01763318
,,,,,,,,,,,,,,,,,,,,3,0,3,0,13,0,13,0,,,,,,,,,,,,,,,,,,,,,,,,,,,,,,,,,,,,,,,,,,,,,,,,,,,,,,,,,,,,,,,,,,,,,,0.025167562,,,,,,,,,,,,,,,,,,,,,,,,,,,,left,0,160,30,190,1,870.0004257,870.0004257,870.0004257,None,None,1,1,0.1998109,,,,,,,,,,,,,,,,,,,,,,10,10,2,2024-10-23_08h41.46.333,uWM_experiment,2022.2.3,60.01763318
,,,,,,,,,,,,,,,,,,,,3,0,3,0,14,0,14,0,,,,,,,,,,,,,,,,,,,,,,,,,,,,,,,,,,,,,,,,,,,,,,,,,,,,,,,,,,,,,,,,,,,,,,0.035167562,,,,,,,,,,,,,,,,,,,,,,,,,,,,right,1,70,30,100,1,875.6339696,875.6339696,875.6339696,None,None,3,0,0.5103108,,,,,,,,,,,,,,,,,,,,,,10,10,2,2024-10-23_08h41.46.333,uWM_experiment,2022.2.3,60.01763318
,,,,,,,,,,,,,,,,,,,,3,0,3,0,15,0,15,0,,,,,,,,,,,,,,,,,,,,,,,,,,,,,,,,,,,,,,,,,,,,,,,,,,,,,,,,,,,,,,,,,,,,,,0.025167562,,,,,,,,,,,,,,,,,,,,,,,,,,,,left,0,130,30,160,1,881.2675315,881.2675315,881.2675315,None,None,1,1,0.204673,,,,,,,,,,,,,,,,,,,,,,10,10,2,2024-10-23_08h41.46.333,uWM_experiment,2022.2.3,60.01763318
,,,,,,,,,,,,,,,,,,,,3,0,3,0,16,0,16,0,,,,,,,,,,,,,,,,,,,,,,,,,,,,,,,,,,,,,,,,,,,,,,,,,,,,,,,,,,,,,,,,,,,,,,0.035167562,,,,,,,,,,,,,,,,,,,,,,,,,,,,right,1,10,30,40,1,886.8510968,886.8510968,886.8510968,None,None,2,0,0.2370687,,,,,,,,,,,,,,,,,,,,,,10,10,2,2024-10-23_08h41.46.333,uWM_experiment,2022.2.3,60.01763318
,,,,,,,,,,,,,,,,,,,,3,0,3,0,17,0,17,0,,,,,,,,,,,,,,,,,,,,,,,,,,,,,,,,,,,,,,,,,,,,,,,,,,,,,,,,,,,,,,,,,,,,,,0.025167562,,,,,,,,,,,,,,,,,,,,,,,,,,,,right,1,160,30,190,1,892.3513281,892.3513281,892.3513281,None,None,2,0,0.1769024,,,,,,,,,,,,,,,,,,,,,,10,10,2,2024-10-23_08h41.46.333,uWM_experiment,2022.2.3,60.01763318
,,,,,,,,,,,,,,,,,,,,3,0,3,0,18,0,18,0,,,,,,,,,,,,,,,,,,,,,,,,,,,,,,,,,,,,,,,,,,,,,,,,,,,,,,,,,,,,,,,,,,,,,,0.015167562,,,,,,,,,,,,,,,,,,,,,,,,,,,,left,0,160,30,190,1,897.7349052,897.7349052,897.7349052,None,None,1,1,0.1132233,,,,,,,,,,,,,,,,,,,,,,10,10,2,2024-10-23_08h41.46.333,uWM_experiment,2022.2.3,60.01763318
,,,,,,,,,,,,,,,,,,,,3,0,3,0,19,0,19,0,,,,,,,,,,,,,,,,,,,,,,,,,,,,,,,,,,,,,,,,,,,,,,,,,,,,,,,,,,,,,,,,,,,,,,0.025167562,,,,,,,,,,,,,,,,,,,,,,,,,,,,right,1,10,30,40,1,903.3517698,903.3517698,903.3517698,None,None,2,0,0.2084886,,,,,,,,,,,,,,,,,,,,,,10,10,2,2024-10-23_08h41.46.333,uWM_experiment,2022.2.3,60.01763318
,,,,,,,,,,,,,,,,,,,,3,0,3,0,20,0,20,0,,,,,,,,,,,,,,,,,,,,,,,,,,,,,,,,,,,,,,,,,,,,,,,,,,,,,,,,,,,,,,,,,,,,,,0.015167562,,,,,,,,,,,,,,,,,,,,,,,,,,,,right,1,100,30,130,1,909.2187069,909.2187069,909.2187069,None,None,1,1,0.1974292,,,,,,,,,,,,,,,,,,,,,,10,10,2,2024-10-23_08h41.46.333,uWM_experiment,2022.2.3,60.01763318
,,,,,,,,,,,,,,,,,,,,3,0,3,0,21,0,21,0,,,,,,,,,,,,,,,,,,,,,,,,,,,,,,,,,,,,,,,,,,,,,,,,,,,,,,,,,,,,,,,,,,,,,,0,,,,,,,,,,,,,,,,,,,,,,,,,,,,left,0,100,30,130,0,914.5522488,914.5522488,914.5522488,None,None,1,1,0.2798292,,,,,,,,,,,,,,,,,,,,,,10,10,2,2024-10-23_08h41.46.333,uWM_experiment,2022.2.3,60.01763318
,,,,,,,,,,,,,,,,,,,,3,0,3,0,22,0,22,0,,,,,,,,,,,,,,,,,,,,,,,,,,,,,,,,,,,,,,,,,,,,,,,,,,,,,,,,,,,,,,,,,,,,,,0,,,,,,,,,,,,,,,,,,,,,,,,,,,,left,0,160,30,190,0,921.0025105,921.0025105,921.0025105,None,None,1,1,0.2215316,,,,,,,,,,,,,,,,,,,,,,10,10,2,2024-10-23_08h41.46.333,uWM_experiment,2022.2.3,60.01763318
,,,,,,,,,,,,,,,,,,,,3,0,3,0,23,0,23,0,,,,,,,,,,,,,,,,,,,,,,,,,,,,,,,,,,,,,,,,,,,,,,,,,,,,,,,,,,,,,,,,,,,,,,0,,,,,,,,,,,,,,,,,,,,,,,,,,,,left,1,130,-30,100,0,926.8028145,926.8028145,926.8028145,None,None,1,1,0.2372078,,,,,,,,,,,,,,,,,,,,,,10,10,2,2024-10-23_08h41.46.333,uWM_experiment,2022.2.3,60.01763318
,,,,,,,,,,,,,,,,,,,,3,0,3,0,,,,,0,0,0,0,,,,,,,,,,,,,,,,,,,,,,,,,,,,,,,,,,,,,,,,,,,,,,,,,,,,,,,,,,,,,,,,,,,,,,,,,,,,,,,,,,,,,,,,,,,,,,,,,,,,,,,,,,,,927.0694099,927.0694099,space,1.1227627,None,None,,,,,,,,,,,,,,,,10,10,2,2024-10-23_08h41.46.333,uWM_experiment,2022.2.3,60.01763318
,,,,,,,,,,,,,,,,,,,,3,0,3,0,,,,,1,0,1,0,,,,,,,,,,,,,,,,,,,,,,,,,,,,,,,,,,,,,,,,,,,,,,,,,,,,,,,,,,,,,,,,,,,,,,,,,,,,,,,,,,,,,,,,,,,,,,,,,,,,,,,,,,,,,,,,,,,,,,,,,,,,,,,,,10,10,2,2024-10-23_08h41.46.333,uWM_experiment,2022.2.3,60.01763318
,,,,,,,,,,,,,,,,,,,,3,0,3,0,,,,,2,0,2,0,,,,,,,,,,,,,,,,,,,,,,,,,,,,,,,,,,,,,,,,,,,,,,,,,,,,,,,,,,,,,,,,,,,,,,,,,,,,,,,,,,,,,,,,,,,,,,,,,,,,,,,,,,,,,,,,,,,,,,,,,,,,,,,,,10,10,2,2024-10-23_08h41.46.333,uWM_experiment,2022.2.3,60.01763318
,,,,,,,,,,,,,,,,,,,,4,0,4,0,0,0,0,0,,,,,,,,,,,,,,,,,,,,,,,,,,,,,,,,,,,,,,,,,,,,,,,,,,,,,,,,,,,,,,,,,,,,,,0.025167562,,,,,,,,,,,,,,,,,,,,928.2194682,928.9194906,929.2195081,929.9195873,930.2195617,930.9195546,930.9195546,931.2362696,right,1,130,30,160,1,935.353097,935.353097,935.353097,None,None,2,0,0.2230229,,,,,,,None,,,,,,,,,,,,,,,10,10,2,2024-10-23_08h41.46.333,uWM_experiment,2022.2.3,60.01763318
,,,,,,,,,,,,,,,,,,,,4,0,4,0,1,0,1,0,,,,,,,,,,,,,,,,,,,,,,,,,,,,,,,,,,,,,,,,,,,,,,,,,,,,,,,,,,,,,,,,,,,,,,0,,,,,,,,,,,,,,,,,,,,,,,,,,,,left,1,100,-30,70,0,940.9533346,940.9533346,940.9533346,None,None,1,1,0.174676,,,,,,,,,,,,,,,,,,,,,,10,10,2,2024-10-23_08h41.46.333,uWM_experiment,2022.2.3,60.01763318
,,,,,,,,,,,,,,,,,,,,4,0,4,0,2,0,2,0,,,,,,,,,,,,,,,,,,,,,,,,,,,,,,,,,,,,,,,,,,,,,,,,,,,,,,,,,,,,,,,,,,,,,,0,,,,,,,,,,,,,,,,,,,,,,,,,,,,left,0,10,30,40,0,946.2702105,946.2702105,946.2702105,None,None,1,1,0.2339008,,,,,,,,,,,,,,,,,,,,,,10,10,2,2024-10-23_08h41.46.333,uWM_experiment,2022.2.3,60.01763318
,,,,,,,,,,,,,,,,,,,,4,0,4,0,3,0,3,0,,,,,,,,,,,,,,,,,,,,,,,,,,,,,,,,,,,,,,,,,,,,,,,,,,,,,,,,,,,,,,,,,,,,,,0,,,,,,,,,,,,,,,,,,,,,,,,,,,,left,0,40,30,70,0,951.7037699,951.7037699,951.7037699,None,None,1,1,0.1922516,,,,,,,,,,,,,,,,,,,,,,10,10,2,2024-10-23_08h41.46.333,uWM_experiment,2022.2.3,60.01763318
,,,,,,,,,,,,,,,,,,,,4,0,4,0,4,0,4,0,,,,,,,,,,,,,,,,,,,,,,,,,,,,,,,,,,,,,,,,,,,,,,,,,,,,,,,,,,,,,,,,,,,,,,0.015167562,,,,,,,,,,,,,,,,,,,,,,,,,,,,left,1,100,-30,70,1,957.0539968,957.0539968,957.0539968,None,None,1,1,0.1779946,,,,,,,,,,,,,,,,,,,,,,10,10,2,2024-10-23_08h41.46.333,uWM_experiment,2022.2.3,60.01763318
,,,,,,,,,,,,,,,,,,,,4,0,4,0,5,0,5,0,,,,,,,,,,,,,,,,,,,,,,,,,,,,,,,,,,,,,,,,,,,,,,,,,,,,,,,,,,,,,,,,,,,,,,0.025167562,,,,,,,,,,,,,,,,,,,,,,,,,,,,left,0,130,30,160,1,962.3875618,962.3875618,962.3875618,None,None,1,1,0.1323047,,,,,,,,,,,,,,,,,,,,,,10,10,2,2024-10-23_08h41.46.333,uWM_experiment,2022.2.3,60.01763318
,,,,,,,,,,,,,,,,,,,,4,0,4,0,6,0,6,0,,,,,,,,,,,,,,,,,,,,,,,,,,,,,,,,,,,,,,,,,,,,,,,,,,,,,,,,,,,,,,,,,,,,,,0.1,,,,,,,,,,,,,,,,,,,,,,,,,,,,left,1,10,-30,-20,2,968.3044394,968.3044394,968.3044394,None,None,4,0,1.159535,,,,,,,,,,,,,,,,,,,,,,10,10,2,2024-10-23_08h41.46.333,uWM_experiment,2022.2.3,60.01763318
,,,,,,,,,,,,,,,,,,,,4,0,4,0,7,0,7,0,,,,,,,,,,,,,,,,,,,,,,,,,,,,,,,,,,,,,,,,,,,,,,,,,,,,,,,,,,,,,,,,,,,,,,0.035167562,,,,,,,,,,,,,,,,,,,,,,,,,,,,left,1,70,-30,40,1,974.638042,974.638042,974.638042,None,None,1,1,0.1858476,,,,,,,,,,,,,,,,,,,,,,10,10,2,2024-10-23_08h41.46.333,uWM_experiment,2022.2.3,60.01763318
,,,,,,,,,,,,,,,,,,,,4,0,4,0,8,0,8,0,,,,,,,,,,,,,,,,,,,,,,,,,,,,,,,,,,,,,,,,,,,,,,,,,,,,,,,,,,,,,,,,,,,,,,0.045167562,,,,,,,,,,,,,,,,,,,,,,,,,,,,left,1,100,-30,70,1,980.1382571,980.1382571,980.1382571,None,None,1,1,0.109703,,,,,,,,,,,,,,,,,,,,,,10,10,2,2024-10-23_08h41.46.333,uWM_experiment,2022.2.3,60.01763318
,,,,,,,,,,,,,,,,,,,,4,0,4,0,9,0,9,0,,,,,,,,,,,,,,,,,,,,,,,,,,,,,,,,,,,,,,,,,,,,,,,,,,,,,,,,,,,,,,,,,,,,,,0.055167562,,,,,,,,,,,,,,,,,,,,,,,,,,,,right,0,40,-30,10,1,985.5884858,985.5884858,985.5884858,None,None,2,0,0.2353449,,,,,,,,,,,,,,,,,,,,,,10,10,2,2024-10-23_08h41.46.333,uWM_experiment,2022.2.3,60.01763318
,,,,,,,,,,,,,,,,,,,,4,0,4,0,10,0,10,0,,,,,,,,,,,,,,,,,,,,,,,,,,,,,,,,,,,,,,,,,,,,,,,,,,,,,,,,,,,,,,,,,,,,,,0.045167562,,,,,,,,,,,,,,,,,,,,,,,,,,,,left,1,70,-30,40,1,990.9720347,990.9720347,990.9720347,None,None,1,1,0.2758013,,,,,,,,,,,,,,,,,,,,,,10,10,2,2024-10-23_08h41.46.333,uWM_experiment,2022.2.3,60.01763318
,,,,,,,,,,,,,,,,,,,,4,0,4,0,11,0,11,0,,,,,,,,,,,,,,,,,,,,,,,,,,,,,,,,,,,,,,,,,,,,,,,,,,,,,,,,,,,,,,,,,,,,,,0,,,,,,,,,,,,,,,,,,,,,,,,,,,,left,1,40,-30,10,0,996.6556279,996.6556279,996.6556279,None,None,1,1,0.2082777,,,,,,,,,,,,,,,,,,,,,,10,10,2,2024-10-23_08h41.46.333,uWM_experiment,2022.2.3,60.01763318
,,,,,,,,,,,,,,,,,,,,4,0,4,0,12,0,12,0,,,,,,,,,,,,,,,,,,,,,,,,,,,,,,,,,,,,,,,,,,,,,,,,,,,,,,,,,,,,,,,,,,,,,,0.055167562,,,,,,,,,,,,,,,,,,,,,,,,,,,,left,0,100,30,130,1,1002.089162,1002.089162,1002.089162,None,None,1,1,0.126688,,,,,,,,,,,,,,,,,,,,,,10,10,2,2024-10-23_08h41.46.333,uWM_experiment,2022.2.3,60.01763318
,,,,,,,,,,,,,,,,,,,,4,0,4,0,13,0,13,0,,,,,,,,,,,,,,,,,,,,,,,,,,,,,,,,,,,,,,,,,,,,,,,,,,,,,,,,,,,,,,,,,,,,,,0.065167562,,,,,,,,,,,,,,,,,,,,,,,,,,,,right,1,130,30,160,1,1007.672791,1007.672791,1007.672791,None,None,3,0,0.3430607,,,,,,,,,,,,,,,,,,,,,,10,10,2,2024-10-23_08h41.46.333,uWM_experiment,2022.2.3,60.01763318
,,,,,,,,,,,,,,,,,,,,4,0,4,0,14,0,14,0,,,,,,,,,,,,,,,,,,,,,,,,,,,,,,,,,,,,,,,,,,,,,,,,,,,,,,,,,,,,,,,,,,,,,,0.055167562,,,,,,,,,,,,,,,,,,,,,,,,,,,,left,1,70,-30,40,1,1013.122936,1013.122936,1013.122936,None,None,1,1,0.1969134,,,,,,,,,,,,,,,,,,,,,,10,10,2,2024-10-23_08h41.46.333,uWM_experiment,2022.2.3,60.01763318
,,,,,,,,,,,,,,,,,,,,4,0,4,0,15,0,15,0,,,,,,,,,,,,,,,,,,,,,,,,,,,,,,,,,,,,,,,,,,,,,,,,,,,,,,,,,,,,,,,,,,,,,,0.065167562,,,,,,,,,,,,,,,,,,,,,,,,,,,,left,1,160,-30,130,1,1018.656522,1018.656522,1018.656522,None,None,2,0,0.4711897,,,,,,,,,,,,,,,,,,,,,,10,10,2,2024-10-23_08h41.46.333,uWM_experiment,2022.2.3,60.01763318
,,,,,,,,,,,,,,,,,,,,4,0,4,0,16,0,16,0,,,,,,,,,,,,,,,,,,,,,,,,,,,,,,,,,,,,,,,,,,,,,,,,,,,,,,,,,,,,,,,,,,,,,,0.055167562,,,,,,,,,,,,,,,,,,,,,,,,,,,,left,1,10,-30,-20,1,1024.423387,1024.423387,1024.423387,None,None,3,0,0.3683637,,,,,,,,,,,,,,,,,,,,,,10,10,2,2024-10-23_08h41.46.333,uWM_experiment,2022.2.3,60.01763318
,,,,,,,,,,,,,,,,,,,,4,0,4,0,17,0,17,0,,,,,,,,,,,,,,,,,,,,,,,,,,,,,,,,,,,,,,,,,,,,,,,,,,,,,,,,,,,,,,,,,,,,,,0.045167562,,,,,,,,,,,,,,,,,,,,,,,,,,,,right,1,160,30,190,1,1030.140295,1030.140295,1030.140295,None,None,3,0,0.4114853,,,,,,,,,,,,,,,,,,,,,,10,10,2,2024-10-23_08h41.46.333,uWM_experiment,2022.2.3,60.01763318
,,,,,,,,,,,,,,,,,,,,4,0,4,0,18,0,18,0,,,,,,,,,,,,,,,,,,,,,,,,,,,,,,,,,,,,,,,,,,,,,,,,,,,,,,,,,,,,,,,,,,,,,,0.035167562,,,,,,,,,,,,,,,,,,,,,,,,,,,,left,1,10,-30,-20,1,1036.15724,1036.15724,1036.15724,None,None,3,0,0.2265198,,,,,,,,,,,,,,,,,,,,,,10,10,2,2024-10-23_08h41.46.333,uWM_experiment,2022.2.3,60.01763318
,,,,,,,,,,,,,,,,,,,,4,0,4,0,19,0,19,0,,,,,,,,,,,,,,,,,,,,,,,,,,,,,,,,,,,,,,,,,,,,,,,,,,,,,,,,,,,,,,,,,,,,,,0.1,,,,,,,,,,,,,,,,,,,,,,,,,,,,left,1,10,-30,-20,2,1041.990772,1041.990772,1041.990772,None,None,4,0,0.2329579,,,,,,,,,,,,,,,,,,,,,,10,10,2,2024-10-23_08h41.46.333,uWM_experiment,2022.2.3,60.01763318
,,,,,,,,,,,,,,,,,,,,4,0,4,0,20,0,20,0,,,,,,,,,,,,,,,,,,,,,,,,,,,,,,,,,,,,,,,,,,,,,,,,,,,,,,,,,,,,,,,,,,,,,,0,,,,,,,,,,,,,,,,,,,,,,,,,,,,left,0,10,30,40,0,1047.507676,1047.507676,1047.507676,None,None,1,1,0.2920642,,,,,,,,,,,,,,,,,,,,,,10,10,2,2024-10-23_08h41.46.333,uWM_experiment,2022.2.3,60.01763318
,,,,,,,,,,,,,,,,,,,,4,0,4,0,21,0,21,0,,,,,,,,,,,,,,,,,,,,,,,,,,,,,,,,,,,,,,,,,,,,,,,,,,,,,,,,,,,,,,,,,,,,,,0.025167562,,,,,,,,,,,,,,,,,,,,,,,,,,,,left,1,40,-30,10,1,1054.174628,1054.174628,1054.174628,None,None,1,1,0.329066,,,,,,,,,,,,,,,,,,,,,,10,10,2,2024-10-23_08h41.46.333,uWM_experiment,2022.2.3,60.01763318
,,,,,,,,,,,,,,,,,,,,4,0,4,0,22,0,22,0,,,,,,,,,,,,,,,,,,,,,,,,,,,,,,,,,,,,,,,,,,,,,,,,,,,,,,,,,,,,,,,,,,,,,,0.035167562,,,,,,,,,,,,,,,,,,,,,,,,,,,,right,1,160,30,190,1,1059.924859,1059.924859,1059.924859,None,None,4,0,0.4988244,,,,,,,,,,,,,,,,,,,,,,10,10,2,2024-10-23_08h41.46.333,uWM_experiment,2022.2.3,60.01763318
,,,,,,,,,,,,,,,,,,,,4,0,4,0,23,0,23,0,,,,,,,,,,,,,,,,,,,,,,,,,,,,,,,,,,,,,,,,,,,,,,,,,,,,,,,,,,,,,,,,,,,,,,0.025167562,,,,,,,,,,,,,,,,,,,,,,,,,,,,left,0,100,30,130,1,1065.941763,1065.941763,1065.941763,None,None,1,1,0.385808,,,,,,,,,,,,,,,,,,,,,,10,10,2,2024-10-23_08h41.46.333,uWM_experiment,2022.2.3,60.01763318
,,,,,,,,,,,,,,,,,,,,4,0,4,0,,,,,0,0,0,0,,,,,,,,,,,,,,,,,,,,,,,,,,,,,,,,,,,,,,,,,,,,,,,,,,,,,,,,,,,,,,,,,,,,,,,,,,,,,,,,,,,,,,,,,,,,,,,,,,,,,,,,,,,,1066.358427,1066.358427,space,69.9369919,None,None,,,,,,,,,,,,,,,,10,10,2,2024-10-23_08h41.46.333,uWM_experiment,2022.2.3,60.01763318
,,,,,,,,,,,,,,,,,,,,4,0,4,0,,,,,1,0,1,0,,,,,,,,,,,,,,,,,,,,,,,,,,,,,,,,,,,,,,,,,,,,,,,,,,,,,,,,,,,,,,,,,,,,,,,,,,,,,,,,,,,,,,,,,,,,,,,,,,,,,,,,,,,,,,,,,,,,,,,,,,,,,,,,,10,10,2,2024-10-23_08h41.46.333,uWM_experiment,2022.2.3,60.01763318
,,,,,,,,,,,,,,,,,,,,4,0,4,0,,,,,2,0,2,0,,,,,,,,,,,,,,,,,,,,,,,,,,,,,,,,,,,,,,,,,,,,,,,,,,,,,,,,,,,,,,,,,,,,,,,,,,,,,,,,,,,,,,,,,,,,,,,,,,,,,,,,,,,,,,,,,,,,,,,,,,,,,,,,,10,10,2,2024-10-23_08h41.46.333,uWM_experiment,2022.2.3,60.01763318
,,,,,,,,,,,,,,,,,,,,5,0,5,0,0,0,0,0,,,,,,,,,,,,,,,,,,,,,,,,,,,,,,,,,,,,,,,,,,,,,,,,,,,,,,,,,,,,,,,,,,,,,,0.035167562,,,,,,,,,,,,,,,,,,,,1136.32797,1137.028052,1137.328026,1138.028105,1138.328097,1139.028075,1139.028075,1139.344784,left,0,130,30,160,1,1143.661618,1143.661618,1143.661618,None,None,1,1,0.1456715,,,,,,,None,,,,,,,,,,,,,,,10,10,2,2024-10-23_08h41.46.333,uWM_experiment,2022.2.3,60.01763318
,,,,,,,,,,,,,,,,,,,,5,0,5,0,1,0,1,0,,,,,,,,,,,,,,,,,,,,,,,,,,,,,,,,,,,,,,,,,,,,,,,,,,,,,,,,,,,,,,,,,,,,,,0.045167562,,,,,,,,,,,,,,,,,,,,,,,,,,,,right,1,70,30,100,1,1149.295177,1149.295177,1149.295177,None,None,2,0,0.2642102,,,,,,,,,,,,,,,,,,,,,,10,10,2,2024-10-23_08h41.46.333,uWM_experiment,2022.2.3,60.01763318
,,,,,,,,,,,,,,,,,,,,5,0,5,0,2,0,2,0,,,,,,,,,,,,,,,,,,,,,,,,,,,,,,,,,,,,,,,,,,,,,,,,,,,,,,,,,,,,,,,,,,,,,,0.035167562,,,,,,,,,,,,,,,,,,,,,,,,,,,,left,1,10,-30,-20,1,1155.128758,1155.128758,1155.128758,None,None,3,0,0.4465707,,,,,,,,,,,,,,,,,,,,,,10,10,2,2024-10-23_08h41.46.333,uWM_experiment,2022.2.3,60.01763318
,,,,,,,,,,,,,,,,,,,,5,0,5,0,3,0,3,0,,,,,,,,,,,,,,,,,,,,,,,,,,,,,,,,,,,,,,,,,,,,,,,,,,,,,,,,,,,,,,,,,,,,,,0.025167562,,,,,,,,,,,,,,,,,,,,,,,,,,,,left,1,40,-30,10,1,1160.995666,1160.995666,1160.995666,None,None,1,1,0.2676014,,,,,,,,,,,,,,,,,,,,,,10,10,2,2024-10-23_08h41.46.333,uWM_experiment,2022.2.3,60.01763318
,,,,,,,,,,,,,,,,,,,,5,0,5,0,4,0,4,0,,,,,,,,,,,,,,,,,,,,,,,,,,,,,,,,,,,,,,,,,,,,,,,,,,,,,,,,,,,,,,,,,,,,,,0.1,,,,,,,,,,,,,,,,,,,,,,,,,,,,left,1,160,-30,130,2,1167.162647,1167.162647,1167.162647,None,None,4,0,0.2045547,,,,,,,,,,,,,,,,,,,,,,10,10,2,2024-10-23_08h41.46.333,uWM_experiment,2022.2.3,60.01763318
,,,,,,,,,,,,,,,,,,,,5,0,5,0,5,0,5,0,,,,,,,,,,,,,,,,,,,,,,,,,,,,,,,,,,,,,,,,,,,,,,,,,,,,,,,,,,,,,,,,,,,,,,0.035167562,,,,,,,,,,,,,,,,,,,,,,,,,,,,left,1,160,-30,130,1,1172.729496,1172.729496,1172.729496,None,None,1,1,0.133697,,,,,,,,,,,,,,,,,,,,,,10,10,2,2024-10-23_08h41.46.333,uWM_experiment,2022.2.3,60.01763318
,,,,,,,,,,,,,,,,,,,,5,0,5,0,6,0,6,0,,,,,,,,,,,,,,,,,,,,,,,,,,,,,,,,,,,,,,,,,,,,,,,,,,,,,,,,,,,,,,,,,,,,,,0.045167562,,,,,,,,,,,,,,,,,,,,,,,,,,,,left,0,40,30,70,1,1178.113005,1178.113005,1178.113005,None,None,1,1,0.2381894,,,,,,,,,,,,,,,,,,,,,,10,10,2,2024-10-23_08h41.46.333,uWM_experiment,2022.2.3,60.01763318
,,,,,,,,,,,,,,,,,,,,5,0,5,0,7,0,7,0,,,,,,,,,,,,,,,,,,,,,,,,,,,,,,,,,,,,,,,,,,,,,,,,,,,,,,,,,,,,,,,,,,,,,,0,,,,,,,,,,,,,,,,,,,,,,,,,,,,left,1,160,-30,130,0,1184.013311,1184.013311,1184.013311,None,None,1,1,0.2018374,,,,,,,,,,,,,,,,,,,,,,10,10,2,2024-10-23_08h41.46.333,uWM_experiment,2022.2.3,60.01763318
,,,,,,,,,,,,,,,,,,,,5,0,5,0,8,0,8,0,,,,,,,,,,,,,,,,,,,,,,,,,,,,,,,,,,,,,,,,,,,,,,,,,,,,,,,,,,,,,,,,,,,,,,0,,,,,,,,,,,,,,,,,,,,,,,,,,,,right,0,10,-30,-20,0,1189.880168,1189.880168,1189.880168,None,None,1,1,0.1430224,,,,,,,,,,,,,,,,,,,,,,10,10,2,2024-10-23_08h41.46.333,uWM_experiment,2022.2.3,60.01763318
,,,,,,,,,,,,,,,,,,,,5,0,5,0,9,0,9,0,,,,,,,,,,,,,,,,,,,,,,,,,,,,,,,,,,,,,,,,,,,,,,,,,,,,,,,,,,,,,,,,,,,,,,0.055167562,,,,,,,,,,,,,,,,,,,,,,,,,,,,left,0,70,30,100,1,1195.513755,1195.513755,1195.513755,None,None,2,0,0.1575384,,,,,,,,,,,,,,,,,,,,,,10,10,2,2024-10-23_08h41.46.333,uWM_experiment,2022.2.3,60.01763318
,,,,,,,,,,,,,,,,,,,,5,0,5,0,10,0,10,0,,,,,,,,,,,,,,,,,,,,,,,,,,,,,,,,,,,,,,,,,,,,,,,,,,,,,,,,,,,,,,,,,,,,,,0.045167562,,,,,,,,,,,,,,,,,,,,,,,,,,,,left,1,130,-30,100,1,1200.897304,1200.897304,1200.897304,None,None,1,1,0.2138605,,,,,,,,,,,,,,,,,,,,,,10,10,2,2024-10-23_08h41.46.333,uWM_experiment,2022.2.3,60.01763318
,,,,,,,,,,,,,,,,,,,,5,0,5,0,11,0,11,0,,,,,,,,,,,,,,,,,,,,,,,,,,,,,,,,,,,,,,,,,,,,,,,,,,,,,,,,,,,,,,,,,,,,,,0,,,,,,,,,,,,,,,,,,,,,,,,,,,,left,0,160,30,190,0,1208.380928,1208.380928,1208.380928,None,None,1,1,0.1303151,,,,,,,,,,,,,,,,,,,,,,10,10,2,2024-10-23_08h41.46.333,uWM_experiment,2022.2.3,60.01763318
,,,,,,,,,,,,,,,,,,,,5,0,5,0,12,0,12,0,,,,,,,,,,,,,,,,,,,,,,,,,,,,,,,,,,,,,,,,,,,,,,,,,,,,,,,,,,,,,,,,,,,,,,0.055167562,,,,,,,,,,,,,,,,,,,,,,,,,,,,left,1,70,-30,40,1,1213.91448,1213.91448,1213.91448,None,None,1,1,0.2205723,,,,,,,,,,,,,,,,,,,,,,10,10,2,2024-10-23_08h41.46.333,uWM_experiment,2022.2.3,60.01763318
,,,,,,,,,,,,,,,,,,,,5,0,5,0,13,0,13,0,,,,,,,,,,,,,,,,,,,,,,,,,,,,,,,,,,,,,,,,,,,,,,,,,,,,,,,,,,,,,,,,,,,,,,0.065167562,,,,,,,,,,,,,,,,,,,,,,,,,,,,left,1,160,-30,130,1,1219.264717,1219.264717,1219.264717,None,None,2,0,0.5104071,,,,,,,,,,,,,,,,,,,,,,10,10,2,2024-10-23_08h41.46.333,uWM_experiment,2022.2.3,60.01763318
,,,,,,,,,,,,,,,,,,,,5,0,5,0,14,0,14,0,,,,,,,,,,,,,,,,,,,,,,,,,,,,,,,,,,,,,,,,,,,,,,,,,,,,,,,,,,,,,,,,,,,,,,0.055167562,,,,,,,,,,,,,,,,,,,,,,,,,,,,left,0,100,30,130,1,1225.231622,1225.231622,1225.231622,None,None,4,0,0.3514103,,,,,,,,,,,,,,,,,,,,,,10,10,2,2024-10-23_08h41.46.333,uWM_experiment,2022.2.3,60.01763318
,,,,,,,,,,,,,,,,,,,,5,0,5,0,15,0,15,0,,,,,,,,,,,,,,,,,,,,,,,,,,,,,,,,,,,,,,,,,,,,,,,,,,,,,,,,,,,,,,,,,,,,,,0,,,,,,,,,,,,,,,,,,,,,,,,,,,,left,1,10,-30,-20,0,1230.981843,1230.981843,1230.981843,None,None,1,1,0.2011384,,,,,,,,,,,,,,,,,,,,,,10,10,2,2024-10-23_08h41.46.333,uWM_experiment,2022.2.3,60.01763318
,,,,,,,,,,,,,,,,,,,,5,0,5,0,16,0,16,0,,,,,,,,,,,,,,,,,,,,,,,,,,,,,,,,,,,,,,,,,,,,,,,,,,,,,,,,,,,,,,,,,,,,,,0.045167562,,,,,,,,,,,,,,,,,,,,,,,,,,,,right,1,100,30,130,1,1236.748775,1236.748775,1236.748775,None,None,1,1,0.2822541,,,,,,,,,,,,,,,,,,,,,,10,10,2,2024-10-23_08h41.46.333,uWM_experiment,2022.2.3,60.01763318
,,,,,,,,,,,,,,,,,,,,5,0,5,0,17,0,17,0,,,,,,,,,,,,,,,,,,,,,,,,,,,,,,,,,,,,,,,,,,,,,,,,,,,,,,,,,,,,,,,,,,,,,,0,,,,,,,,,,,,,,,,,,,,,,,,,,,,left,1,10,-30,-20,0,1242.282299,1242.282299,1242.282299,None,None,1,1,0.19672,,,,,,,,,,,,,,,,,,,,,,10,10,2,2024-10-23_08h41.46.333,uWM_experiment,2022.2.3,60.01763318
,,,,,,,,,,,,,,,,,,,,5,0,5,0,18,0,18,0,,,,,,,,,,,,,,,,,,,,,,,,,,,,,,,,,,,,,,,,,,,,,,,,,,,,,,,,,,,,,,,,,,,,,,0.055167562,,,,,,,,,,,,,,,,,,,,,,,,,,,,right,1,100,30,130,1,1247.899232,1247.899232,1247.899232,None,None,1,1,0.2516933,,,,,,,,,,,,,,,,,,,,,,10,10,2,2024-10-23_08h41.46.333,uWM_experiment,2022.2.3,60.01763318
,,,,,,,,,,,,,,,,,,,,5,0,5,0,19,0,19,0,,,,,,,,,,,,,,,,,,,,,,,,,,,,,,,,,,,,,,,,,,,,,,,,,,,,,,,,,,,,,,,,,,,,,,0.065167562,,,,,,,,,,,,,,,,,,,,,,,,,,,,left,1,70,-30,40,1,1253.816112,1253.816112,1253.816112,None,None,2,0,0.2949245,,,,,,,,,,,,,,,,,,,,,,10,10,2,2024-10-23_08h41.46.333,uWM_experiment,2022.2.3,60.01763318
,,,,,,,,,,,,,,,,,,,,5,0,5,0,20,0,20,0,,,,,,,,,,,,,,,,,,,,,,,,,,,,,,,,,,,,,,,,,,,,,,,,,,,,,,,,,,,,,,,,,,,,,,0.055167562,,,,,,,,,,,,,,,,,,,,,,,,,,,,left,0,130,30,160,1,1259.316348,1259.316348,1259.316348,None,None,1,1,0.6266439,,,,,,,,,,,,,,,,,,,,,,10,10,2,2024-10-23_08h41.46.333,uWM_experiment,2022.2.3,60.01763318
,,,,,,,,,,,,,,,,,,,,5,0,5,0,21,0,21,0,,,,,,,,,,,,,,,,,,,,,,,,,,,,,,,,,,,,,,,,,,,,,,,,,,,,,,,,,,,,,,,,,,,,,,0.065167562,,,,,,,,,,,,,,,,,,,,,,,,,,,,right,1,40,30,70,1,1265.583271,1265.583271,1265.583271,None,None,3,0,0.279691,,,,,,,,,,,,,,,,,,,,,,10,10,2,2024-10-23_08h41.46.333,uWM_experiment,2022.2.3,60.01763318
,,,,,,,,,,,,,,,,,,,,5,0,5,0,22,0,22,0,,,,,,,,,,,,,,,,,,,,,,,,,,,,,,,,,,,,,,,,,,,,,,,,,,,,,,,,,,,,,,,,,,,,,,0,,,,,,,,,,,,,,,,,,,,,,,,,,,,right,1,40,30,70,0,1271.816922,1271.816922,1271.816922,None,None,2,0,0.3019922,,,,,,,,,,,,,,,,,,,,,,10,10,2,2024-10-23_08h41.46.333,uWM_experiment,2022.2.3,60.01763318
,,,,,,,,,,,,,,,,,,,,5,0,5,0,23,0,23,0,,,,,,,,,,,,,,,,,,,,,,,,,,,,,,,,,,,,,,,,,,,,,,,,,,,,,,,,,,,,,,,,,,,,,,0.055167562,,,,,,,,,,,,,,,,,,,,,,,,,,,,left,0,70,30,100,1,1277.867113,1277.867113,1277.867113,None,None,1,1,0.2757241,,,,,,,,,,,,,,,,,,,,,,10,10,2,2024-10-23_08h41.46.333,uWM_experiment,2022.2.3,60.01763318
,,,,,,,,,,,,,,,,,,,,5,0,5,0,,,,,0,0,0,0,,,,,,,,,,,,,,,,,,,,,,,,,,,,,,,,,,,,,,,,,,,,,,,,,,,,,,,,,,,,,,,,,,,,,,,,,,,,,,,,,,,,,,,,,,,,,,,,,,,,,,,,,,,,1278.167101,1278.167101,space,1.0958777,space,None,,1279.283834,1279.283834,4.4351907,,,,,,,,,,,,10,10,2,2024-10-23_08h41.46.333,uWM_experiment,2022.2.3,60.01763318
,,,,,,,,,,,,,,,,,,,,5,0,5,0,,,,,1,0,1,0,,,,,,,,,,,,,,,,,,,,,,,,,,,,,,,,,,,,,,,,,,,,,,,,,,,,,,,,,,,,,,,,,,,,,,,,,,,,,,,,,,,,,,,,,,,,,,,,,,,,,,,,,,,,,,,,,,,,,,,,,,,,,,,,,10,10,2,2024-10-23_08h41.46.333,uWM_experiment,2022.2.3,60.01763318
,,,,,,,,,,,,,,,,,,,,5,0,5,0,,,,,2,0,2,0,,,,,,,,,,,,,,,,,,,,,,,,,,,,,,,,,,,,,,,,,,,,,,,,,,,,,,,,,,,,,,,,,,,,,,,,,,,,,,,,,,,,,,,,,,,,,,,,,,,,,,,,,,,,,,,,,,,,,,,,,,,,,,,,,10,10,2,2024-10-23_08h41.46.333,uWM_experiment,2022.2.3,60.01763318
,,,,,,,,,,,,,,,,,,,,6,0,6,0,0,0,0,0,,,,,,,,,,,,,,,,,,,,,,,,,,,,,,,,,,,,,,,,,,,,,,,,,,,,,,,,,,,,,,,,,,,,,,0,,,,,,,,,,,,,,,,,,,,1283.750662,1284.450693,1284.750722,1285.450762,1285.750758,1286.450799,1286.450799,1286.767469,left,0,130,30,160,0,1290.900955,1290.900955,1290.900955,None,None,1,1,0.3059586,,,,,,,None,,,,,,,,,,,,,,,10,10,2,2024-10-23_08h41.46.333,uWM_experiment,2022.2.3,60.01763318
,,,,,,,,,,,,,,,,,,,,6,0,6,0,1,0,1,0,,,,,,,,,,,,,,,,,,,,,,,,,,,,,,,,,,,,,,,,,,,,,,,,,,,,,,,,,,,,,,,,,,,,,,0.065167562,,,,,,,,,,,,,,,,,,,,,,,,,,,,right,0,40,-30,10,1,1296.384528,1296.384528,1296.384528,None,None,1,1,0.1583121,,,,,,,,,,,,,,,,,,,,,,10,10,2,2024-10-23_08h41.46.333,uWM_experiment,2022.2.3,60.01763318
,,,,,,,,,,,,,,,,,,,,6,0,6,0,2,0,2,0,,,,,,,,,,,,,,,,,,,,,,,,,,,,,,,,,,,,,,,,,,,,,,,,,,,,,,,,,,,,,,,,,,,,,,0,,,,,,,,,,,,,,,,,,,,,,,,,,,,left,0,160,30,190,0,1301.651551,1301.651551,1301.651551,None,None,1,1,0.4032847,,,,,,,,,,,,,,,,,,,,,,10,10,2,2024-10-23_08h41.46.333,uWM_experiment,2022.2.3,60.01763318
,,,,,,,,,,,,,,,,,,,,6,0,6,0,3,0,3,0,,,,,,,,,,,,,,,,,,,,,,,,,,,,,,,,,,,,,,,,,,,,,,,,,,,,,,,,,,,,,,,,,,,,,,0.1,,,,,,,,,,,,,,,,,,,,,,,,,,,,right,1,160,30,190,2,1307.751663,1307.751663,1307.751663,None,None,3,0,0.1831963,,,,,,,,,,,,,,,,,,,,,,10,10,2,2024-10-23_08h41.46.333,uWM_experiment,2022.2.3,60.01763318
,,,,,,,,,,,,,,,,,,,,6,0,6,0,4,0,4,0,,,,,,,,,,,,,,,,,,,,,,,,,,,,,,,,,,,,,,,,,,,,,,,,,,,,,,,,,,,,,,,,,,,,,,0.075167562,,,,,,,,,,,,,,,,,,,,,,,,,,,,left,1,100,-30,70,1,1314.101922,1314.101922,1314.101922,None,None,3,0,0.5128148,,,,,,,,,,,,,,,,,,,,,,10,10,2,2024-10-23_08h41.46.333,uWM_experiment,2022.2.3,60.01763318
,,,,,,,,,,,,,,,,,,,,6,0,6,0,5,0,5,0,,,,,,,,,,,,,,,,,,,,,,,,,,,,,,,,,,,,,,,,,,,,,,,,,,,,,,,,,,,,,,,,,,,,,,0.065167562,,,,,,,,,,,,,,,,,,,,,,,,,,,,right,1,70,30,100,1,1319.818842,1319.818842,1319.818842,None,None,2,0,0.1718467,,,,,,,,,,,,,,,,,,,,,,10,10,2,2024-10-23_08h41.46.333,uWM_experiment,2022.2.3,60.01763318
,,,,,,,,,,,,,,,,,,,,6,0,6,0,6,0,6,0,,,,,,,,,,,,,,,,,,,,,,,,,,,,,,,,,,,,,,,,,,,,,,,,,,,,,,,,,,,,,,,,,,,,,,0.055167562,,,,,,,,,,,,,,,,,,,,,,,,,,,,left,1,160,-30,130,1,1325.419038,1325.419038,1325.419038,None,None,2,0,0.2196291,,,,,,,,,,,,,,,,,,,,,,10,10,2,2024-10-23_08h41.46.333,uWM_experiment,2022.2.3,60.01763318
,,,,,,,,,,,,,,,,,,,,6,0,6,0,7,0,7,0,,,,,,,,,,,,,,,,,,,,,,,,,,,,,,,,,,,,,,,,,,,,,,,,,,,,,,,,,,,,,,,,,,,,,,0.045167562,,,,,,,,,,,,,,,,,,,,,,,,,,,,right,0,70,-30,40,1,1330.802608,1330.802608,1330.802608,None,None,2,0,0.15617,,,,,,,,,,,,,,,,,,,,,,10,10,2,2024-10-23_08h41.46.333,uWM_experiment,2022.2.3,60.01763318
,,,,,,,,,,,,,,,,,,,,6,0,6,0,8,0,8,0,,,,,,,,,,,,,,,,,,,,,,,,,,,,,,,,,,,,,,,,,,,,,,,,,,,,,,,,,,,,,,,,,,,,,,0.035167562,,,,,,,,,,,,,,,,,,,,,,,,,,,,left,0,130,30,160,1,1336.43616,1336.43616,1336.43616,None,None,3,0,0.2505075,,,,,,,,,,,,,,,,,,,,,,10,10,2,2024-10-23_08h41.46.333,uWM_experiment,2022.2.3,60.01763318
,,,,,,,,,,,,,,,,,,,,6,0,6,0,9,0,9,0,,,,,,,,,,,,,,,,,,,,,,,,,,,,,,,,,,,,,,,,,,,,,,,,,,,,,,,,,,,,,,,,,,,,,,0.025167562,,,,,,,,,,,,,,,,,,,,,,,,,,,,left,1,70,-30,40,1,1342.169754,1342.169754,1342.169754,None,None,1,1,0.1728332,,,,,,,,,,,,,,,,,,,,,,10,10,2,2024-10-23_08h41.46.333,uWM_experiment,2022.2.3,60.01763318
,,,,,,,,,,,,,,,,,,,,6,0,6,0,10,0,10,0,,,,,,,,,,,,,,,,,,,,,,,,,,,,,,,,,,,,,,,,,,,,,,,,,,,,,,,,,,,,,,,,,,,,,,0.035167562,,,,,,,,,,,,,,,,,,,,,,,,,,,,left,0,100,30,130,1,1348.119975,1348.119975,1348.119975,None,None,1,1,0.1828013,,,,,,,,,,,,,,,,,,,,,,10,10,2,2024-10-23_08h41.46.333,uWM_experiment,2022.2.3,60.01763318
,,,,,,,,,,,,,,,,,,,,6,0,6,0,11,0,11,0,,,,,,,,,,,,,,,,,,,,,,,,,,,,,,,,,,,,,,,,,,,,,,,,,,,,,,,,,,,,,,,,,,,,,,0.045167562,,,,,,,,,,,,,,,,,,,,,,,,,,,,right,1,10,30,40,1,1353.803577,1353.803577,1353.803577,None,None,4,0,0.2190136,,,,,,,,,,,,,,,,,,,,,,10,10,2,2024-10-23_08h41.46.333,uWM_experiment,2022.2.3,60.01763318
,,,,,,,,,,,,,,,,,,,,6,0,6,0,12,0,12,0,,,,,,,,,,,,,,,,,,,,,,,,,,,,,,,,,,,,,,,,,,,,,,,,,,,,,,,,,,,,,,,,,,,,,,0,,,,,,,,,,,,,,,,,,,,,,,,,,,,left,0,70,30,100,0,1359.220437,1359.220437,1359.220437,None,None,1,1,0.2262565,,,,,,,,,,,,,,,,,,,,,,10,10,2,2024-10-23_08h41.46.333,uWM_experiment,2022.2.3,60.01763318
,,,,,,,,,,,,,,,,,,,,6,0,6,0,13,0,13,0,,,,,,,,,,,,,,,,,,,,,,,,,,,,,,,,,,,,,,,,,,,,,,,,,,,,,,,,,,,,,,,,,,,,,,0.035167562,,,,,,,,,,,,,,,,,,,,,,,,,,,,right,0,100,-30,70,1,1364.67064,1364.67064,1364.67064,None,None,1,1,0.2320468,,,,,,,,,,,,,,,,,,,,,,10,10,2,2024-10-23_08h41.46.333,uWM_experiment,2022.2.3,60.01763318
,,,,,,,,,,,,,,,,,,,,6,0,6,0,14,0,14,0,,,,,,,,,,,,,,,,,,,,,,,,,,,,,,,,,,,,,,,,,,,,,,,,,,,,,,,,,,,,,,,,,,,,,,0,,,,,,,,,,,,,,,,,,,,,,,,,,,,left,1,40,-30,10,0,1370.037546,1370.037546,1370.037546,None,None,1,1,0.1689726,,,,,,,,,,,,,,,,,,,,,,10,10,2,2024-10-23_08h41.46.333,uWM_experiment,2022.2.3,60.01763318
,,,,,,,,,,,,,,,,,,,,6,0,6,0,15,0,15,0,,,,,,,,,,,,,,,,,,,,,,,,,,,,,,,,,,,,,,,,,,,,,,,,,,,,,,,,,,,,,,,,,,,,,,0.045167562,,,,,,,,,,,,,,,,,,,,,,,,,,,,left,1,40,-30,10,1,1375.637777,1375.637777,1375.637777,None,None,1,1,0.2488095,,,,,,,,,,,,,,,,,,,,,,10,10,2,2024-10-23_08h41.46.333,uWM_experiment,2022.2.3,60.01763318
,,,,,,,,,,,,,,,,,,,,6,0,6,0,16,0,16,0,,,,,,,,,,,,,,,,,,,,,,,,,,,,,,,,,,,,,,,,,,,,,,,,,,,,,,,,,,,,,,,,,,,,,,0,,,,,,,,,,,,,,,,,,,,,,,,,,,,left,0,130,30,160,0,1381.504643,1381.504643,1381.504643,None,None,1,1,0.125897,,,,,,,,,,,,,,,,,,,,,,10,10,2,2024-10-23_08h41.46.333,uWM_experiment,2022.2.3,60.01763318
,,,,,,,,,,,,,,,,,,,,6,0,6,0,17,0,17,0,,,,,,,,,,,,,,,,,,,,,,,,,,,,,,,,,,,,,,,,,,,,,,,,,,,,,,,,,,,,,,,,,,,,,,0.055167562,,,,,,,,,,,,,,,,,,,,,,,,,,,,right,1,100,30,130,1,1387.354918,1387.354918,1387.354918,None,None,1,1,0.131686,,,,,,,,,,,,,,,,,,,,,,10,10,2,2024-10-23_08h41.46.333,uWM_experiment,2022.2.3,60.01763318
,,,,,,,,,,,,,,,,,,,,6,0,6,0,18,0,18,0,,,,,,,,,,,,,,,,,,,,,,,,,,,,,,,,,,,,,,,,,,,,,,,,,,,,,,,,,,,,,,,,,,,,,,0,,,,,,,,,,,,,,,,,,,,,,,,,,,,left,1,130,-30,100,0,1392.738435,1392.738435,1392.738435,None,None,1,1,0.1641334,,,,,,,,,,,,,,,,,,,,,,10,10,2,2024-10-23_08h41.46.333,uWM_experiment,2022.2.3,60.01763318
,,,,,,,,,,,,,,,,,,,,6,0,6,0,19,0,19,0,,,,,,,,,,,,,,,,,,,,,,,,,,,,,,,,,,,,,,,,,,,,,,,,,,,,,,,,,,,,,,,,,,,,,,0.065167562,,,,,,,,,,,,,,,,,,,,,,,,,,,,right,1,40,30,70,1,1398.372022,1398.372022,1398.372022,None,None,4,0,0.450806,,,,,,,,,,,,,,,,,,,,,,10,10,2,2024-10-23_08h41.46.333,uWM_experiment,2022.2.3,60.01763318
,,,,,,,,,,,,,,,,,,,,6,0,6,0,20,0,20,0,,,,,,,,,,,,,,,,,,,,,,,,,,,,,,,,,,,,,,,,,,,,,,,,,,,,,,,,,,,,,,,,,,,,,,0.055167562,,,,,,,,,,,,,,,,,,,,,,,,,,,,right,1,160,30,190,1,1404.422275,1404.422275,1404.422275,None,None,3,0,0.352118,,,,,,,,,,,,,,,,,,,,,,10,10,2,2024-10-23_08h41.46.333,uWM_experiment,2022.2.3,60.01763318
,,,,,,,,,,,,,,,,,,,,6,0,6,0,21,0,21,0,,,,,,,,,,,,,,,,,,,,,,,,,,,,,,,,,,,,,,,,,,,,,,,,,,,,,,,,,,,,,,,,,,,,,,0,,,,,,,,,,,,,,,,,,,,,,,,,,,,left,1,10,-30,-20,0,1409.972495,1409.972495,1409.972495,None,None,1,1,0.2339568,,,,,,,,,,,,,,,,,,,,,,10,10,2,2024-10-23_08h41.46.333,uWM_experiment,2022.2.3,60.01763318
,,,,,,,,,,,,,,,,,,,,6,0,6,0,22,0,22,0,,,,,,,,,,,,,,,,,,,,,,,,,,,,,,,,,,,,,,,,,,,,,,,,,,,,,,,,,,,,,,,,,,,,,,0.045167562,,,,,,,,,,,,,,,,,,,,,,,,,,,,left,1,100,-30,70,1,1415.656134,1415.656134,1415.656134,None,None,1,1,0.1983378,,,,,,,,,,,,,,,,,,,,,,10,10,2,2024-10-23_08h41.46.333,uWM_experiment,2022.2.3,60.01763318
,,,,,,,,,,,,,,,,,,,,6,0,6,0,23,0,23,0,,,,,,,,,,,,,,,,,,,,,,,,,,,,,,,,,,,,,,,,,,,,,,,,,,,,,,,,,,,,,,,,,,,,,,0.055167562,,,,,,,,,,,,,,,,,,,,,,,,,,,,right,0,160,-30,130,1,1421.056312,1421.056312,1421.056312,None,None,2,0,0.1262698,,,,,,,,,,,,,,,,,,,,,,10,10,2,2024-10-23_08h41.46.333,uWM_experiment,2022.2.3,60.01763318
,,,,,,,,,,,,,,,,,,,,6,0,6,0,,,,,0,0,0,0,,,,,,,,,,,,,,,,,,,,,,,,,,,,,,,,,,,,,,,,,,,,,,,,,,,,,,,,,,,,,,,,,,,,,,,,,,,,,,,,,,,,,,,,,,,,,,,,,,,,,,,,,,,,1421.206275,1421.206275,space,0.6322173,None,space,,,,,1421.856323,1421.856323,0.3661481,,,,,,,,,10,10,2,2024-10-23_08h41.46.333,uWM_experiment,2022.2.3,60.01763318
,,,,,,,,,,,,,,,,,,,,6,0,6,0,,,,,1,0,1,0,,,,,,,,,,,,,,,,,,,,,,,,,,,,,,,,,,,,,,,,,,,,,,,,,,,,,,,,,,,,,,,,,,,,,,,,,,,,,,,,,,,,,,,,,,,,,,,,,,,,,,,,,,,,,,,,,,,,,,,,,,,,,,,,,10,10,2,2024-10-23_08h41.46.333,uWM_experiment,2022.2.3,60.01763318
,,,,,,,,,,,,,,,,,,,,6,0,6,0,,,,,2,0,2,0,,,,,,,,,,,,,,,,,,,,,,,,,,,,,,,,,,,,,,,,,,,,,,,,,,,,,,,,,,,,,,,,,,,,,,,,,,,,,,,,,,,,,,,,,,,,,,,,,,,,,,,,,,,,,,,,,,,,,,,,,,,,,,,,,10,10,2,2024-10-23_08h41.46.333,uWM_experiment,2022.2.3,60.01763318
,,,,,,,,,,,,,,,,,,,,7,0,7,0,0,0,0,0,,,,,,,,,,,,,,,,,,,,,,,,,,,,,,,,,,,,,,,,,,,,,,,,,,,,,,,,,,,,,,,,,,,,,,0,,,,,,,,,,,,,,,,,,,,1433.59012,1434.290168,1434.573559,1435.273518,1435.573564,1436.273586,1436.273586,1436.590263,left,0,40,30,70,0,1441.023778,1441.023778,1441.023778,None,None,1,1,0.2385906,,,,,,,space,,,,,,,1431.97341,1431.97341,1.5930258,,,,,,10,10,2,2024-10-23_08h41.46.333,uWM_experiment,2022.2.3,60.01763318
,,,,,,,,,,,,,,,,,,,,7,0,7,0,1,0,1,0,,,,,,,,,,,,,,,,,,,,,,,,,,,,,,,,,,,,,,,,,,,,,,,,,,,,,,,,,,,,,,,,,,,,,,0,,,,,,,,,,,,,,,,,,,,,,,,,,,,left,1,160,-30,130,0,1446.440679,1446.440679,1446.440679,None,None,1,1,0.6056005,,,,,,,,,,,,,,,,,,,,,,10,10,2,2024-10-23_08h41.46.333,uWM_experiment,2022.2.3,60.01763318
,,,,,,,,,,,,,,,,,,,,7,0,7,0,2,0,2,0,,,,,,,,,,,,,,,,,,,,,,,,,,,,,,,,,,,,,,,,,,,,,,,,,,,,,,,,,,,,,,,,,,,,,,0,,,,,,,,,,,,,,,,,,,,,,,,,,,,left,0,100,30,130,0,1452.190903,1452.190903,1452.190903,None,None,1,1,0.2393784,,,,,,,,,,,,,,,,,,,,,,10,10,2,2024-10-23_08h41.46.333,uWM_experiment,2022.2.3,60.01763318
,,,,,,,,,,,,,,,,,,,,7,0,7,0,3,0,3,0,,,,,,,,,,,,,,,,,,,,,,,,,,,,,,,,,,,,,,,,,,,,,,,,,,,,,,,,,,,,,,,,,,,,,,0.045167562,,,,,,,,,,,,,,,,,,,,,,,,,,,,right,1,10,30,40,1,1457.741158,1457.741158,1457.741158,None,None,2,0,0.2332454,,,,,,,,,,,,,,,,,,,,,,10,10,2,2024-10-23_08h41.46.333,uWM_experiment,2022.2.3,60.01763318
,,,,,,,,,,,,,,,,,,,,7,0,7,0,4,0,4,0,,,,,,,,,,,,,,,,,,,,,,,,,,,,,,,,,,,,,,,,,,,,,,,,,,,,,,,,,,,,,,,,,,,,,,0.035167562,,,,,,,,,,,,,,,,,,,,,,,,,,,,left,1,160,-30,130,1,1463.641365,1463.641365,1463.641365,None,None,3,0,0.2528645,,,,,,,,,,,,,,,,,,,,,,10,10,2,2024-10-23_08h41.46.333,uWM_experiment,2022.2.3,60.01763318
,,,,,,,,,,,,,,,,,,,,7,0,7,0,5,0,5,0,,,,,,,,,,,,,,,,,,,,,,,,,,,,,,,,,,,,,,,,,,,,,,,,,,,,,,,,,,,,,,,,,,,,,,0.025167562,,,,,,,,,,,,,,,,,,,,,,,,,,,,left,1,40,-30,10,1,1469.024906,1469.024906,1469.024906,None,None,1,1,0.2053415,,,,,,,,,,,,,,,,,,,,,,10,10,2,2024-10-23_08h41.46.333,uWM_experiment,2022.2.3,60.01763318
,,,,,,,,,,,,,,,,,,,,7,0,7,0,6,0,6,0,,,,,,,,,,,,,,,,,,,,,,,,,,,,,,,,,,,,,,,,,,,,,,,,,,,,,,,,,,,,,,,,,,,,,,0.035167562,,,,,,,,,,,,,,,,,,,,,,,,,,,,right,1,40,30,70,1,1474.741817,1474.741817,1474.741817,None,None,3,0,0.3123573,,,,,,,,,,,,,,,,,,,,,,10,10,2,2024-10-23_08h41.46.333,uWM_experiment,2022.2.3,60.01763318
,,,,,,,,,,,,,,,,,,,,7,0,7,0,7,0,7,0,,,,,,,,,,,,,,,,,,,,,,,,,,,,,,,,,,,,,,,,,,,,,,,,,,,,,,,,,,,,,,,,,,,,,,0.025167562,,,,,,,,,,,,,,,,,,,,,,,,,,,,left,0,100,30,130,1,1480.208734,1480.208734,1480.208734,None,None,1,1,0.1975657,,,,,,,,,,,,,,,,,,,,,,10,10,2,2024-10-23_08h41.46.333,uWM_experiment,2022.2.3,60.01763318
,,,,,,,,,,,,,,,,,,,,7,0,7,0,8,0,8,0,,,,,,,,,,,,,,,,,,,,,,,,,,,,,,,,,,,,,,,,,,,,,,,,,,,,,,,,,,,,,,,,,,,,,,0.1,,,,,,,,,,,,,,,,,,,,,,,,,,,,right,1,40,30,70,2,1486.275603,1486.275603,1486.275603,None,None,4,0,0.218575,,,,,,,,,,,,,,,,,,,,,,10,10,2,2024-10-23_08h41.46.333,uWM_experiment,2022.2.3,60.01763318
,,,,,,,,,,,,,,,,,,,,7,0,7,0,9,0,9,0,,,,,,,,,,,,,,,,,,,,,,,,,,,,,,,,,,,,,,,,,,,,,,,,,,,,,,,,,,,,,,,,,,,,,,0,,,,,,,,,,,,,,,,,,,,,,,,,,,,left,0,130,30,160,0,1491.742506,1491.742506,1491.742506,None,None,1,1,0.1757378,,,,,,,,,,,,,,,,,,,,,,10,10,2,2024-10-23_08h41.46.333,uWM_experiment,2022.2.3,60.01763318
,,,,,,,,,,,,,,,,,,,,7,0,7,0,10,0,10,0,,,,,,,,,,,,,,,,,,,,,,,,,,,,,,,,,,,,,,,,,,,,,,,,,,,,,,,,,,,,,,,,,,,,,,0.1,,,,,,,,,,,,,,,,,,,,,,,,,,,,right,1,10,30,40,2,1497.659443,1497.659443,1497.659443,None,None,4,0,0.2587047,,,,,,,,,,,,,,,,,,,,,,10,10,2,2024-10-23_08h41.46.333,uWM_experiment,2022.2.3,60.01763318
,,,,,,,,,,,,,,,,,,,,7,0,7,0,11,0,11,0,,,,,,,,,,,,,,,,,,,,,,,,,,,,,,,,,,,,,,,,,,,,,,,,,,,,,,,,,,,,,,,,,,,,,,0,,,,,,,,,,,,,,,,,,,,,,,,,,,,left,1,100,-30,70,0,1503.35968,1503.35968,1503.35968,None,None,1,1,0.1745275,,,,,,,,,,,,,,,,,,,,,,10,10,2,2024-10-23_08h41.46.333,uWM_experiment,2022.2.3,60.01763318
,,,,,,,,,,,,,,,,,,,,7,0,7,0,12,0,12,0,,,,,,,,,,,,,,,,,,,,,,,,,,,,,,,,,,,,,,,,,,,,,,,,,,,,,,,,,,,,,,,,,,,,,,0.035167562,,,,,,,,,,,,,,,,,,,,,,,,,,,,left,0,10,30,40,1,1508.759878,1508.759878,1508.759878,None,None,1,1,0.2062784,,,,,,,,,,,,,,,,,,,,,,10,10,2,2024-10-23_08h41.46.333,uWM_experiment,2022.2.3,60.01763318
,,,,,,,,,,,,,,,,,,,,7,0,7,0,13,0,13,0,,,,,,,,,,,,,,,,,,,,,,,,,,,,,,,,,,,,,,,,,,,,,,,,,,,,,,,,,,,,,,,,,,,,,,0.1,,,,,,,,,,,,,,,,,,,,,,,,,,,,left,1,100,-30,70,2,1515.226796,1515.226796,1515.226796,None,None,4,0,0.331246,,,,,,,,,,,,,,,,,,,,,,10,10,2,2024-10-23_08h41.46.333,uWM_experiment,2022.2.3,60.01763318
,,,,,,,,,,,,,,,,,,,,7,0,7,0,14,0,14,0,,,,,,,,,,,,,,,,,,,,,,,,,,,,,,,,,,,,,,,,,,,,,,,,,,,,,,,,,,,,,,,,,,,,,,0.045167562,,,,,,,,,,,,,,,,,,,,,,,,,,,,right,1,10,30,40,1,1521.077017,1521.077017,1521.077017,None,None,3,0,0.2171166,,,,,,,,,,,,,,,,,,,,,,10,10,2,2024-10-23_08h41.46.333,uWM_experiment,2022.2.3,60.01763318
,,,,,,,,,,,,,,,,,,,,7,0,7,0,15,0,15,0,,,,,,,,,,,,,,,,,,,,,,,,,,,,,,,,,,,,,,,,,,,,,,,,,,,,,,,,,,,,,,,,,,,,,,0.1,,,,,,,,,,,,,,,,,,,,,,,,,,,,left,1,40,-30,10,2,1527.077299,1527.077299,1527.077299,None,None,4,0,0.264805,,,,,,,,,,,,,,,,,,,,,,10,10,2,2024-10-23_08h41.46.333,uWM_experiment,2022.2.3,60.01763318
,,,,,,,,,,,,,,,,,,,,7,0,7,0,16,0,16,0,,,,,,,,,,,,,,,,,,,,,,,,,,,,,,,,,,,,,,,,,,,,,,,,,,,,,,,,,,,,,,,,,,,,,,0,,,,,,,,,,,,,,,,,,,,,,,,,,,,left,1,40,-30,10,0,1532.510867,1532.510867,1532.510867,None,None,2,0,0.1831555,,,,,,,,,,,,,,,,,,,,,,10,10,2,2024-10-23_08h41.46.333,uWM_experiment,2022.2.3,60.01763318
,,,,,,,,,,,,,,,,,,,,7,0,7,0,17,0,17,0,,,,,,,,,,,,,,,,,,,,,,,,,,,,,,,,,,,,,,,,,,,,,,,,,,,,,,,,,,,,,,,,,,,,,,0.035167562,,,,,,,,,,,,,,,,,,,,,,,,,,,,right,1,40,30,70,1,1538.161256,1538.161256,1538.161256,None,None,4,0,0.2927696,,,,,,,,,,,,,,,,,,,,,,10,10,2,2024-10-23_08h41.46.333,uWM_experiment,2022.2.3,60.01763318
,,,,,,,,,,,,,,,,,,,,7,0,7,0,18,0,18,0,,,,,,,,,,,,,,,,,,,,,,,,,,,,,,,,,,,,,,,,,,,,,,,,,,,,,,,,,,,,,,,,,,,,,,0.025167562,,,,,,,,,,,,,,,,,,,,,,,,,,,,left,1,40,-30,10,1,1543.59462,1543.59462,1543.59462,None,None,1,1,0.187281,,,,,,,,,,,,,,,,,,,,,,10,10,2,2024-10-23_08h41.46.333,uWM_experiment,2022.2.3,60.01763318
,,,,,,,,,,,,,,,,,,,,7,0,7,0,19,0,19,0,,,,,,,,,,,,,,,,,,,,,,,,,,,,,,,,,,,,,,,,,,,,,,,,,,,,,,,,,,,,,,,,,,,,,,0.1,,,,,,,,,,,,,,,,,,,,,,,,,,,,right,1,160,30,190,2,1549.428192,1549.428192,1549.428192,None,None,4,0,0.169642,,,,,,,,,,,,,,,,,,,,,,10,10,2,2024-10-23_08h41.46.333,uWM_experiment,2022.2.3,60.01763318
,,,,,,,,,,,,,,,,,,,,7,0,7,0,20,0,20,0,,,,,,,,,,,,,,,,,,,,,,,,,,,,,,,,,,,,,,,,,,,,,,,,,,,,,,,,,,,,,,,,,,,,,,0,,,,,,,,,,,,,,,,,,,,,,,,,,,,left,1,130,-30,100,0,1554.711762,1554.711762,1554.711762,None,None,1,1,0.2141957,,,,,,,,,,,,,,,,,,,,,,10,10,2,2024-10-23_08h41.46.333,uWM_experiment,2022.2.3,60.01763318
,,,,,,,,,,,,,,,,,,,,7,0,7,0,21,0,21,0,,,,,,,,,,,,,,,,,,,,,,,,,,,,,,,,,,,,,,,,,,,,,,,,,,,,,,,,,,,,,,,,,,,,,,0.035167562,,,,,,,,,,,,,,,,,,,,,,,,,,,,right,1,160,30,190,1,1560.328616,1560.328616,1560.328616,None,None,3,0,0.2613963,,,,,,,,,,,,,,,,,,,,,,10,10,2,2024-10-23_08h41.46.333,uWM_experiment,2022.2.3,60.01763318
,,,,,,,,,,,,,,,,,,,,7,0,7,0,22,0,22,0,,,,,,,,,,,,,,,,,,,,,,,,,,,,,,,,,,,,,,,,,,,,,,,,,,,,,,,,,,,,,,,,,,,,,,0,,,,,,,,,,,,,,,,,,,,,,,,,,,,left,1,160,-30,130,0,1565.762186,1565.762186,1565.762186,None,None,1,1,0.2917521,,,,,,,,,,,,,,,,,,,,,,10,10,2,2024-10-23_08h41.46.333,uWM_experiment,2022.2.3,60.01763318
,,,,,,,,,,,,,,,,,,,,7,0,7,0,23,0,23,0,,,,,,,,,,,,,,,,,,,,,,,,,,,,,,,,,,,,,,,,,,,,,,,,,,,,,,,,,,,,,,,,,,,,,,0.025167562,,,,,,,,,,,,,,,,,,,,,,,,,,,,left,1,160,-30,130,1,1571.19574,1571.19574,1571.19574,None,None,1,1,0.2181355,,,,,,,,,,,,,,,,,,,,,,10,10,2,2024-10-23_08h41.46.333,uWM_experiment,2022.2.3,60.01763318
,,,,,,,,,,,,,,,,,,,,7,0,7,0,,,,,0,0,0,0,,,,,,,,,,,,,,,,,,,,,,,,,,,,,,,,,,,,,,,,,,,,,,,,,,,,,,,,,,,,,,,,,,,,,,,,,,,,,,,,,,,,,,,,,,,,,,,,,,,,,,,,,,,,1571.445737,1571.445737,space,1.2004116,None,None,,,,,,,,,,,,,,,,10,10,2,2024-10-23_08h41.46.333,uWM_experiment,2022.2.3,60.01763318
,,,,,,,,,,,,,,,,,,,,7,0,7,0,,,,,1,0,1,0,,,,,,,,,,,,,,,,,,,,,,,,,,,,,,,,,,,,,,,,,,,,,,,,,,,,,,,,,,,,,,,,,,,,,,,,,,,,,,,,,,,,,,,,,,,,,,,,,,,,,,,,,,,,,,,,,,,,,,,,,,,,,,,,,10,10,2,2024-10-23_08h41.46.333,uWM_experiment,2022.2.3,60.01763318
,,,,,,,,,,,,,,,,,,,,7,0,7,0,,,,,2,0,2,0,,,,,,,,,,,,,,,,,,,,,,,,,,,,,,,,,,,,,,,,,,,,,,,,,,,,,,,,,,,,,,,,,,,,,,,,,,,,,,,,,,,,,,,,,,,,,,,,,,,,,,,,,,,,,,,,,,,,,,,,,,,,,,,,,10,10,2,2024-10-23_08h41.46.333,uWM_experiment,2022.2.3,60.01763318
,,,,,,,,,,,,,,,,,,,,8,0,8,0,0,0,0,0,,,,,,,,,,,,,,,,,,,,,,,,,,,,,,,,,,,,,,,,,,,,,,,,,,,,,,,,,,,,,,,,,,,,,,0,,,,,,,,,,,,,,,,,,,,1572.679155,1573.379192,1573.679191,1574.379223,1574.679217,1575.379252,1575.379252,1575.695935,left,0,10,30,40,0,1580.079462,1580.079462,1580.079462,None,None,1,1,0.1584304,,,,,,,None,,,,,,,,,,,,,,,10,10,2,2024-10-23_08h41.46.333,uWM_experiment,2022.2.3,60.01763318
,,,,,,,,,,,,,,,,,,,,8,0,8,0,1,0,1,0,,,,,,,,,,,,,,,,,,,,,,,,,,,,,,,,,,,,,,,,,,,,,,,,,,,,,,,,,,,,,,,,,,,,,,0.035167562,,,,,,,,,,,,,,,,,,,,,,,,,,,,left,0,70,30,100,1,1585.796345,1585.796345,1585.796345,None,None,1,1,0.1694272,,,,,,,,,,,,,,,,,,,,,,10,10,2,2024-10-23_08h41.46.333,uWM_experiment,2022.2.3,60.01763318
,,,,,,,,,,,,,,,,,,,,8,0,8,0,2,0,2,0,,,,,,,,,,,,,,,,,,,,,,,,,,,,,,,,,,,,,,,,,,,,,,,,,,,,,,,,,,,,,,,,,,,,,,0.045167562,,,,,,,,,,,,,,,,,,,,,,,,,,,,right,1,160,30,190,1,1591.446558,1591.446558,1591.446558,None,None,4,0,0.1593528,,,,,,,,,,,,,,,,,,,,,,10,10,2,2024-10-23_08h41.46.333,uWM_experiment,2022.2.3,60.01763318
,,,,,,,,,,,,,,,,,,,,8,0,8,0,3,0,3,0,,,,,,,,,,,,,,,,,,,,,,,,,,,,,,,,,,,,,,,,,,,,,,,,,,,,,,,,,,,,,,,,,,,,,,0,,,,,,,,,,,,,,,,,,,,,,,,,,,,left,1,40,-30,10,0,1596.796801,1596.796801,1596.796801,None,None,1,1,0.2170458,,,,,,,,,,,,,,,,,,,,,,10,10,2,2024-10-23_08h41.46.333,uWM_experiment,2022.2.3,60.01763318
,,,,,,,,,,,,,,,,,,,,8,0,8,0,4,0,4,0,,,,,,,,,,,,,,,,,,,,,,,,,,,,,,,,,,,,,,,,,,,,,,,,,,,,,,,,,,,,,,,,,,,,,,0.035167562,,,,,,,,,,,,,,,,,,,,,,,,,,,,right,1,160,30,190,1,1602.280372,1602.280372,1602.280372,None,None,4,0,0.2294897,,,,,,,,,,,,,,,,,,,,,,10,10,2,2024-10-23_08h41.46.333,uWM_experiment,2022.2.3,60.01763318
,,,,,,,,,,,,,,,,,,,,8,0,8,0,5,0,5,0,,,,,,,,,,,,,,,,,,,,,,,,,,,,,,,,,,,,,,,,,,,,,,,,,,,,,,,,,,,,,,,,,,,,,,0.025167562,,,,,,,,,,,,,,,,,,,,,,,,,,,,left,0,10,30,40,1,1607.647226,1607.647226,1607.647226,None,None,1,1,0.2465149,,,,,,,,,,,,,,,,,,,,,,10,10,2,2024-10-23_08h41.46.333,uWM_experiment,2022.2.3,60.01763318
,,,,,,,,,,,,,,,,,,,,8,0,8,0,6,0,6,0,,,,,,,,,,,,,,,,,,,,,,,,,,,,,,,,,,,,,,,,,,,,,,,,,,,,,,,,,,,,,,,,,,,,,,0.035167562,,,,,,,,,,,,,,,,,,,,,,,,,,,,right,0,160,-30,130,1,1613.030793,1613.030793,1613.030793,None,None,2,0,0.3588803,,,,,,,,,,,,,,,,,,,,,,10,10,2,2024-10-23_08h41.46.333,uWM_experiment,2022.2.3,60.01763318
,,,,,,,,,,,,,,,,,,,,8,0,8,0,7,0,7,0,,,,,,,,,,,,,,,,,,,,,,,,,,,,,,,,,,,,,,,,,,,,,,,,,,,,,,,,,,,,,,,,,,,,,,0,,,,,,,,,,,,,,,,,,,,,,,,,,,,left,1,10,-30,-20,0,1618.914478,1618.914478,1618.914478,None,None,1,1,0.2192406,,,,,,,,,,,,,,,,,,,,,,10,10,2,2024-10-23_08h41.46.333,uWM_experiment,2022.2.3,60.01763318
,,,,,,,,,,,,,,,,,,,,8,0,8,0,8,0,8,0,,,,,,,,,,,,,,,,,,,,,,,,,,,,,,,,,,,,,,,,,,,,,,,,,,,,,,,,,,,,,,,,,,,,,,0.025167562,,,,,,,,,,,,,,,,,,,,,,,,,,,,right,0,70,-30,40,1,1624.481253,1624.481253,1624.481253,None,None,1,1,0.1645183,,,,,,,,,,,,,,,,,,,,,,10,10,2,2024-10-23_08h41.46.333,uWM_experiment,2022.2.3,60.01763318
,,,,,,,,,,,,,,,,,,,,8,0,8,0,9,0,9,0,,,,,,,,,,,,,,,,,,,,,,,,,,,,,,,,,,,,,,,,,,,,,,,,,,,,,,,,,,,,,,,,,,,,,,0.035167562,,,,,,,,,,,,,,,,,,,,,,,,,,,,left,0,130,30,160,1,1629.814798,1629.814798,1629.814798,None,None,1,1,0.15885,,,,,,,,,,,,,,,,,,,,,,10,10,2,2024-10-23_08h41.46.333,uWM_experiment,2022.2.3,60.01763318
,,,,,,,,,,,,,,,,,,,,8,0,8,0,10,0,10,0,,,,,,,,,,,,,,,,,,,,,,,,,,,,,,,,,,,,,,,,,,,,,,,,,,,,,,,,,,,,,,,,,,,,,,0,,,,,,,,,,,,,,,,,,,,,,,,,,,,left,0,100,30,130,0,1635.165053,1635.165053,1635.165053,None,None,1,1,0.2166521,,,,,,,,,,,,,,,,,,,,,,10,10,2,2024-10-23_08h41.46.333,uWM_experiment,2022.2.3,60.01763318
,,,,,,,,,,,,,,,,,,,,8,0,8,0,11,0,11,0,,,,,,,,,,,,,,,,,,,,,,,,,,,,,,,,,,,,,,,,,,,,,,,,,,,,,,,,,,,,,,,,,,,,,,0.045167562,,,,,,,,,,,,,,,,,,,,,,,,,,,,left,0,130,30,160,1,1640.881934,1640.881934,1640.881934,None,None,1,1,0.2118471,,,,,,,,,,,,,,,,,,,,,,10,10,2,2024-10-23_08h41.46.333,uWM_experiment,2022.2.3,60.01763318
,,,,,,,,,,,,,,,,,,,,8,0,8,0,12,0,12,0,,,,,,,,,,,,,,,,,,,,,,,,,,,,,,,,,,,,,,,,,,,,,,,,,,,,,,,,,,,,,,,,,,,,,,0.055167562,,,,,,,,,,,,,,,,,,,,,,,,,,,,right,1,40,30,70,1,1646.532188,1646.532188,1646.532188,None,None,3,0,0.2894011,,,,,,,,,,,,,,,,,,,,,,10,10,2,2024-10-23_08h41.46.333,uWM_experiment,2022.2.3,60.01763318
,,,,,,,,,,,,,,,,,,,,8,0,8,0,13,0,13,0,,,,,,,,,,,,,,,,,,,,,,,,,,,,,,,,,,,,,,,,,,,,,,,,,,,,,,,,,,,,,,,,,,,,,,0.045167562,,,,,,,,,,,,,,,,,,,,,,,,,,,,right,0,10,-30,-20,1,1652.232405,1652.232405,1652.232405,None,None,2,0,0.1493463,,,,,,,,,,,,,,,,,,,,,,10,10,2,2024-10-23_08h41.46.333,uWM_experiment,2022.2.3,60.01763318
,,,,,,,,,,,,,,,,,,,,8,0,8,0,14,0,14,0,,,,,,,,,,,,,,,,,,,,,,,,,,,,,,,,,,,,,,,,,,,,,,,,,,,,,,,,,,,,,,,,,,,,,,0.035167562,,,,,,,,,,,,,,,,,,,,,,,,,,,,right,1,10,30,40,1,1657.76599,1657.76599,1657.76599,None,None,3,0,0.3195243,,,,,,,,,,,,,,,,,,,,,,10,10,2,2024-10-23_08h41.46.333,uWM_experiment,2022.2.3,60.01763318
,,,,,,,,,,,,,,,,,,,,8,0,8,0,15,0,15,0,,,,,,,,,,,,,,,,,,,,,,,,,,,,,,,,,,,,,,,,,,,,,,,,,,,,,,,,,,,,,,,,,,,,,,0.025167562,,,,,,,,,,,,,,,,,,,,,,,,,,,,left,0,130,30,160,1,1663.249512,1663.249512,1663.249512,None,None,1,1,0.2040455,,,,,,,,,,,,,,,,,,,,,,10,10,2,2024-10-23_08h41.46.333,uWM_experiment,2022.2.3,60.01763318
,,,,,,,,,,,,,,,,,,,,8,0,8,0,16,0,16,0,,,,,,,,,,,,,,,,,,,,,,,,,,,,,,,,,,,,,,,,,,,,,,,,,,,,,,,,,,,,,,,,,,,,,,0,,,,,,,,,,,,,,,,,,,,,,,,,,,,left,1,130,-30,100,0,1668.633071,1668.633071,1668.633071,None,None,1,1,0.212544,,,,,,,,,,,,,,,,,,,,,,10,10,2,2024-10-23_08h41.46.333,uWM_experiment,2022.2.3,60.01763318
,,,,,,,,,,,,,,,,,,,,8,0,8,0,17,0,17,0,,,,,,,,,,,,,,,,,,,,,,,,,,,,,,,,,,,,,,,,,,,,,,,,,,,,,,,,,,,,,,,,,,,,,,0.035167562,,,,,,,,,,,,,,,,,,,,,,,,,,,,right,1,100,30,130,1,1674.483306,1674.483306,1674.483306,None,None,2,0,0.1622205,,,,,,,,,,,,,,,,,,,,,,10,10,2,2024-10-23_08h41.46.333,uWM_experiment,2022.2.3,60.01763318
,,,,,,,,,,,,,,,,,,,,8,0,8,0,18,0,18,0,,,,,,,,,,,,,,,,,,,,,,,,,,,,,,,,,,,,,,,,,,,,,,,,,,,,,,,,,,,,,,,,,,,,,,0.025167562,,,,,,,,,,,,,,,,,,,,,,,,,,,,right,1,40,30,70,1,1680.650208,1680.650208,1680.650208,None,None,1,1,0.1712421,,,,,,,,,,,,,,,,,,,,,,10,10,2,2024-10-23_08h41.46.333,uWM_experiment,2022.2.3,60.01763318
,,,,,,,,,,,,,,,,,,,,8,0,8,0,19,0,19,0,,,,,,,,,,,,,,,,,,,,,,,,,,,,,,,,,,,,,,,,,,,,,,,,,,,,,,,,,,,,,,,,,,,,,,0.035167562,,,,,,,,,,,,,,,,,,,,,,,,,,,,left,0,100,30,130,1,1686.31711,1686.31711,1686.31711,None,None,1,1,0.2403461,,,,,,,,,,,,,,,,,,,,,,10,10,2,2024-10-23_08h41.46.333,uWM_experiment,2022.2.3,60.01763318
,,,,,,,,,,,,,,,,,,,,8,0,8,0,20,0,20,0,,,,,,,,,,,,,,,,,,,,,,,,,,,,,,,,,,,,,,,,,,,,,,,,,,,,,,,,,,,,,,,,,,,,,,0,,,,,,,,,,,,,,,,,,,,,,,,,,,,left,0,130,30,160,0,1691.950677,1691.950677,1691.950677,None,None,1,1,0.1188659,,,,,,,,,,,,,,,,,,,,,,10,10,2,2024-10-23_08h41.46.333,uWM_experiment,2022.2.3,60.01763318
,,,,,,,,,,,,,,,,,,,,8,0,8,0,21,0,21,0,,,,,,,,,,,,,,,,,,,,,,,,,,,,,,,,,,,,,,,,,,,,,,,,,,,,,,,,,,,,,,,,,,,,,,0.045167562,,,,,,,,,,,,,,,,,,,,,,,,,,,,left,1,130,-30,100,1,1697.267561,1697.267561,1697.267561,None,None,1,1,0.7858525,,,,,,,,,,,,,,,,,,,,,,10,10,2,2024-10-23_08h41.46.333,uWM_experiment,2022.2.3,60.01763318
,,,,,,,,,,,,,,,,,,,,8,0,8,0,22,0,22,0,,,,,,,,,,,,,,,,,,,,,,,,,,,,,,,,,,,,,,,,,,,,,,,,,,,,,,,,,,,,,,,,,,,,,,0.055167562,,,,,,,,,,,,,,,,,,,,,,,,,,,,right,1,40,30,70,1,1703.584503,1703.584503,1703.584503,None,None,2,0,0.236864,,,,,,,,,,,,,,,,,,,,,,10,10,2,2024-10-23_08h41.46.333,uWM_experiment,2022.2.3,60.01763318
,,,,,,,,,,,,,,,,,,,,8,0,8,0,23,0,23,0,,,,,,,,,,,,,,,,,,,,,,,,,,,,,,,,,,,,,,,,,,,,,,,,,,,,,,,,,,,,,,,,,,,,,,0.045167562,,,,,,,,,,,,,,,,,,,,,,,,,,,,left,1,130,-30,100,1,1709.351405,1709.351405,1709.351405,None,None,2,0,0.3100528,,,,,,,,,,,,,,,,,,,,,,10,10,2,2024-10-23_08h41.46.333,uWM_experiment,2022.2.3,60.01763318
,,,,,,,,,,,,,,,,,,,,8,0,8,0,,,,,0,0,0,0,,,,,,,,,,,,,,,,,,,,,,,,,,,,,,,,,,,,,,,,,,,,,,,,,,,,,,,,,,,,,,,,,,,,,,,,,,,,,,,,,,,,,,,,,,,,,,,,,,,,,,,,,,,,1709.68473,1709.68473,space,1.7207582,space,None,,1711.434789,1711.434789,3.5066904,,,,,,,,,,,,10,10,2,2024-10-23_08h41.46.333,uWM_experiment,2022.2.3,60.01763318
,,,,,,,,,,,,,,,,,,,,8,0,8,0,,,,,1,0,1,0,,,,,,,,,,,,,,,,,,,,,,,,,,,,,,,,,,,,,,,,,,,,,,,,,,,,,,,,,,,,,,,,,,,,,,,,,,,,,,,,,,,,,,,,,,,,,,,,,,,,,,,,,,,,,,,,,,,,,,,,,,,,,,,,,10,10,2,2024-10-23_08h41.46.333,uWM_experiment,2022.2.3,60.01763318
,,,,,,,,,,,,,,,,,,,,8,0,8,0,,,,,2,0,2,0,,,,,,,,,,,,,,,,,,,,,,,,,,,,,,,,,,,,,,,,,,,,,,,,,,,,,,,,,,,,,,,,,,,,,,,,,,,,,,,,,,,,,,,,,,,,,,,,,,,,,,,,,,,,,,,,,,,,,,,,,,,,,,,,,10,10,2,2024-10-23_08h41.46.333,uWM_experiment,2022.2.3,60.01763318
,,,,,,,,,,,,,,,,,,,,9,0,9,0,0,0,0,0,,,,,,,,,,,,,,,,,,,,,,,,,,,,,,,,,,,,,,,,,,,,,,,,,,,,,,,,,,,,,,,,,,,,,,0,,,,,,,,,,,,,,,,,,,,1714.968374,1715.668294,1715.96834,1716.668361,1716.968376,1717.66839,1717.66839,1717.985093,left,1,100,-30,70,0,1722.051898,1722.051898,1722.051898,None,None,1,1,0.1296356,,,,,,,None,,,,,,,,,,,,,,,10,10,2,2024-10-23_08h41.46.333,uWM_experiment,2022.2.3,60.01763318
,,,,,,,,,,,,,,,,,,,,9,0,9,0,1,0,1,0,,,,,,,,,,,,,,,,,,,,,,,,,,,,,,,,,,,,,,,,,,,,,,,,,,,,,,,,,,,,,,,,,,,,,,0.035167562,,,,,,,,,,,,,,,,,,,,,,,,,,,,right,1,160,30,190,1,1727.685466,1727.685466,1727.685466,None,None,3,0,0.2958947,,,,,,,,,,,,,,,,,,,,,,10,10,2,2024-10-23_08h41.46.333,uWM_experiment,2022.2.3,60.01763318
,,,,,,,,,,,,,,,,,,,,9,0,9,0,2,0,2,0,,,,,,,,,,,,,,,,,,,,,,,,,,,,,,,,,,,,,,,,,,,,,,,,,,,,,,,,,,,,,,,,,,,,,,0.025167562,,,,,,,,,,,,,,,,,,,,,,,,,,,,left,1,40,-30,10,1,1733.902393,1733.902393,1733.902393,None,None,2,0,0.438911,,,,,,,,,,,,,,,,,,,,,,10,10,2,2024-10-23_08h41.46.333,uWM_experiment,2022.2.3,60.01763318
,,,,,,,,,,,,,,,,,,,,9,0,9,0,3,0,3,0,,,,,,,,,,,,,,,,,,,,,,,,,,,,,,,,,,,,,,,,,,,,,,,,,,,,,,,,,,,,,,,,,,,,,,0,,,,,,,,,,,,,,,,,,,,,,,,,,,,left,1,130,-30,100,0,1739.735952,1739.735952,1739.735952,None,None,1,1,0.2693339,,,,,,,,,,,,,,,,,,,,,,10,10,2,2024-10-23_08h41.46.333,uWM_experiment,2022.2.3,60.01763318
,,,,,,,,,,,,,,,,,,,,9,0,9,0,4,0,4,0,,,,,,,,,,,,,,,,,,,,,,,,,,,,,,,,,,,,,,,,,,,,,,,,,,,,,,,,,,,,,,,,,,,,,,0,,,,,,,,,,,,,,,,,,,,,,,,,,,,left,0,40,30,70,0,1745.169495,1745.169495,1745.169495,None,None,1,1,0.2357402,,,,,,,,,,,,,,,,,,,,,,10,10,2,2024-10-23_08h41.46.333,uWM_experiment,2022.2.3,60.01763318
,,,,,,,,,,,,,,,,,,,,9,0,9,0,5,0,5,0,,,,,,,,,,,,,,,,,,,,,,,,,,,,,,,,,,,,,,,,,,,,,,,,,,,,,,,,,,,,,,,,,,,,,,0.015167562,,,,,,,,,,,,,,,,,,,,,,,,,,,,left,1,130,-30,100,1,1750.60307,1750.60307,1750.60307,None,None,1,1,0.3381397,,,,,,,,,,,,,,,,,,,,,,10,10,2,2024-10-23_08h41.46.333,uWM_experiment,2022.2.3,60.01763318
,,,,,,,,,,,,,,,,,,,,9,0,9,0,6,0,6,0,,,,,,,,,,,,,,,,,,,,,,,,,,,,,,,,,,,,,,,,,,,,,,,,,,,,,,,,,,,,,,,,,,,,,,0.025167562,,,,,,,,,,,,,,,,,,,,,,,,,,,,left,0,70,30,100,1,1756.069964,1756.069964,1756.069964,None,None,1,1,0.2872671,,,,,,,,,,,,,,,,,,,,,,10,10,2,2024-10-23_08h41.46.333,uWM_experiment,2022.2.3,60.01763318
,,,,,,,,,,,,,,,,,,,,9,0,9,0,7,0,7,0,,,,,,,,,,,,,,,,,,,,,,,,,,,,,,,,,,,,,,,,,,,,,,,,,,,,,,,,,,,,,,,,,,,,,,0,,,,,,,,,,,,,,,,,,,,,,,,,,,,left,0,40,30,70,0,1761.520247,1761.520247,1761.520247,None,None,1,1,0.1649852,,,,,,,,,,,,,,,,,,,,,,10,10,2,2024-10-23_08h41.46.333,uWM_experiment,2022.2.3,60.01763318
,,,,,,,,,,,,,,,,,,,,9,0,9,0,8,0,8,0,,,,,,,,,,,,,,,,,,,,,,,,,,,,,,,,,,,,,,,,,,,,,,,,,,,,,,,,,,,,,,,,,,,,,,0.035167562,,,,,,,,,,,,,,,,,,,,,,,,,,,,left,0,70,30,100,1,1767.170464,1767.170464,1767.170464,None,None,1,1,0.2187565,,,,,,,,,,,,,,,,,,,,,,10,10,2,2024-10-23_08h41.46.333,uWM_experiment,2022.2.3,60.01763318
,,,,,,,,,,,,,,,,,,,,9,0,9,0,9,0,9,0,,,,,,,,,,,,,,,,,,,,,,,,,,,,,,,,,,,,,,,,,,,,,,,,,,,,,,,,,,,,,,,,,,,,,,0.045167562,,,,,,,,,,,,,,,,,,,,,,,,,,,,right,1,40,30,70,1,1772.920664,1772.920664,1772.920664,None,None,2,0,0.2766459,,,,,,,,,,,,,,,,,,,,,,10,10,2,2024-10-23_08h41.46.333,uWM_experiment,2022.2.3,60.01763318
,,,,,,,,,,,,,,,,,,,,9,0,9,0,10,0,10,0,,,,,,,,,,,,,,,,,,,,,,,,,,,,,,,,,,,,,,,,,,,,,,,,,,,,,,,,,,,,,,,,,,,,,,0.035167562,,,,,,,,,,,,,,,,,,,,,,,,,,,,left,1,70,-30,40,1,1778.720891,1778.720891,1778.720891,None,None,2,0,0.2122769,,,,,,,,,,,,,,,,,,,,,,10,10,2,2024-10-23_08h41.46.333,uWM_experiment,2022.2.3,60.01763318
,,,,,,,,,,,,,,,,,,,,9,0,9,0,11,0,11,0,,,,,,,,,,,,,,,,,,,,,,,,,,,,,,,,,,,,,,,,,,,,,,,,,,,,,,,,,,,,,,,,,,,,,,0.025167562,,,,,,,,,,,,,,,,,,,,,,,,,,,,right,1,160,30,190,1,1784.337756,1784.337756,1784.337756,None,None,3,0,0.2914621,,,,,,,,,,,,,,,,,,,,,,10,10,2,2024-10-23_08h41.46.333,uWM_experiment,2022.2.3,60.01763318
,,,,,,,,,,,,,,,,,,,,9,0,9,0,12,0,12,0,,,,,,,,,,,,,,,,,,,,,,,,,,,,,,,,,,,,,,,,,,,,,,,,,,,,,,,,,,,,,,,,,,,,,,0.015167562,,,,,,,,,,,,,,,,,,,,,,,,,,,,left,1,130,-30,100,1,1790.304683,1790.304683,1790.304683,None,None,1,1,0.1724297,,,,,,,,,,,,,,,,,,,,,,10,10,2,2024-10-23_08h41.46.333,uWM_experiment,2022.2.3,60.01763318
,,,,,,,,,,,,,,,,,,,,9,0,9,0,13,0,13,0,,,,,,,,,,,,,,,,,,,,,,,,,,,,,,,,,,,,,,,,,,,,,,,,,,,,,,,,,,,,,,,,,,,,,,0,,,,,,,,,,,,,,,,,,,,,,,,,,,,left,1,40,-30,10,0,1796.071613,1796.071613,1796.071613,None,None,2,0,0.7174577,,,,,,,,,,,,,,,,,,,,,,10,10,2,2024-10-23_08h41.46.333,uWM_experiment,2022.2.3,60.01763318
,,,,,,,,,,,,,,,,,,,,9,0,9,0,14,0,14,0,,,,,,,,,,,,,,,,,,,,,,,,,,,,,,,,,,,,,,,,,,,,,,,,,,,,,,,,,,,,,,,,,,,,,,0,,,,,,,,,,,,,,,,,,,,,,,,,,,,left,1,160,-30,130,0,1801.93852,1801.93852,1801.93852,None,None,1,1,0.1865767,,,,,,,,,,,,,,,,,,,,,,10,10,2,2024-10-23_08h41.46.333,uWM_experiment,2022.2.3,60.01763318
,,,,,,,,,,,,,,,,,,,,9,0,9,0,15,0,15,0,,,,,,,,,,,,,,,,,,,,,,,,,,,,,,,,,,,,,,,,,,,,,,,,,,,,,,,,,,,,,,,,,,,,,,0.025167562,,,,,,,,,,,,,,,,,,,,,,,,,,,,left,0,70,30,100,1,1807.47206,1807.47206,1807.47206,None,None,1,1,0.141111,,,,,,,,,,,,,,,,,,,,,,10,10,2,2024-10-23_08h41.46.333,uWM_experiment,2022.2.3,60.01763318
,,,,,,,,,,,,,,,,,,,,9,0,9,0,16,0,16,0,,,,,,,,,,,,,,,,,,,,,,,,,,,,,,,,,,,,,,,,,,,,,,,,,,,,,,,,,,,,,,,,,,,,,,0.035167562,,,,,,,,,,,,,,,,,,,,,,,,,,,,right,1,100,30,130,1,1813.088949,1813.088949,1813.088949,None,None,2,0,0.2360594,,,,,,,,,,,,,,,,,,,,,,10,10,2,2024-10-23_08h41.46.333,uWM_experiment,2022.2.3,60.01763318
,,,,,,,,,,,,,,,,,,,,9,0,9,0,17,0,17,0,,,,,,,,,,,,,,,,,,,,,,,,,,,,,,,,,,,,,,,,,,,,,,,,,,,,,,,,,,,,,,,,,,,,,,0.025167562,,,,,,,,,,,,,,,,,,,,,,,,,,,,left,0,130,30,160,1,1818.539161,1818.539161,1818.539161,None,None,1,1,0.1538379,,,,,,,,,,,,,,,,,,,,,,10,10,2,2024-10-23_08h41.46.333,uWM_experiment,2022.2.3,60.01763318
,,,,,,,,,,,,,,,,,,,,9,0,9,0,18,0,18,0,,,,,,,,,,,,,,,,,,,,,,,,,,,,,,,,,,,,,,,,,,,,,,,,,,,,,,,,,,,,,,,,,,,,,,0.035167562,,,,,,,,,,,,,,,,,,,,,,,,,,,,right,1,10,30,40,1,1824.139399,1824.139399,1824.139399,None,None,3,0,0.1375955,,,,,,,,,,,,,,,,,,,,,,10,10,2,2024-10-23_08h41.46.333,uWM_experiment,2022.2.3,60.01763318
,,,,,,,,,,,,,,,,,,,,9,0,9,0,19,0,19,0,,,,,,,,,,,,,,,,,,,,,,,,,,,,,,,,,,,,,,,,,,,,,,,,,,,,,,,,,,,,,,,,,,,,,,0.025167562,,,,,,,,,,,,,,,,,,,,,,,,,,,,left,1,70,-30,40,1,1829.422991,1829.422991,1829.422991,None,None,1,1,0.2140826,,,,,,,,,,,,,,,,,,,,,,10,10,2,2024-10-23_08h41.46.333,uWM_experiment,2022.2.3,60.01763318
,,,,,,,,,,,,,,,,,,,,9,0,9,0,20,0,20,0,,,,,,,,,,,,,,,,,,,,,,,,,,,,,,,,,,,,,,,,,,,,,,,,,,,,,,,,,,,,,,,,,,,,,,0,,,,,,,,,,,,,,,,,,,,,,,,,,,,left,0,10,30,40,0,1835.289843,1835.289843,1835.289843,None,None,1,1,0.2271947,,,,,,,,,,,,,,,,,,,,,,10,10,2,2024-10-23_08h41.46.333,uWM_experiment,2022.2.3,60.01763318
,,,,,,,,,,,,,,,,,,,,9,0,9,0,21,0,21,0,,,,,,,,,,,,,,,,,,,,,,,,,,,,,,,,,,,,,,,,,,,,,,,,,,,,,,,,,,,,,,,,,,,,,,0,,,,,,,,,,,,,,,,,,,,,,,,,,,,left,0,160,30,190,0,1840.806735,1840.806735,1840.806735,None,None,1,1,0.2143323,,,,,,,,,,,,,,,,,,,,,,10,10,2,2024-10-23_08h41.46.333,uWM_experiment,2022.2.3,60.01763318
,,,,,,,,,,,,,,,,,,,,9,0,9,0,22,0,22,0,,,,,,,,,,,,,,,,,,,,,,,,,,,,,,,,,,,,,,,,,,,,,,,,,,,,,,,,,,,,,,,,,,,,,,0.035167562,,,,,,,,,,,,,,,,,,,,,,,,,,,,right,1,40,30,70,1,1846.473619,1846.473619,1846.473619,None,None,3,0,0.3473069,,,,,,,,,,,,,,,,,,,,,,10,10,2,2024-10-23_08h41.46.333,uWM_experiment,2022.2.3,60.01763318
,,,,,,,,,,,,,,,,,,,,9,0,9,0,23,0,23,0,,,,,,,,,,,,,,,,,,,,,,,,,,,,,,,,,,,,,,,,,,,,,,,,,,,,,,,,,,,,,,,,,,,,,,0.025167562,,,,,,,,,,,,,,,,,,,,,,,,,,,,right,1,100,30,130,1,1852.340558,1852.340558,1852.340558,None,None,2,0,0.2964182,,,,,,,,,,,,,,,,,,,,,,10,10,2,2024-10-23_08h41.46.333,uWM_experiment,2022.2.3,60.01763318
,,,,,,,,,,,,,,,,,,,,9,0,9,0,,,,,0,0,0,0,,,,,,,,,,,,,,,,,,,,,,,,,,,,,,,,,,,,,,,,,,,,,,,,,,,,,,,,,,,,,,,,,,,,,,,,,,,,,,,,,,,,,,,,,,,,,,,,,,,,,,,,,,,,1852.657195,1852.657195,space,294.8988153,None,None,,,,,,,,,,,,,,,,10,10,2,2024-10-23_08h41.46.333,uWM_experiment,2022.2.3,60.01763318
,,,,,,,,,,,,,,,,,,,,9,0,9,0,,,,,1,0,1,0,,,,,,,,,,,,,,,,,,,,,,,,,,,,,,,,,,,,,,,,,,,,,,,,,,,,,,,,,,,,,,,,,,,,,,,,,,,,,,,,,,,,,,,,,,,,,,,,,,,,,,,,,,,,,,,,,,,,,,,,,,,,,,,,,10,10,2,2024-10-23_08h41.46.333,uWM_experiment,2022.2.3,60.01763318
,,,,,,,,,,,,,,,,,,,,9,0,9,0,,,,,2,0,2,0,,,,,,,,,,,,,,,,,,,,,,,,,,,,,,,,,,,,,,,,,,,,,,,,,,,,,,,,,,,,,,,,,,,,,,,,,,,,,,,,,,,,,,,,,,,,,,,,,,,,,,,,,,,,,,,,,,,,,,,,,,,,,,,,,10,10,2,2024-10-23_08h41.46.333,uWM_experiment,2022.2.3,60.01763318
,,,,,,,,,,,,,,,,,,,,10,0,10,0,0,0,0,0,,,,,,,,,,,,,,,,,,,,,,,,,,,,,,,,,,,,,,,,,,,,,,,,,,,,,,,,,,,,,,,,,,,,,,0.015167562,,,,,,,,,,,,,,,,,,,,2147.585965,2148.28605,2148.586012,2149.286077,2149.586036,2150.286057,2150.286057,2150.602754,left,1,70,-30,40,1,2154.702935,2154.702935,2154.702935,None,None,1,1,1.4290517,,,,,,,None,,,,,,,,,,,,,,,10,10,2,2024-10-23_08h41.46.333,uWM_experiment,2022.2.3,60.01763318
,,,,,,,,,,,,,,,,,,,,10,0,10,0,1,0,1,0,,,,,,,,,,,,,,,,,,,,,,,,,,,,,,,,,,,,,,,,,,,,,,,,,,,,,,,,,,,,,,,,,,,,,,0.025167562,,,,,,,,,,,,,,,,,,,,,,,,,,,,left,1,130,-30,100,1,2161.669862,2161.669862,2161.669862,None,None,3,0,0.3420672,,,,,,,,,,,,,,,,,,,,,,10,10,2,2024-10-23_08h41.46.333,uWM_experiment,2022.2.3,60.01763318
,,,,,,,,,,,,,,,,,,,,10,0,10,0,2,0,2,0,,,,,,,,,,,,,,,,,,,,,,,,,,,,,,,,,,,,,,,,,,,,,,,,,,,,,,,,,,,,,,,,,,,,,,0.015167562,,,,,,,,,,,,,,,,,,,,,,,,,,,,left,0,10,30,40,1,2167.170121,2167.170121,2167.170121,None,None,4,0,0.3056828,,,,,,,,,,,,,,,,,,,,,,10,10,2,2024-10-23_08h41.46.333,uWM_experiment,2022.2.3,60.01763318
,,,,,,,,,,,,,,,,,,,,10,0,10,0,3,0,3,0,,,,,,,,,,,,,,,,,,,,,,,,,,,,,,,,,,,,,,,,,,,,,,,,,,,,,,,,,,,,,,,,,,,,,,0,,,,,,,,,,,,,,,,,,,,,,,,,,,,left,1,160,-30,130,0,2172.570329,2172.570329,2172.570329,None,None,1,1,0.2174964,,,,,,,,,,,,,,,,,,,,,,10,10,2,2024-10-23_08h41.46.333,uWM_experiment,2022.2.3,60.01763318
,,,,,,,,,,,,,,,,,,,,10,0,10,0,4,0,4,0,,,,,,,,,,,,,,,,,,,,,,,,,,,,,,,,,,,,,,,,,,,,,,,,,,,,,,,,,,,,,,,,,,,,,,0.005167562,,,,,,,,,,,,,,,,,,,,,,,,,,,,left,1,160,-30,130,1,2177.987202,2177.987202,2177.987202,None,None,1,1,0.1846176,,,,,,,,,,,,,,,,,,,,,,10,10,2,2024-10-23_08h41.46.333,uWM_experiment,2022.2.3,60.01763318
,,,,,,,,,,,,,,,,,,,,10,0,10,0,5,0,5,0,,,,,,,,,,,,,,,,,,,,,,,,,,,,,,,,,,,,,,,,,,,,,,,,,,,,,,,,,,,,,,,,,,,,,,0.015167562,,,,,,,,,,,,,,,,,,,,,,,,,,,,right,0,10,-30,-20,1,2183.804112,2183.804112,2183.804112,None,None,2,0,0.1517087,,,,,,,,,,,,,,,,,,,,,,10,10,2,2024-10-23_08h41.46.333,uWM_experiment,2022.2.3,60.01763318
,,,,,,,,,,,,,,,,,,,,10,0,10,0,6,0,6,0,,,,,,,,,,,,,,,,,,,,,,,,,,,,,,,,,,,,,,,,,,,,,,,,,,,,,,,,,,,,,,,,,,,,,,0,,,,,,,,,,,,,,,,,,,,,,,,,,,,left,0,130,30,160,0,2189.17102,2189.17102,2189.17102,None,None,1,1,0.2887911,,,,,,,,,,,,,,,,,,,,,,10,10,2,2024-10-23_08h41.46.333,uWM_experiment,2022.2.3,60.01763318
,,,,,,,,,,,,,,,,,,,,10,0,10,0,7,0,7,0,,,,,,,,,,,,,,,,,,,,,,,,,,,,,,,,,,,,,,,,,,,,,,,,,,,,,,,,,,,,,,,,,,,,,,0,,,,,,,,,,,,,,,,,,,,,,,,,,,,left,1,70,-30,40,0,2194.687902,2194.687902,2194.687902,None,None,1,1,0.1878072,,,,,,,,,,,,,,,,,,,,,,10,10,2,2024-10-23_08h41.46.333,uWM_experiment,2022.2.3,60.01763318
,,,,,,,,,,,,,,,,,,,,10,0,10,0,8,0,8,0,,,,,,,,,,,,,,,,,,,,,,,,,,,,,,,,,,,,,,,,,,,,,,,,,,,,,,,,,,,,,,,,,,,,,,0.005167562,,,,,,,,,,,,,,,,,,,,,,,,,,,,left,1,130,-30,100,1,2200.038098,2200.038098,2200.038098,None,None,1,1,0.3016652,,,,,,,,,,,,,,,,,,,,,,10,10,2,2024-10-23_08h41.46.333,uWM_experiment,2022.2.3,60.01763318
,,,,,,,,,,,,,,,,,,,,10,0,10,0,9,0,9,0,,,,,,,,,,,,,,,,,,,,,,,,,,,,,,,,,,,,,,,,,,,,,,,,,,,,,,,,,,,,,,,,,,,,,,0,,,,,,,,,,,,,,,,,,,,,,,,,,,,left,0,160,30,190,0,2205.571676,2205.571676,2205.571676,None,None,1,1,0.2481491,,,,,,,,,,,,,,,,,,,,,,10,10,2,2024-10-23_08h41.46.333,uWM_experiment,2022.2.3,60.01763318
,,,,,,,,,,,,,,,,,,,,10,0,10,0,10,0,10,0,,,,,,,,,,,,,,,,,,,,,,,,,,,,,,,,,,,,,,,,,,,,,,,,,,,,,,,,,,,,,,,,,,,,,,0,,,,,,,,,,,,,,,,,,,,,,,,,,,,left,0,70,30,100,0,2211.05529,2211.05529,2211.05529,None,None,1,1,0.1883759,,,,,,,,,,,,,,,,,,,,,,10,10,2,2024-10-23_08h41.46.333,uWM_experiment,2022.2.3,60.01763318
,,,,,,,,,,,,,,,,,,,,10,0,10,0,11,0,11,0,,,,,,,,,,,,,,,,,,,,,,,,,,,,,,,,,,,,,,,,,,,,,,,,,,,,,,,,,,,,,,,,,,,,,,0.1,,,,,,,,,,,,,,,,,,,,,,,,,,,,left,1,130,-30,100,2,2217.022123,2217.022123,2217.022123,None,None,3,0,0.5175548,,,,,,,,,,,,,,,,,,,,,,10,10,2,2024-10-23_08h41.46.333,uWM_experiment,2022.2.3,60.01763318
,,,,,,,,,,,,,,,,,,,,10,0,10,0,12,0,12,0,,,,,,,,,,,,,,,,,,,,,,,,,,,,,,,,,,,,,,,,,,,,,,,,,,,,,,,,,,,,,,,,,,,,,,0.015167562,,,,,,,,,,,,,,,,,,,,,,,,,,,,left,1,40,-30,10,1,2222.93903,2222.93903,2222.93903,None,None,1,1,0.168639,,,,,,,,,,,,,,,,,,,,,,10,10,2,2024-10-23_08h41.46.333,uWM_experiment,2022.2.3,60.01763318
,,,,,,,,,,,,,,,,,,,,10,0,10,0,13,0,13,0,,,,,,,,,,,,,,,,,,,,,,,,,,,,,,,,,,,,,,,,,,,,,,,,,,,,,,,,,,,,,,,,,,,,,,0,,,,,,,,,,,,,,,,,,,,,,,,,,,,left,0,100,30,130,0,2228.505924,2228.505924,2228.505924,None,None,1,1,0.169711,,,,,,,,,,,,,,,,,,,,,,10,10,2,2024-10-23_08h41.46.333,uWM_experiment,2022.2.3,60.01763318
,,,,,,,,,,,,,,,,,,,,10,0,10,0,14,0,14,0,,,,,,,,,,,,,,,,,,,,,,,,,,,,,,,,,,,,,,,,,,,,,,,,,,,,,,,,,,,,,,,,,,,,,,0.025167562,,,,,,,,,,,,,,,,,,,,,,,,,,,,left,0,70,30,100,1,2234.139504,2234.139504,2234.139504,None,None,1,1,0.1841004,,,,,,,,,,,,,,,,,,,,,,10,10,2,2024-10-23_08h41.46.333,uWM_experiment,2022.2.3,60.01763318
