PreTrainingPAS4_loop.thisRepN,PreTrainingPAS4_loop.thisTrialN,PreTrainingPAS4_loop.thisN,PreTrainingPAS4_loop.thisIndex,PreTrainingPAS1_loop.thisRepN,PreTrainingPAS1_loop.thisTrialN,PreTrainingPAS1_loop.thisN,PreTrainingPAS1_loop.thisIndex,RepeatCV_loop.thisRepN,RepeatCV_loop.thisTrialN,RepeatCV_loop.thisN,RepeatCV_loop.thisIndex,TrainingCV_loop.thisRepN,TrainingCV_loop.thisTrialN,TrainingCV_loop.thisN,TrainingCV_loop.thisIndex,TrainingCAL_loop.thisRepN,TrainingCAL_loop.thisTrialN,TrainingCAL_loop.thisN,TrainingCAL_loop.thisIndex,blocks_loop.thisRepN,blocks_loop.thisTrialN,blocks_loop.thisN,blocks_loop.thisIndex,trials_loop.thisRepN,trials_loop.thisTrialN,trials_loop.thisN,trials_loop.thisIndex,TrainingPAS1_loop.thisRepN,TrainingPAS1_loop.thisTrialN,TrainingPAS1_loop.thisN,TrainingPAS1_loop.thisIndex,spacebarWelcome0.started,spacebarWelcome0.keys,spacebarWelcome0.rt,spacebarWelcome1.started,gaborWelcome1.started,maskWelcome1.started,textMaskWelcome1.started,spacebarWelcome1.keys,spacebarWelcome1.rt,spacebarWelcome2.started,spacebarWelcome2.keys,spacebarWelcome2.rt,textInst_PreTrainingPAS4.started,spacebarPreTrainingPAS4.started,spacebarPreTrainingPAS4.keys,spacebarPreTrainingPAS4.rt,textPreTrainingPAS1.started,spacebarPreTrainingPAS1.started,spacebarPreTrainingPAS1.keys,spacebarPreTrainingPAS1.rt,textQUEST0.started,spacebarQUEST0.started,spacebarQUEST0.keys,spacebarQUEST0.rt,spacebar0.started,spacebar0.keys,spacebar0.rt,spacebar1.started,spacebar1.keys,spacebar1.rt,textInstructions2.started,spacebar2.started,Gabor1Inst2.started,Gabor2Inst2.started,Gabor3Inst2.started,Gabor4Inst2.started,spacebar2.keys,spacebar2.rt,textInstructionsPAS.started,spacebarInstPAS.started,spacebarInstPAS.keys,spacebarInstPAS.rt,textInstructions3.started,spacebar3.started,spacebar3.keys,spacebar3.rt,WMresp_CV,WMresp_CV_acc,oriMemo_CV,gyre_CV,oriTest_CV,feedbackText.started,sliderCV.started,PAStextCV.started,PASkeyCV.started,sliderCV.response,sliderCV.rt,PASkeyCV.keys,PASkeyCV.corr,PASkeyCV.rt,feedbackText.stopped,TextInstructionsCAL.started,spacebarCAL.started,spacebarCAL.keys,spacebarCAL.rt,contrast,WMresp_CAL,WMresp_CAL_acc,oriMemo_CAL,gyre_CAL,oriTest_CAL,cue_CAL,sliderCAL.started,PAStextCAL.started,PASkeyCAL.started,sliderCAL.response,sliderCAL.rt,PASkeyCAL.keys,PASkeyCAL.corr,PASkeyCAL.rt,propUnseen_CAL,textStart.started,spacebar4.started,spacebar4.keys,spacebar4.rt,three.started,three.stopped,two.started,two.stopped,one.started,one.stopped,blank_countdown.started,blank_countdown.stopped,WMresp,WMresp_acc,oriMemo,gyre,oriTest,cue,slider.started,textPAS_firstGabor.started,PASkey.started,slider.response,slider.rt,PASkey.keys,PASkey.corr,PASkey.rt,spacebarContinue.started,textBreak.started,spacebarContinue.keys,spacebarContinue.rt,spacebar_reminder.keys,spacebar_TrainingPAS1.keys,spacebar_endpractice.keys,spacebar_reminder.started,textReminder.started,spacebar_reminder.rt,textInst_TrainingPAS1.started,spacebar_TrainingPAS1.started,spacebar_TrainingPAS1.rt,textend_practicePAS1.started,spacebar_endpractice.started,spacebar_endpractice.rt,textThanks.started,textThanks.stopped,laboratory,participant,session,date,expName,psychopyVersion,frameRate
,,,,,,,,,,,,,,,,,,,,,,,,,,,,,,,,248.7684202,space,148.9559799,,,,,,,,,,,,,,,,,,,,,,,,,,,,,,,,,,,,,,,,,,,,,,,,,,,,,,,,,,,,,,,,,,,,,,,,,,,,,,,,,,,,,,,,,,,,,,,,,,,,,,,,,,,,,,,,,,,,,,,,,,,1,10,1,2024-10-22_08h15.11.064,uWM_experiment,2022.2.3,59.98616719
,,,,,,,,,,,,,,,,,,,,,,,,,,,,,,,,,,,397.7581211,397.7581211,397.7581211,397.7581211,space,20.006236,,,,,,,,,,,,,,,,,,,,,,,,,,,,,,,,,,,,,,,,,,,,,,,,,,,,,,,,,,,,,,,,,,,,,,,,,,,,,,,,,,,,,,,,,,,,,,,,,,,,,,,,,,,,,,,,,,,,,1,10,1,2024-10-22_08h15.11.064,uWM_experiment,2022.2.3,59.98616719
,,,,,,,,,,,,,,,,,,,,,,,,,,,,,,,,,,,,,,,,,417.79235,space,26.6840765,,,,,,,,,,,,,,,,,,,,,,,,,,,,,,,,,,,,,,,,,,,,,,,,,,,,,,,,,,,,,,,,,,,,,,,,,,,,,,,,,,,,,,,,,,,,,,,,,,,,,,,,,,,,,,,,,,1,10,1,2024-10-22_08h15.11.064,uWM_experiment,2022.2.3,59.98616719
,,,,,,,,,,,,,,,,,,,,,,,,,,,,,,,,,,,,,,,,,,,,444.4935459,444.4935459,space,16.5348468,,,,,,,,,,,,,,,,,,,,,,,,,,,,,,,,,,,,,,,,,,,,,,,,,,,,,,,,,,,,,,,,,,,,,,,,,,,,,,,,,,,,,,,,,,,,,,,,,,,,,,,,,,,,,,1,10,1,2024-10-22_08h15.11.064,uWM_experiment,2022.2.3,59.98616719
0,0,0,0,,,,,,,,,,,,,,,,,,,,,,,,,,,,,,,,,,,,,,,,,,,,,,,,,,,,,,,,,,,,,,,,,,,,,,,,,,,,,,,,,,,,,,,,,,,,,,,,,,,,,,,,,,,,,,,,,,,,,,,,,,,,,,,,,,,,,,,,,,,,,,,,,,,,,,,,,,1,10,1,2024-10-22_08h15.11.064,uWM_experiment,2022.2.3,59.98616719
1,0,1,0,,,,,,,,,,,,,,,,,,,,,,,,,,,,,,,,,,,,,,,,,,,,,,,,,,,,,,,,,,,,,,,,,,,,,,,,,,,,,,,,,,,,,,,,,,,,,,,,,,,,,,,,,,,,,,,,,,,,,,,,,,,,,,,,,,,,,,,,,,,,,,,,,,,,,,,,,,1,10,1,2024-10-22_08h15.11.064,uWM_experiment,2022.2.3,59.98616719
2,0,2,0,,,,,,,,,,,,,,,,,,,,,,,,,,,,,,,,,,,,,,,,,,,,,,,,,,,,,,,,,,,,,,,,,,,,,,,,,,,,,,,,,,,,,,,,,,,,,,,,,,,,,,,,,,,,,,,,,,,,,,,,,,,,,,,,,,,,,,,,,,,,,,,,,,,,,,,,,,1,10,1,2024-10-22_08h15.11.064,uWM_experiment,2022.2.3,59.98616719
,,,,,,,,,,,,,,,,,,,,,,,,,,,,,,,,,,,,,,,,,,,,,,,,486.1954153,486.1954153,space,22.5610845,,,,,,,,,,,,,,,,,,,,,,,,,,,,,,,,,,,,,,,,,,,,,,,,,,,,,,,,,,,,,,,,,,,,,,,,,,,,,,,,,,,,,,,,,,,,,,,,,,,,,,,,,,1,10,1,2024-10-22_08h15.11.064,uWM_experiment,2022.2.3,59.98616719
,,,,0,0,0,0,,,,,,,,,,,,,,,,,,,,,,,,,,,,,,,,,,,,,,,,,,,,,,,,,,,,,,,,,,,,,,,,,,,,,,,,,,,,,,,,,,,,,,,,,,,,,,,,,,,,,,,,,,,,,,,,,,,,,,,,,,,,,,,,,,,,,,,,,,,,,,,,,,,,,,1,10,1,2024-10-22_08h15.11.064,uWM_experiment,2022.2.3,59.98616719
,,,,1,0,1,0,,,,,,,,,,,,,,,,,,,,,,,,,,,,,,,,,,,,,,,,,,,,,,,,,,,,,,,,,,,,,,,,,,,,,,,,,,,,,,,,,,,,,,,,,,,,,,,,,,,,,,,,,,,,,,,,,,,,,,,,,,,,,,,,,,,,,,,,,,,,,,,,,,,,,,1,10,1,2024-10-22_08h15.11.064,uWM_experiment,2022.2.3,59.98616719
,,,,2,0,2,0,,,,,,,,,,,,,,,,,,,,,,,,,,,,,,,,,,,,,,,,,,,,,,,,,,,,,,,,,,,,,,,,,,,,,,,,,,,,,,,,,,,,,,,,,,,,,,,,,,,,,,,,,,,,,,,,,,,,,,,,,,,,,,,,,,,,,,,,,,,,,,,,,,,,,,1,10,1,2024-10-22_08h15.11.064,uWM_experiment,2022.2.3,59.98616719
,,,,,,,,,,,,,,,,,,,,,,,,,,,,,,,,,,,,,,,,,,,,,,,,,,,,520.7302908,520.7302908,space,13.3780778,,,,,,,,,,,,,,,,,,,,,,,,,,,,,,,,,,,,,,,,,,,,,,,,,,,,,,,,,,,,,,,,,,,,,,,,,,,,,,,,,,,,,,,,,,,,,,,,,,,,,,1,10,1,2024-10-22_08h15.11.064,uWM_experiment,2022.2.3,59.98616719
,,,,,,,,,,,,,,,,,,,,,,,,,,,,,,,,,,,,,,,,,,,,,,,,,,,,,,,,692.8546767,space,29.8938504,,,,,,,,,,,,,,,,,,,,,,,,,,,,,,,,,,,,,,,,,,,,,,,,,,,,,,,,,,,,,,,,,,,,,,,,,,,,,,,,,,,,,,,,,,,,,,,,,,,1,10,1,2024-10-22_08h15.11.064,uWM_experiment,2022.2.3,59.98616719
,,,,,,,,,,,,,,,,,,,,,,,,,,,,,,,,,,,,,,,,,,,,,,,,,,,,,,,,,,,722.7726782,space,43.4558572,,,,,,,,,,,,,,,,,,,,,,,,,,,,,,,,,,,,,,,,,,,,,,,,,,,,,,,,,,,,,,,,,,,,,,,,,,,,,,,,,,,,,,,,,,,,,,,,1,10,1,2024-10-22_08h15.11.064,uWM_experiment,2022.2.3,59.98616719
,,,,,,,,,,,,,,,,,,,,,,,,,,,,,,,,,,,,,,,,,,,,,,,,,,,,,,,,,,,,,,766.2579688,766.2579688,766.2579688,766.2579688,766.2579688,766.2579688,space,21.5465814,,,,,,,,,,,,,,,,,,,,,,,,,,,,,,,,,,,,,,,,,,,,,,,,,,,,,,,,,,,,,,,,,,,,,,,,,,,,,,,,,,,,,,,,1,10,1,2024-10-22_08h15.11.064,uWM_experiment,2022.2.3,59.98616719
,,,,,,,,,,,,,,,,,,,,,,,,,,,,,,,,,,,,,,,,,,,,,,,,,,,,,,,,,,,,,,,,,,,,,,787.8256014,787.8256014,space,18.2669722,,,,,,,,,,,,,,,,,,,,,,,,,,,,,,,,,,,,,,,,,,,,,,,,,,,,,,,,,,,,,,,,,,,,,,,,,,,,,,,,,,,,1,10,1,2024-10-22_08h15.11.064,uWM_experiment,2022.2.3,59.98616719
,,,,,,,,,,,,,,,,,,,,,,,,,,,,,,,,,,,,,,,,,,,,,,,,,,,,,,,,,,,,,,,,,,,,,,,,,,806.1097463,806.1097463,space,15.7268208,,,,,,,,,,,,,,,,,,,,,,,,,,,,,,,,,,,,,,,,,,,,,,,,,,,,,,,,,,,,,,,,,,,,,,,,,,,,,,,,1,10,1,2024-10-22_08h15.11.064,uWM_experiment,2022.2.3,59.98616719
,,,,,,,,0,0,0,0,0,0,0,0,,,,,,,,,,,,,,,,,,,,,,,,,,,,,,,,,,,,,,,,,,,,,,,,,,,,,,,,,,,,,,,right,1,160,30,190,828.7941072,829.7941494,829.7941494,829.7941494,None,None,4,0,2.6664332,,,,,,,,,,,,,,,,,,,,,,,,,,,,,,,,,,,,,,,,,,,,,,,,,,,,,,,,,,,,,,,,,,1,10,1,2024-10-22_08h15.11.064,uWM_experiment,2022.2.3,59.98616719
,,,,,,,,0,0,0,0,1,0,1,0,,,,,,,,,,,,,,,,,,,,,,,,,,,,,,,,,,,,,,,,,,,,,,,,,,,,,,,,,,,,,,,left,1,70,-30,40,838.6612112,839.6612536,839.6612536,839.6612536,None,None,4,0,1.8712281,839.6612536,,,,,,,,,,,,,,,,,,,,,,,,,,,,,,,,,,,,,,,,,,,,,,,,,,,,,,,,,,,,,,,,,1,10,1,2024-10-22_08h15.11.064,uWM_experiment,2022.2.3,59.98616719
,,,,,,,,0,0,0,0,2,0,2,0,,,,,,,,,,,,,,,,,,,,,,,,,,,,,,,,,,,,,,,,,,,,,,,,,,,,,,,,,,,,,,,right,0,130,-30,100,848.1616378,849.1616824,849.1616824,849.1616824,None,None,3,0,15.4510196,,,,,,,,,,,,,,,,,,,,,,,,,,,,,,,,,,,,,,,,,,,,,,,,,,,,,,,,,,,,,,,,,,1,10,1,2024-10-22_08h15.11.064,uWM_experiment,2022.2.3,59.98616719
,,,,,,,,0,0,0,0,3,0,3,0,,,,,,,,,,,,,,,,,,,,,,,,,,,,,,,,,,,,,,,,,,,,,,,,,,,,,,,,,,,,,,,right,1,10,30,40,870.6793311,871.6793508,871.6793508,871.6793508,None,None,4,0,1.3011303,871.6793508,,,,,,,,,,,,,,,,,,,,,,,,,,,,,,,,,,,,,,,,,,,,,,,,,,,,,,,,,,,,,,,,,1,10,1,2024-10-22_08h15.11.064,uWM_experiment,2022.2.3,59.98616719
,,,,,,,,0,0,0,0,4,0,4,0,,,,,,,,,,,,,,,,,,,,,,,,,,,,,,,,,,,,,,,,,,,,,,,,,,,,,,,,,,,,,,,right,0,130,-30,100,879.8630696,880.8630969,880.8630969,880.8630969,None,None,3,0,1.8213977,,,,,,,,,,,,,,,,,,,,,,,,,,,,,,,,,,,,,,,,,,,,,,,,,,,,,,,,,,,,,,,,,,1,10,1,2024-10-22_08h15.11.064,uWM_experiment,2022.2.3,59.98616719
,,,,,,,,0,0,0,0,5,0,5,0,,,,,,,,,,,,,,,,,,,,,,,,,,,,,,,,,,,,,,,,,,,,,,,,,,,,,,,,,,,,,,,right,1,40,30,70,889.0134683,890.0135108,890.0135108,890.0135108,None,None,4,0,0.623032,890.0135108,,,,,,,,,,,,,,,,,,,,,,,,,,,,,,,,,,,,,,,,,,,,,,,,,,,,,,,,,,,,,,,,,1,10,1,2024-10-22_08h15.11.064,uWM_experiment,2022.2.3,59.98616719
,,,,,,,,0,0,0,0,6,0,6,0,,,,,,,,,,,,,,,,,,,,,,,,,,,,,,,,,,,,,,,,,,,,,,,,,,,,,,,,,,,,,,,left,1,130,-30,100,896.6971595,897.6971934,897.6971934,897.6971934,None,None,3,0,1.2434426,897.6971934,,,,,,,,,,,,,,,,,,,,,,,,,,,,,,,,,,,,,,,,,,,,,,,,,,,,,,,,,,,,,,,,,1,10,1,2024-10-22_08h15.11.064,uWM_experiment,2022.2.3,59.98616719
,,,,,,,,0,0,0,0,7,0,7,0,,,,,,,,,,,,,,,,,,,,,,,,,,,,,,,,,,,,,,,,,,,,,,,,,,,,,,,,,,,,,,,left,1,40,-30,10,904.9308729,905.9308943,905.9308943,905.9308943,None,None,4,0,0.9217207,905.9308943,,,,,,,,,,,,,,,,,,,,,,,,,,,,,,,,,,,,,,,,,,,,,,,,,,,,,,,,,,,,,,,,,1,10,1,2024-10-22_08h15.11.064,uWM_experiment,2022.2.3,59.98616719
,,,,,,,,0,0,0,0,8,0,8,0,,,,,,,,,,,,,,,,,,,,,,,,,,,,,,,,,,,,,,,,,,,,,,,,,,,,,,,,,,,,,,,left,1,160,-30,130,912.6478955,913.6479011,913.6479011,913.6479011,None,None,4,0,0.4686225,913.6479011,,,,,,,,,,,,,,,,,,,,,,,,,,,,,,,,,,,,,,,,,,,,,,,,,,,,,,,,,,,,,,,,,1,10,1,2024-10-22_08h15.11.064,uWM_experiment,2022.2.3,59.98616719
,,,,,,,,0,0,0,0,9,0,9,0,,,,,,,,,,,,,,,,,,,,,,,,,,,,,,,,,,,,,,,,,,,,,,,,,,,,,,,,,,,,,,,right,1,160,30,190,920.2482233,921.248244,921.248244,921.248244,None,None,4,0,0.636281,921.248244,,,,,,,,,,,,,,,,,,,,,,,,,,,,,,,,,,,,,,,,,,,,,,,,,,,,,,,,,,,,,,,,,1,10,1,2024-10-22_08h15.11.064,uWM_experiment,2022.2.3,59.98616719
,,,,,,,,0,0,0,0,10,0,10,0,,,,,,,,,,,,,,,,,,,,,,,,,,,,,,,,,,,,,,,,,,,,,,,,,,,,,,,,,,,,,,,right,1,10,30,40,927.5818533,928.5819033,928.5819033,928.5819033,None,None,4,0,0.3506978,928.5819033,,,,,,,,,,,,,,,,,,,,,,,,,,,,,,,,,,,,,,,,,,,,,,,,,,,,,,,,,,,,,,,,,1,10,1,2024-10-22_08h15.11.064,uWM_experiment,2022.2.3,59.98616719
,,,,,,,,0,0,0,0,11,0,11,0,,,,,,,,,,,,,,,,,,,,,,,,,,,,,,,,,,,,,,,,,,,,,,,,,,,,,,,,,,,,,,,right,1,70,30,100,934.865507,935.8655678,935.8655678,935.8655678,None,None,4,0,0.6750995,935.8655678,,,,,,,,,,,,,,,,,,,,,,,,,,,,,,,,,,,,,,,,,,,,,,,,,,,,,,,,,,,,,,,,,1,10,1,2024-10-22_08h15.11.064,uWM_experiment,2022.2.3,59.98616719
,,,,,,,,0,0,0,0,,,,,,,,,,,,,,,,,,,,,,,,,,,,,,,,,,,,,,,,,,,,,,,,,,,,,,,,,,,,,,,,,,,,,,,,,,,,,,,,,,,,,,,,,,,,,,,,,,,,,,,,,,,,,,,,,,,,,,,,,,,,,,,,,,,,,,,,,,,,,,,,,,1,10,1,2024-10-22_08h15.11.064,uWM_experiment,2022.2.3,59.98616719
,,,,,,,,,,,,,,,,,,,,,,,,,,,,,,,,,,,,,,,,,,,,,,,,,,,,,,,,,,,,,,,,,,,,,,,,,,,,,,,,,,,,,,,,,,,,,949.0494952,949.0494952,space,70.5792815,,,,,,,,,,,,,,,,,,,,,,,,,,,,,,,,,,,,,,,,,,,,,,,,,,,,,,,,,,,,,1,10,1,2024-10-22_08h15.11.064,uWM_experiment,2022.2.3,59.98616719
,,,,,,,,,,,,,,,,0,0,0,0,,,,,,,,,,,,,,,,,,,,,,,,,,,,,,,,,,,,,,,,,,,,,,,,,,,,,,,,,,,,,,,,,,,,,,,,,,,,,,0.005,right,1,40,30,70,1,1026.319619,1026.319619,1026.319619,None,None,2,0,3.533094,,,,,,,,,,,,,,,,,,,,,,,,,,,,,,,,,,,,,,,,,,,,,,1,10,1,2024-10-22_08h15.11.064,uWM_experiment,2022.2.3,59.98616719
,,,,,,,,,,,,,,,,1,0,1,0,,,,,,,,,,,,,,,,,,,,,,,,,,,,,,,,,,,,,,,,,,,,,,,,,,,,,,,,,,,,,,,,,,,,,,,,,,,,,,0.1,left,1,10,-30,-20,2,1035.820039,1035.820039,1035.820039,None,None,4,0,1.4406844,0,,,,,,,,,,,,,,,,,,,,,,,,,,,,,,,,,,,,,,,,,,,,,1,10,1,2024-10-22_08h15.11.064,uWM_experiment,2022.2.3,59.98616719
,,,,,,,,,,,,,,,,2,0,2,0,,,,,,,,,,,,,,,,,,,,,,,,,,,,,,,,,,,,,,,,,,,,,,,,,,,,,,,,,,,,,,,,,,,,,,,,,,,,,,0.1,right,1,100,30,130,2,1043.370392,1043.370392,1043.370392,None,None,3,0,3.9062248,0,,,,,,,,,,,,,,,,,,,,,,,,,,,,,,,,,,,,,,,,,,,,,1,10,1,2024-10-22_08h15.11.064,uWM_experiment,2022.2.3,59.98616719
,,,,,,,,,,,,,,,,3,0,3,0,,,,,,,,,,,,,,,,,,,,,,,,,,,,,,,,,,,,,,,,,,,,,,,,,,,,,,,,,,,,,,,,,,,,,,,,,,,,,,0.1,left,1,10,-30,-20,2,1053.054144,1053.054144,1053.054144,None,None,4,0,0.5586201,0,,,,,,,,,,,,,,,,,,,,,,,,,,,,,,,,,,,,,,,,,,,,,1,10,1,2024-10-22_08h15.11.064,uWM_experiment,2022.2.3,59.98616719
,,,,,,,,,,,,,,,,4,0,4,0,,,,,,,,,,,,,,,,,,,,,,,,,,,,,,,,,,,,,,,,,,,,,,,,,,,,,,,,,,,,,,,,,,,,,,,,,,,,,,0.005,left,1,40,-30,10,1,1058.821064,1058.821064,1058.821064,None,None,1,1,0.9276535,0,,,,,,,,,,,,,,,,,,,,,,,,,,,,,,,,,,,,,,,,,,,,,1,10,1,2024-10-22_08h15.11.064,uWM_experiment,2022.2.3,59.98616719
,,,,,,,,,,,,,,,,5,0,5,0,,,,,,,,,,,,,,,,,,,,,,,,,,,,,,,,,,,,,,,,,,,,,,,,,,,,,,,,,,,,,,,,,,,,,,,,,,,,,,0.015,left,0,130,30,160,1,1066.021408,1066.021408,1066.021408,None,None,1,1,0.6871921,0.2,,,,,,,,,,,,,,,,,,,,,,,,,,,,,,,,,,,,,,,,,,,,,1,10,1,2024-10-22_08h15.11.064,uWM_experiment,2022.2.3,59.98616719
,,,,,,,,,,,,,,,,6,0,6,0,,,,,,,,,,,,,,,,,,,,,,,,,,,,,,,,,,,,,,,,,,,,,,,,,,,,,,,,,,,,,,,,,,,,,,,,,,,,,,0.025,right,0,100,-30,70,1,1072.871699,1072.871699,1072.871699,None,None,1,1,0.772949,0.333333333,,,,,,,,,,,,,,,,,,,,,,,,,,,,,,,,,,,,,,,,,,,,,1,10,1,2024-10-22_08h15.11.064,uWM_experiment,2022.2.3,59.98616719
,,,,,,,,,,,,,,,,7,0,7,0,,,,,,,,,,,,,,,,,,,,,,,,,,,,,,,,,,,,,,,,,,,,,,,,,,,,,,,,,,,,,,,,,,,,,,,,,,,,,,0.035,left,0,100,30,130,1,1079.638662,1079.638662,1079.638662,None,None,1,1,0.7019375,0.428571429,,,,,,,,,,,,,,,,,,,,,,,,,,,,,,,,,,,,,,,,,,,,,1,10,1,2024-10-22_08h15.11.064,uWM_experiment,2022.2.3,59.98616719
,,,,,,,,,,,,,,,,8,0,8,0,,,,,,,,,,,,,,,,,,,,,,,,,,,,,,,,,,,,,,,,,,,,,,,,,,,,,,,,,,,,,,,,,,,,,,,,,,,,,,0.045,right,0,10,-30,-20,1,1086.77233,1086.77233,1086.77233,None,None,2,0,1.2404229,0.5,,,,,,,,,,,,,,,,,,,,,,,,,,,,,,,,,,,,,,,,,,,,,1,10,1,2024-10-22_08h15.11.064,uWM_experiment,2022.2.3,59.98616719
,,,,,,,,,,,,,,,,9,0,9,0,,,,,,,,,,,,,,,,,,,,,,,,,,,,,,,,,,,,,,,,,,,,,,,,,,,,,,,,,,,,,,,,,,,,,,,,,,,,,,0.035,left,1,40,-30,10,1,1094.489356,1094.489356,1094.489356,None,None,1,1,0.3712697,0.444444444,,,,,,,,,,,,,,,,,,,,,,,,,,,,,,,,,,,,,,,,,,,,,1,10,1,2024-10-22_08h15.11.064,uWM_experiment,2022.2.3,59.98616719
,,,,,,,,,,,,,,,,10,0,10,0,,,,,,,,,,,,,,,,,,,,,,,,,,,,,,,,,,,,,,,,,,,,,,,,,,,,,,,,,,,,,,,,,,,,,,,,,,,,,,0.1,right,1,160,30,190,2,1100.689623,1100.689623,1100.689623,None,None,4,0,0.9950459,0.5,,,,,,,,,,,,,,,,,,,,,,,,,,,,,,,,,,,,,,,,,,,,,1,10,1,2024-10-22_08h15.11.064,uWM_experiment,2022.2.3,59.98616719
,,,,,,,,,,,,,,,,11,0,11,0,,,,,,,,,,,,,,,,,,,,,,,,,,,,,,,,,,,,,,,,,,,,,,,,,,,,,,,,,,,,,,,,,,,,,,,,,,,,,,0.1,left,1,70,-30,40,2,1110.456727,1110.456727,1110.456727,None,None,3,0,0.5799428,0.454545455,,,,,,,,,,,,,,,,,,,,,,,,,,,,,,,,,,,,,,,,,,,,,1,10,1,2024-10-22_08h15.11.064,uWM_experiment,2022.2.3,59.98616719
,,,,,,,,,,,,,,,,12,0,12,0,,,,,,,,,,,,,,,,,,,,,,,,,,,,,,,,,,,,,,,,,,,,,,,,,,,,,,,,,,,,,,,,,,,,,,,,,,,,,,0.1,right,1,130,30,160,2,1117.007034,1117.007034,1117.007034,None,None,4,0,0.3175829,0.416666667,,,,,,,,,,,,,,,,,,,,,,,,,,,,,,,,,,,,,,,,,,,,,1,10,1,2024-10-22_08h15.11.064,uWM_experiment,2022.2.3,59.98616719
,,,,,,,,,,,,,,,,13,0,13,0,,,,,,,,,,,,,,,,,,,,,,,,,,,,,,,,,,,,,,,,,,,,,,,,,,,,,,,,,,,,,,,,,,,,,,,,,,,,,,0.045,right,1,160,30,190,1,1122.973935,1122.973935,1122.973935,None,None,1,1,0.4307706,0.384615385,,,,,,,,,,,,,,,,,,,,,,,,,,,,,,,,,,,,,,,,,,,,,1,10,1,2024-10-22_08h15.11.064,uWM_experiment,2022.2.3,59.98616719
,,,,,,,,,,,,,,,,14,0,14,0,,,,,,,,,,,,,,,,,,,,,,,,,,,,,,,,,,,,,,,,,,,,,,,,,,,,,,,,,,,,,,,,,,,,,,,,,,,,,,0.1,right,1,70,30,100,2,1130.224284,1130.224284,1130.224284,None,None,4,0,0.3164881,0.428571429,,,,,,,,,,,,,,,,,,,,,,,,,,,,,,,,,,,,,,,,,,,,,1,10,1,2024-10-22_08h15.11.064,uWM_experiment,2022.2.3,59.98616719
,,,,,,,,,,,,,,,,15,0,15,0,,,,,,,,,,,,,,,,,,,,,,,,,,,,,,,,,,,,,,,,,,,,,,,,,,,,,,,,,,,,,,,,,,,,,,,,,,,,,,0.1,left,1,40,-30,10,2,1137.474574,1137.474574,1137.474574,None,None,3,0,0.6503506,0.4,,,,,,,,,,,,,,,,,,,,,,,,,,,,,,,,,,,,,,,,,,,,,1,10,1,2024-10-22_08h15.11.064,uWM_experiment,2022.2.3,59.98616719
,,,,,,,,,,,,,,,,16,0,16,0,,,,,,,,,,,,,,,,,,,,,,,,,,,,,,,,,,,,,,,,,,,,,,,,,,,,,,,,,,,,,,,,,,,,,,,,,,,,,,0.055,left,1,70,-30,40,1,1143.724869,1143.724869,1143.724869,None,None,1,1,0.2717663,0.375,,,,,,,,,,,,,,,,,,,,,,,,,,,,,,,,,,,,,,,,,,,,,1,10,1,2024-10-22_08h15.11.064,uWM_experiment,2022.2.3,59.98616719
,,,,,,,,,,,,,,,,17,0,17,0,,,,,,,,,,,,,,,,,,,,,,,,,,,,,,,,,,,,,,,,,,,,,,,,,,,,,,,,,,,,,,,,,,,,,,,,,,,,,,0.065,left,1,100,-30,70,1,1149.208429,1149.208429,1149.208429,None,None,1,1,0.4922842,0.411764706,,,,,,,,,,,,,,,,,,,,,,,,,,,,,,,,,,,,,,,,,,,,,1,10,1,2024-10-22_08h15.11.064,uWM_experiment,2022.2.3,59.98616719
,,,,,,,,,,,,,,,,18,0,18,0,,,,,,,,,,,,,,,,,,,,,,,,,,,,,,,,,,,,,,,,,,,,,,,,,,,,,,,,,,,,,,,,,,,,,,,,,,,,,,0.1,left,1,160,-30,130,2,1155.608717,1155.608717,1155.608717,None,None,4,0,0.356019,0.444444444,,,,,,,,,,,,,,,,,,,,,,,,,,,,,,,,,,,,,,,,,,,,,1,10,1,2024-10-22_08h15.11.064,uWM_experiment,2022.2.3,59.98616719
,,,,,,,,,,,,,,,,19,0,19,0,,,,,,,,,,,,,,,,,,,,,,,,,,,,,,,,,,,,,,,,,,,,,,,,,,,,,,,,,,,,,,,,,,,,,,,,,,,,,,0.1,right,1,160,30,190,2,1161.709052,1161.709052,1161.709052,None,None,4,0,0.2956286,0.421052632,,,,,,,,,,,,,,,,,,,,,,,,,,,,,,,,,,,,,,,,,,,,,1,10,1,2024-10-22_08h15.11.064,uWM_experiment,2022.2.3,59.98616719
,,,,,,,,,,,,,,,,20,0,20,0,,,,,,,,,,,,,,,,,,,,,,,,,,,,,,,,,,,,,,,,,,,,,,,,,,,,,,,,,,,,,,,,,,,,,,,,,,,,,,0.1,right,1,10,30,40,2,1167.742636,1167.742636,1167.742636,None,None,4,0,0.3421201,0.4,,,,,,,,,,,,,,,,,,,,,,,,,,,,,,,,,,,,,,,,,,,,,1,10,1,2024-10-22_08h15.11.064,uWM_experiment,2022.2.3,59.98616719
,,,,,,,,,,,,,,,,21,0,21,0,,,,,,,,,,,,,,,,,,,,,,,,,,,,,,,,,,,,,,,,,,,,,,,,,,,,,,,,,,,,,,,,,,,,,,,,,,,,,,0.075,left,0,70,30,100,1,1173.826206,1173.826206,1173.826206,None,None,1,1,0.2425768,0.380952381,,,,,,,,,,,,,,,,,,,,,,,,,,,,,,,,,,,,,,,,,,,,,1,10,1,2024-10-22_08h15.11.064,uWM_experiment,2022.2.3,59.98616719
,,,,,,,,,,,,,,,,22,0,22,0,,,,,,,,,,,,,,,,,,,,,,,,,,,,,,,,,,,,,,,,,,,,,,,,,,,,,,,,,,,,,,,,,,,,,,,,,,,,,,0.085,left,0,130,30,160,1,1179.926543,1179.926543,1179.926543,None,None,1,1,0.4062695,0.409090909,,,,,,,,,,,,,,,,,,,,,,,,,,,,,,,,,,,,,,,,,,,,,1,10,1,2024-10-22_08h15.11.064,uWM_experiment,2022.2.3,59.98616719
,,,,,,,,,,,,,,,,23,0,23,0,,,,,,,,,,,,,,,,,,,,,,,,,,,,,,,,,,,,,,,,,,,,,,,,,,,,,,,,,,,,,,,,,,,,,,,,,,,,,,0.1,right,0,130,-30,100,2,1188.360199,1188.360199,1188.360199,None,None,3,0,0.2925993,0.434782609,,,,,,,,,,,,,,,,,,,,,,,,,,,,,,,,,,,,,,,,,,,,,1,10,1,2024-10-22_08h15.11.064,uWM_experiment,2022.2.3,59.98616719
,,,,,,,,,,,,,,,,,,,,,,,,,,,,,,,,,,,,,,,,,,,,,,,,,,,,,,,,,,,,,,,,,,,,,,,,,,,,,,,,,,,,,,,,,,,,,,,,,,,,,,,,,,,,,,,,,1188.676868,1189.676912,space,16.1519178,,,,,,,,,,,,,,,,,,,,,,,,,,,,,,,,,,,,,,,,,1,10,1,2024-10-22_08h15.11.064,uWM_experiment,2022.2.3,59.98616719
,,,,,,,,,,,,,,,,,,,,0,0,0,0,0,0,0,0,,,,,,,,,,,,,,,,,,,,,,,,,,,,,,,,,,,,,,,,,,,,,,,,,,,,,,,,,,,,,,,,,,,,,,0.085,,,,,,,,,,,,,,,,,,,,1205.860978,1206.561011,1206.844355,1207.544386,1207.844404,1208.544428,1208.544428,1208.894454,left,0,40,30,70,1,1213.761356,1213.761356,1213.761356,None,None,1,1,1.3793676,,,,,,,,,,,,,,,,,,,1,10,1,2024-10-22_08h15.11.064,uWM_experiment,2022.2.3,59.98616719
,,,,,,,,,,,,,,,,,,,,0,0,0,0,1,0,1,0,,,,,,,,,,,,,,,,,,,,,,,,,,,,,,,,,,,,,,,,,,,,,,,,,,,,,,,,,,,,,,,,,,,,,,0,,,,,,,,,,,,,,,,,,,,,,,,,,,,left,0,10,30,40,0,1220.76165,1220.76165,1220.76165,None,None,1,1,0.3471299,,,,,,,,,,,,,,,,,,,1,10,1,2024-10-22_08h15.11.064,uWM_experiment,2022.2.3,59.98616719
,,,,,,,,,,,,,,,,,,,,0,0,0,0,2,0,2,0,,,,,,,,,,,,,,,,,,,,,,,,,,,,,,,,,,,,,,,,,,,,,,,,,,,,,,,,,,,,,,,,,,,,,,0.095,,,,,,,,,,,,,,,,,,,,,,,,,,,,left,1,130,-30,100,1,1227.06192,1227.06192,1227.06192,None,None,1,1,0.2547821,,,,,,,,,,,,,,,,,,,1,10,1,2024-10-22_08h15.11.064,uWM_experiment,2022.2.3,59.98616719
,,,,,,,,,,,,,,,,,,,,0,0,0,0,3,0,3,0,,,,,,,,,,,,,,,,,,,,,,,,,,,,,,,,,,,,,,,,,,,,,,,,,,,,,,,,,,,,,,,,,,,,,,0,,,,,,,,,,,,,,,,,,,,,,,,,,,,left,1,10,-30,-20,0,1233.428896,1233.428896,1233.428896,None,None,1,1,0.3278854,,,,,,,,,,,,,,,,,,,1,10,1,2024-10-22_08h15.11.064,uWM_experiment,2022.2.3,59.98616719
,,,,,,,,,,,,,,,,,,,,0,0,0,0,4,0,4,0,,,,,,,,,,,,,,,,,,,,,,,,,,,,,,,,,,,,,,,,,,,,,,,,,,,,,,,,,,,,,,,,,,,,,,0,,,,,,,,,,,,,,,,,,,,,,,,,,,,left,1,40,-30,10,0,1239.895814,1239.895814,1239.895814,None,None,1,1,0.3889978,,,,,,,,,,,,,,,,,,,1,10,1,2024-10-22_08h15.11.064,uWM_experiment,2022.2.3,59.98616719
,,,,,,,,,,,,,,,,,,,,0,0,0,0,5,0,5,0,,,,,,,,,,,,,,,,,,,,,,,,,,,,,,,,,,,,,,,,,,,,,,,,,,,,,,,,,,,,,,,,,,,,,,0.105,,,,,,,,,,,,,,,,,,,,,,,,,,,,left,0,10,30,40,1,1246.4628,1246.4628,1246.4628,None,None,1,1,0.1499758,,,,,,,,,,,,,,,,,,,1,10,1,2024-10-22_08h15.11.064,uWM_experiment,2022.2.3,59.98616719
,,,,,,,,,,,,,,,,,,,,0,0,0,0,6,0,6,0,,,,,,,,,,,,,,,,,,,,,,,,,,,,,,,,,,,,,,,,,,,,,,,,,,,,,,,,,,,,,,,,,,,,,,0,,,,,,,,,,,,,,,,,,,,,,,,,,,,right,0,70,-30,40,0,1253.463131,1253.463131,1253.463131,None,None,2,0,0.2535434,,,,,,,,,,,,,,,,,,,1,10,1,2024-10-22_08h15.11.064,uWM_experiment,2022.2.3,59.98616719
,,,,,,,,,,,,,,,,,,,,0,0,0,0,7,0,7,0,,,,,,,,,,,,,,,,,,,,,,,,,,,,,,,,,,,,,,,,,,,,,,,,,,,,,,,,,,,,,,,,,,,,,,0.115,,,,,,,,,,,,,,,,,,,,,,,,,,,,right,1,10,30,40,1,1259.513378,1259.513378,1259.513378,None,None,2,0,0.5313632,,,,,,,,,,,,,,,,,,,1,10,1,2024-10-22_08h15.11.064,uWM_experiment,2022.2.3,59.98616719
,,,,,,,,,,,,,,,,,,,,0,0,0,0,8,0,8,0,,,,,,,,,,,,,,,,,,,,,,,,,,,,,,,,,,,,,,,,,,,,,,,,,,,,,,,,,,,,,,,,,,,,,,0.105,,,,,,,,,,,,,,,,,,,,,,,,,,,,left,1,70,-30,40,1,1265.646992,1265.646992,1265.646992,None,None,1,1,0.245721,,,,,,,,,,,,,,,,,,,1,10,1,2024-10-22_08h15.11.064,uWM_experiment,2022.2.3,59.98616719
,,,,,,,,,,,,,,,,,,,,0,0,0,0,9,0,9,0,,,,,,,,,,,,,,,,,,,,,,,,,,,,,,,,,,,,,,,,,,,,,,,,,,,,,,,,,,,,,,,,,,,,,,0.115,,,,,,,,,,,,,,,,,,,,,,,,,,,,left,0,40,30,70,1,1271.447267,1271.447267,1271.447267,None,None,1,1,0.2774491,,,,,,,,,,,,,,,,,,,1,10,1,2024-10-22_08h15.11.064,uWM_experiment,2022.2.3,59.98616719
,,,,,,,,,,,,,,,,,,,,0,0,0,0,10,0,10,0,,,,,,,,,,,,,,,,,,,,,,,,,,,,,,,,,,,,,,,,,,,,,,,,,,,,,,,,,,,,,,,,,,,,,,0.125,,,,,,,,,,,,,,,,,,,,,,,,,,,,left,1,160,-30,130,1,1277.38085,1277.38085,1277.38085,None,None,1,1,0.1759624,,,,,,,,,,,,,,,,,,,1,10,1,2024-10-22_08h15.11.064,uWM_experiment,2022.2.3,59.98616719
,,,,,,,,,,,,,,,,,,,,0,0,0,0,11,0,11,0,,,,,,,,,,,,,,,,,,,,,,,,,,,,,,,,,,,,,,,,,,,,,,,,,,,,,,,,,,,,,,,,,,,,,,0.135,,,,,,,,,,,,,,,,,,,,,,,,,,,,left,0,130,30,160,1,1282.781072,1282.781072,1282.781072,None,None,1,1,0.4077718,,,,,,,,,,,,,,,,,,,1,10,1,2024-10-22_08h15.11.064,uWM_experiment,2022.2.3,59.98616719
,,,,,,,,,,,,,,,,,,,,0,0,0,0,12,0,12,0,,,,,,,,,,,,,,,,,,,,,,,,,,,,,,,,,,,,,,,,,,,,,,,,,,,,,,,,,,,,,,,,,,,,,,0.145,,,,,,,,,,,,,,,,,,,,,,,,,,,,left,0,70,30,100,1,1288.781356,1288.781356,1288.781356,None,None,1,1,0.1835484,,,,,,,,,,,,,,,,,,,1,10,1,2024-10-22_08h15.11.064,uWM_experiment,2022.2.3,59.98616719
,,,,,,,,,,,,,,,,,,,,0,0,0,0,13,0,13,0,,,,,,,,,,,,,,,,,,,,,,,,,,,,,,,,,,,,,,,,,,,,,,,,,,,,,,,,,,,,,,,,,,,,,,0,,,,,,,,,,,,,,,,,,,,,,,,,,,,left,1,100,-30,70,0,1294.998321,1294.998321,1294.998321,None,None,1,1,0.2224113,,,,,,,,,,,,,,,,,,,1,10,1,2024-10-22_08h15.11.064,uWM_experiment,2022.2.3,59.98616719
,,,,,,,,,,,,,,,,,,,,0,0,0,0,14,0,14,0,,,,,,,,,,,,,,,,,,,,,,,,,,,,,,,,,,,,,,,,,,,,,,,,,,,,,,,,,,,,,,,,,,,,,,0.155,,,,,,,,,,,,,,,,,,,,,,,,,,,,left,0,70,30,100,1,1300.798563,1300.798563,1300.798563,None,None,1,1,0.2221762,,,,,,,,,,,,,,,,,,,1,10,1,2024-10-22_08h15.11.064,uWM_experiment,2022.2.3,59.98616719
,,,,,,,,,,,,,,,,,,,,0,0,0,0,15,0,15,0,,,,,,,,,,,,,,,,,,,,,,,,,,,,,,,,,,,,,,,,,,,,,,,,,,,,,,,,,,,,,,,,,,,,,,0.1,,,,,,,,,,,,,,,,,,,,,,,,,,,,right,1,40,30,70,2,1307.215516,1307.215516,1307.215516,None,None,4,0,0.6773335,,,,,,,,,,,,,,,,,,,1,10,1,2024-10-22_08h15.11.064,uWM_experiment,2022.2.3,59.98616719
,,,,,,,,,,,,,,,,,,,,0,0,0,0,16,0,16,0,,,,,,,,,,,,,,,,,,,,,,,,,,,,,,,,,,,,,,,,,,,,,,,,,,,,,,,,,,,,,,,,,,,,,,0.165,,,,,,,,,,,,,,,,,,,,,,,,,,,,left,1,160,-30,130,1,1313.582453,1313.582453,1313.582453,None,None,1,1,0.1663415,,,,,,,,,,,,,,,,,,,1,10,1,2024-10-22_08h15.11.064,uWM_experiment,2022.2.3,59.98616719
,,,,,,,,,,,,,,,,,,,,0,0,0,0,17,0,17,0,,,,,,,,,,,,,,,,,,,,,,,,,,,,,,,,,,,,,,,,,,,,,,,,,,,,,,,,,,,,,,,,,,,,,,0.175,,,,,,,,,,,,,,,,,,,,,,,,,,,,left,1,100,-30,70,1,1318.899347,1318.899347,1318.899347,None,None,1,1,0.161389,,,,,,,,,,,,,,,,,,,1,10,1,2024-10-22_08h15.11.064,uWM_experiment,2022.2.3,59.98616719
,,,,,,,,,,,,,,,,,,,,0,0,0,0,18,0,18,0,,,,,,,,,,,,,,,,,,,,,,,,,,,,,,,,,,,,,,,,,,,,,,,,,,,,,,,,,,,,,,,,,,,,,,0.185,,,,,,,,,,,,,,,,,,,,,,,,,,,,left,0,160,30,190,1,1325.416331,1325.416331,1325.416331,None,None,1,1,0.204389,,,,,,,,,,,,,,,,,,,1,10,1,2024-10-22_08h15.11.064,uWM_experiment,2022.2.3,59.98616719
,,,,,,,,,,,,,,,,,,,,0,0,0,0,19,0,19,0,,,,,,,,,,,,,,,,,,,,,,,,,,,,,,,,,,,,,,,,,,,,,,,,,,,,,,,,,,,,,,,,,,,,,,0,,,,,,,,,,,,,,,,,,,,,,,,,,,,left,0,40,30,70,0,1331.166584,1331.166584,1331.166584,None,None,1,1,0.2142104,,,,,,,,,,,,,,,,,,,1,10,1,2024-10-22_08h15.11.064,uWM_experiment,2022.2.3,59.98616719
,,,,,,,,,,,,,,,,,,,,0,0,0,0,20,0,20,0,,,,,,,,,,,,,,,,,,,,,,,,,,,,,,,,,,,,,,,,,,,,,,,,,,,,,,,,,,,,,,,,,,,,,,0.195,,,,,,,,,,,,,,,,,,,,,,,,,,,,left,0,40,30,70,1,1336.500184,1336.500184,1336.500184,None,None,1,1,0.1765534,,,,,,,,,,,,,,,,,,,1,10,1,2024-10-22_08h15.11.064,uWM_experiment,2022.2.3,59.98616719
,,,,,,,,,,,,,,,,,,,,0,0,0,0,21,0,21,0,,,,,,,,,,,,,,,,,,,,,,,,,,,,,,,,,,,,,,,,,,,,,,,,,,,,,,,,,,,,,,,,,,,,,,0.205,,,,,,,,,,,,,,,,,,,,,,,,,,,,left,1,10,-30,-20,1,1341.833749,1341.833749,1341.833749,None,None,1,1,0.4029957,,,,,,,,,,,,,,,,,,,1,10,1,2024-10-22_08h15.11.064,uWM_experiment,2022.2.3,59.98616719
,,,,,,,,,,,,,,,,,,,,0,0,0,0,22,0,22,0,,,,,,,,,,,,,,,,,,,,,,,,,,,,,,,,,,,,,,,,,,,,,,,,,,,,,,,,,,,,,,,,,,,,,,0.215,,,,,,,,,,,,,,,,,,,,,,,,,,,,left,1,100,-30,70,1,1347.433964,1347.433964,1347.433964,None,None,1,1,0.5789488,,,,,,,,,,,,,,,,,,,1,10,1,2024-10-22_08h15.11.064,uWM_experiment,2022.2.3,59.98616719
,,,,,,,,,,,,,,,,,,,,0,0,0,0,23,0,23,0,,,,,,,,,,,,,,,,,,,,,,,,,,,,,,,,,,,,,,,,,,,,,,,,,,,,,,,,,,,,,,,,,,,,,,0,,,,,,,,,,,,,,,,,,,,,,,,,,,,left,0,160,30,190,0,1354.050945,1354.050945,1354.050945,None,None,1,1,0.3299456,,,,,,,,,,,,,,,,,,,1,10,1,2024-10-22_08h15.11.064,uWM_experiment,2022.2.3,59.98616719
,,,,,,,,,,,,,,,,,,,,0,0,0,0,,,,,0,0,0,0,,,,,,,,,,,,,,,,,,,,,,,,,,,,,,,,,,,,,,,,,,,,,,,,,,,,,,,,,,,,,,,,,,,,,,,,,,,,,,,,,,,,,,,,,,,,,,,,,,,,,,,,,,,,1354.400944,1354.400944,space,422.30013,None,None,,,,,,,,,,,,,1,10,1,2024-10-22_08h15.11.064,uWM_experiment,2022.2.3,59.98616719
,,,,,,,,,,,,,,,,,,,,0,0,0,0,,,,,1,0,1,0,,,,,,,,,,,,,,,,,,,,,,,,,,,,,,,,,,,,,,,,,,,,,,,,,,,,,,,,,,,,,,,,,,,,,,,,,,,,,,,,,,,,,,,,,,,,,,,,,,,,,,,,,,,,,,,,,,,,,,,,,,,,,,1,10,1,2024-10-22_08h15.11.064,uWM_experiment,2022.2.3,59.98616719
,,,,,,,,,,,,,,,,,,,,0,0,0,0,,,,,2,0,2,0,,,,,,,,,,,,,,,,,,,,,,,,,,,,,,,,,,,,,,,,,,,,,,,,,,,,,,,,,,,,,,,,,,,,,,,,,,,,,,,,,,,,,,,,,,,,,,,,,,,,,,,,,,,,,,,,,,,,,,,,,,,,,,1,10,1,2024-10-22_08h15.11.064,uWM_experiment,2022.2.3,59.98616719
,,,,,,,,,,,,,,,,,,,,1,0,1,0,0,0,0,0,,,,,,,,,,,,,,,,,,,,,,,,,,,,,,,,,,,,,,,,,,,,,,,,,,,,,,,,,,,,,,,,,,,,,,0.225,,,,,,,,,,,,,,,,,,,,1776.719862,1777.419892,1777.719905,1778.419936,1778.719951,1779.420027,1779.420027,1779.736689,left,0,130,30,160,1,1783.853591,1783.853591,1783.853591,None,None,1,1,0.2154257,,,,,,,None,,,,,,,,,,,,1,10,1,2024-10-22_08h15.11.064,uWM_experiment,2022.2.3,59.98616719
,,,,,,,,,,,,,,,,,,,,1,0,1,0,1,0,1,0,,,,,,,,,,,,,,,,,,,,,,,,,,,,,,,,,,,,,,,,,,,,,,,,,,,,,,,,,,,,,,,,,,,,,,0.1,,,,,,,,,,,,,,,,,,,,,,,,,,,,left,0,130,30,160,2,1790.037142,1790.037142,1790.037142,None,None,3,0,0.5279888,,,,,,,,,,,,,,,,,,,1,10,1,2024-10-22_08h15.11.064,uWM_experiment,2022.2.3,59.98616719
,,,,,,,,,,,,,,,,,,,,1,0,1,0,2,0,2,0,,,,,,,,,,,,,,,,,,,,,,,,,,,,,,,,,,,,,,,,,,,,,,,,,,,,,,,,,,,,,,,,,,,,,,0.235,,,,,,,,,,,,,,,,,,,,,,,,,,,,left,1,40,-30,10,1,1795.704046,1795.704046,1795.704046,None,None,1,1,0.3169856,,,,,,,,,,,,,,,,,,,1,10,1,2024-10-22_08h15.11.064,uWM_experiment,2022.2.3,59.98616719
,,,,,,,,,,,,,,,,,,,,1,0,1,0,3,0,3,0,,,,,,,,,,,,,,,,,,,,,,,,,,,,,,,,,,,,,,,,,,,,,,,,,,,,,,,,,,,,,,,,,,,,,,0.245,,,,,,,,,,,,,,,,,,,,,,,,,,,,left,0,160,30,190,1,1801.187641,1801.187641,1801.187641,None,None,1,1,0.3453987,,,,,,,,,,,,,,,,,,,1,10,1,2024-10-22_08h15.11.064,uWM_experiment,2022.2.3,59.98616719
,,,,,,,,,,,,,,,,,,,,1,0,1,0,4,0,4,0,,,,,,,,,,,,,,,,,,,,,,,,,,,,,,,,,,,,,,,,,,,,,,,,,,,,,,,,,,,,,,,,,,,,,,0.255,,,,,,,,,,,,,,,,,,,,,,,,,,,,left,0,160,30,190,1,1806.937909,1806.937909,1806.937909,None,None,1,1,0.2511055,,,,,,,,,,,,,,,,,,,1,10,1,2024-10-22_08h15.11.064,uWM_experiment,2022.2.3,59.98616719
,,,,,,,,,,,,,,,,,,,,1,0,1,0,5,0,5,0,,,,,,,,,,,,,,,,,,,,,,,,,,,,,,,,,,,,,,,,,,,,,,,,,,,,,,,,,,,,,,,,,,,,,,0,,,,,,,,,,,,,,,,,,,,,,,,,,,,left,1,70,-30,40,0,1812.371458,1812.371458,1812.371458,None,None,1,1,0.329651,,,,,,,,,,,,,,,,,,,1,10,1,2024-10-22_08h15.11.064,uWM_experiment,2022.2.3,59.98616719
,,,,,,,,,,,,,,,,,,,,1,0,1,0,6,0,6,0,,,,,,,,,,,,,,,,,,,,,,,,,,,,,,,,,,,,,,,,,,,,,,,,,,,,,,,,,,,,,,,,,,,,,,0,,,,,,,,,,,,,,,,,,,,,,,,,,,,left,0,40,30,70,0,1817.888406,1817.888406,1817.888406,None,None,1,1,0.212598,,,,,,,,,,,,,,,,,,,1,10,1,2024-10-22_08h15.11.064,uWM_experiment,2022.2.3,59.98616719
,,,,,,,,,,,,,,,,,,,,1,0,1,0,7,0,7,0,,,,,,,,,,,,,,,,,,,,,,,,,,,,,,,,,,,,,,,,,,,,,,,,,,,,,,,,,,,,,,,,,,,,,,0.265,,,,,,,,,,,,,,,,,,,,,,,,,,,,left,1,160,-30,130,1,1823.605317,1823.605317,1823.605317,None,None,1,1,0.1757072,,,,,,,,,,,,,,,,,,,1,10,1,2024-10-22_08h15.11.064,uWM_experiment,2022.2.3,59.98616719
,,,,,,,,,,,,,,,,,,,,1,0,1,0,8,0,8,0,,,,,,,,,,,,,,,,,,,,,,,,,,,,,,,,,,,,,,,,,,,,,,,,,,,,,,,,,,,,,,,,,,,,,,0.275,,,,,,,,,,,,,,,,,,,,,,,,,,,,right,1,160,30,190,1,1829.622258,1829.622258,1829.622258,None,None,2,0,0.2547262,,,,,,,,,,,,,,,,,,,1,10,1,2024-10-22_08h15.11.064,uWM_experiment,2022.2.3,59.98616719
,,,,,,,,,,,,,,,,,,,,1,0,1,0,9,0,9,0,,,,,,,,,,,,,,,,,,,,,,,,,,,,,,,,,,,,,,,,,,,,,,,,,,,,,,,,,,,,,,,,,,,,,,0.265,,,,,,,,,,,,,,,,,,,,,,,,,,,,left,0,100,30,130,1,1835.689194,1835.689194,1835.689194,None,None,2,0,0.2279282,,,,,,,,,,,,,,,,,,,1,10,1,2024-10-22_08h15.11.064,uWM_experiment,2022.2.3,59.98616719
,,,,,,,,,,,,,,,,,,,,1,0,1,0,10,0,10,0,,,,,,,,,,,,,,,,,,,,,,,,,,,,,,,,,,,,,,,,,,,,,,,,,,,,,,,,,,,,,,,,,,,,,,0,,,,,,,,,,,,,,,,,,,,,,,,,,,,left,1,10,-30,-20,0,1841.106077,1841.106077,1841.106077,None,None,1,1,0.4590158,,,,,,,,,,,,,,,,,,,1,10,1,2024-10-22_08h15.11.064,uWM_experiment,2022.2.3,59.98616719
,,,,,,,,,,,,,,,,,,,,1,0,1,0,11,0,11,0,,,,,,,,,,,,,,,,,,,,,,,,,,,,,,,,,,,,,,,,,,,,,,,,,,,,,,,,,,,,,,,,,,,,,,0.255,,,,,,,,,,,,,,,,,,,,,,,,,,,,left,1,130,-30,100,1,1846.706325,1846.706325,1846.706325,None,None,1,1,0.242816,,,,,,,,,,,,,,,,,,,1,10,1,2024-10-22_08h15.11.064,uWM_experiment,2022.2.3,59.98616719
,,,,,,,,,,,,,,,,,,,,1,0,1,0,12,0,12,0,,,,,,,,,,,,,,,,,,,,,,,,,,,,,,,,,,,,,,,,,,,,,,,,,,,,,,,,,,,,,,,,,,,,,,0.265,,,,,,,,,,,,,,,,,,,,,,,,,,,,left,1,70,-30,40,1,1852.456596,1852.456596,1852.456596,None,None,2,0,0.4044293,,,,,,,,,,,,,,,,,,,1,10,1,2024-10-22_08h15.11.064,uWM_experiment,2022.2.3,59.98616719
,,,,,,,,,,,,,,,,,,,,1,0,1,0,13,0,13,0,,,,,,,,,,,,,,,,,,,,,,,,,,,,,,,,,,,,,,,,,,,,,,,,,,,,,,,,,,,,,,,,,,,,,,0.255,,,,,,,,,,,,,,,,,,,,,,,,,,,,left,1,100,-30,70,1,1860.240281,1860.240281,1860.240281,None,None,2,0,0.3169125,,,,,,,,,,,,,,,,,,,1,10,1,2024-10-22_08h15.11.064,uWM_experiment,2022.2.3,59.98616719
,,,,,,,,,,,,,,,,,,,,1,0,1,0,14,0,14,0,,,,,,,,,,,,,,,,,,,,,,,,,,,,,,,,,,,,,,,,,,,,,,,,,,,,,,,,,,,,,,,,,,,,,,0.245,,,,,,,,,,,,,,,,,,,,,,,,,,,,left,0,40,30,70,1,1865.973858,1865.973858,1865.973858,None,None,1,1,0.2313531,,,,,,,,,,,,,,,,,,,1,10,1,2024-10-22_08h15.11.064,uWM_experiment,2022.2.3,59.98616719
,,,,,,,,,,,,,,,,,,,,1,0,1,0,15,0,15,0,,,,,,,,,,,,,,,,,,,,,,,,,,,,,,,,,,,,,,,,,,,,,,,,,,,,,,,,,,,,,,,,,,,,,,0.255,,,,,,,,,,,,,,,,,,,,,,,,,,,,left,1,130,-30,100,1,1871.390767,1871.390767,1871.390767,None,None,1,1,0.230416,,,,,,,,,,,,,,,,,,,1,10,1,2024-10-22_08h15.11.064,uWM_experiment,2022.2.3,59.98616719
,,,,,,,,,,,,,,,,,,,,1,0,1,0,16,0,16,0,,,,,,,,,,,,,,,,,,,,,,,,,,,,,,,,,,,,,,,,,,,,,,,,,,,,,,,,,,,,,,,,,,,,,,0.265,,,,,,,,,,,,,,,,,,,,,,,,,,,,left,1,10,-30,-20,1,1877.107689,1877.107689,1877.107689,None,None,3,0,0.6894631,,,,,,,,,,,,,,,,,,,1,10,1,2024-10-22_08h15.11.064,uWM_experiment,2022.2.3,59.98616719
,,,,,,,,,,,,,,,,,,,,1,0,1,0,17,0,17,0,,,,,,,,,,,,,,,,,,,,,,,,,,,,,,,,,,,,,,,,,,,,,,,,,,,,,,,,,,,,,,,,,,,,,,0,,,,,,,,,,,,,,,,,,,,,,,,,,,,left,1,10,-30,-20,0,1882.99134,1882.99134,1882.99134,None,None,1,1,0.3738261,,,,,,,,,,,,,,,,,,,1,10,1,2024-10-22_08h15.11.064,uWM_experiment,2022.2.3,59.98616719
,,,,,,,,,,,,,,,,,,,,1,0,1,0,18,0,18,0,,,,,,,,,,,,,,,,,,,,,,,,,,,,,,,,,,,,,,,,,,,,,,,,,,,,,,,,,,,,,,,,,,,,,,0.255,,,,,,,,,,,,,,,,,,,,,,,,,,,,left,0,70,30,100,1,1889.391575,1889.391575,1889.391575,None,None,2,0,0.5976432,,,,,,,,,,,,,,,,,,,1,10,1,2024-10-22_08h15.11.064,uWM_experiment,2022.2.3,59.98616719
,,,,,,,,,,,,,,,,,,,,1,0,1,0,19,0,19,0,,,,,,,,,,,,,,,,,,,,,,,,,,,,,,,,,,,,,,,,,,,,,,,,,,,,,,,,,,,,,,,,,,,,,,0,,,,,,,,,,,,,,,,,,,,,,,,,,,,left,0,100,30,130,0,1895.541881,1895.541881,1895.541881,None,None,1,1,0.4231954,,,,,,,,,,,,,,,,,,,1,10,1,2024-10-22_08h15.11.064,uWM_experiment,2022.2.3,59.98616719
,,,,,,,,,,,,,,,,,,,,1,0,1,0,20,0,20,0,,,,,,,,,,,,,,,,,,,,,,,,,,,,,,,,,,,,,,,,,,,,,,,,,,,,,,,,,,,,,,,,,,,,,,0.245,,,,,,,,,,,,,,,,,,,,,,,,,,,,left,1,130,-30,100,1,1901.525446,1901.525446,1901.525446,None,None,3,0,0.4316455,,,,,,,,,,,,,,,,,,,1,10,1,2024-10-22_08h15.11.064,uWM_experiment,2022.2.3,59.98616719
,,,,,,,,,,,,,,,,,,,,1,0,1,0,21,0,21,0,,,,,,,,,,,,,,,,,,,,,,,,,,,,,,,,,,,,,,,,,,,,,,,,,,,,,,,,,,,,,,,,,,,,,,0,,,,,,,,,,,,,,,,,,,,,,,,,,,,left,0,10,30,40,0,1907.192364,1907.192364,1907.192364,None,None,1,1,0.3327223,,,,,,,,,,,,,,,,,,,1,10,1,2024-10-22_08h15.11.064,uWM_experiment,2022.2.3,59.98616719
,,,,,,,,,,,,,,,,,,,,1,0,1,0,22,0,22,0,,,,,,,,,,,,,,,,,,,,,,,,,,,,,,,,,,,,,,,,,,,,,,,,,,,,,,,,,,,,,,,,,,,,,,0.235,,,,,,,,,,,,,,,,,,,,,,,,,,,,left,1,10,-30,-20,1,1913.042638,1913.042638,1913.042638,None,None,2,0,0.6744736,,,,,,,,,,,,,,,,,,,1,10,1,2024-10-22_08h15.11.064,uWM_experiment,2022.2.3,59.98616719
,,,,,,,,,,,,,,,,,,,,1,0,1,0,23,0,23,0,,,,,,,,,,,,,,,,,,,,,,,,,,,,,,,,,,,,,,,,,,,,,,,,,,,,,,,,,,,,,,,,,,,,,,0.225,,,,,,,,,,,,,,,,,,,,,,,,,,,,left,0,70,30,100,1,1919.59295,1919.59295,1919.59295,None,None,1,1,0.3242598,,,,,,,,,,,,,,,,,,,1,10,1,2024-10-22_08h15.11.064,uWM_experiment,2022.2.3,59.98616719
,,,,,,,,,,,,,,,,,,,,1,0,1,0,,,,,0,0,0,0,,,,,,,,,,,,,,,,,,,,,,,,,,,,,,,,,,,,,,,,,,,,,,,,,,,,,,,,,,,,,,,,,,,,,,,,,,,,,,,,,,,,,,,,,,,,,,,,,,,,,,,,,,,,1919.942954,1919.942954,space,3.4782023,None,None,,,,,,,,,,,,,1,10,1,2024-10-22_08h15.11.064,uWM_experiment,2022.2.3,59.98616719
,,,,,,,,,,,,,,,,,,,,1,0,1,0,,,,,1,0,1,0,,,,,,,,,,,,,,,,,,,,,,,,,,,,,,,,,,,,,,,,,,,,,,,,,,,,,,,,,,,,,,,,,,,,,,,,,,,,,,,,,,,,,,,,,,,,,,,,,,,,,,,,,,,,,,,,,,,,,,,,,,,,,,1,10,1,2024-10-22_08h15.11.064,uWM_experiment,2022.2.3,59.98616719
,,,,,,,,,,,,,,,,,,,,1,0,1,0,,,,,2,0,2,0,,,,,,,,,,,,,,,,,,,,,,,,,,,,,,,,,,,,,,,,,,,,,,,,,,,,,,,,,,,,,,,,,,,,,,,,,,,,,,,,,,,,,,,,,,,,,,,,,,,,,,,,,,,,,,,,,,,,,,,,,,,,,,1,10,1,2024-10-22_08h15.11.064,uWM_experiment,2022.2.3,59.98616719
,,,,,,,,,,,,,,,,,,,,2,0,2,0,0,0,0,0,,,,,,,,,,,,,,,,,,,,,,,,,,,,,,,,,,,,,,,,,,,,,,,,,,,,,,,,,,,,,,,,,,,,,,0.235,,,,,,,,,,,,,,,,,,,,1923.443101,1924.143139,1924.443149,1925.143173,1925.443198,1926.14322,1926.14322,1926.459907,right,1,130,30,160,1,1930.960089,1930.960089,1930.960089,None,None,3,0,0.4209836,,,,,,,None,,,,,,,,,,,,1,10,1,2024-10-22_08h15.11.064,uWM_experiment,2022.2.3,59.98616719
,,,,,,,,,,,,,,,,,,,,2,0,2,0,1,0,1,0,,,,,,,,,,,,,,,,,,,,,,,,,,,,,,,,,,,,,,,,,,,,,,,,,,,,,,,,,,,,,,,,,,,,,,0.225,,,,,,,,,,,,,,,,,,,,,,,,,,,,left,1,130,-30,100,1,1937.927084,1937.927084,1937.927084,None,None,2,0,0.437972,,,,,,,,,,,,,,,,,,,1,10,1,2024-10-22_08h15.11.064,uWM_experiment,2022.2.3,59.98616719
,,,,,,,,,,,,,,,,,,,,2,0,2,0,2,0,2,0,,,,,,,,,,,,,,,,,,,,,,,,,,,,,,,,,,,,,,,,,,,,,,,,,,,,,,,,,,,,,,,,,,,,,,0,,,,,,,,,,,,,,,,,,,,,,,,,,,,left,1,70,-30,40,0,1943.51066,1943.51066,1943.51066,None,None,1,1,0.2864019,,,,,,,,,,,,,,,,,,,1,10,1,2024-10-22_08h15.11.064,uWM_experiment,2022.2.3,59.98616719
,,,,,,,,,,,,,,,,,,,,2,0,2,0,3,0,3,0,,,,,,,,,,,,,,,,,,,,,,,,,,,,,,,,,,,,,,,,,,,,,,,,,,,,,,,,,,,,,,,,,,,,,,0.215,,,,,,,,,,,,,,,,,,,,,,,,,,,,right,1,40,30,70,1,1949.327595,1949.327595,1949.327595,None,None,3,0,0.4694961,,,,,,,,,,,,,,,,,,,1,10,1,2024-10-22_08h15.11.064,uWM_experiment,2022.2.3,59.98616719
,,,,,,,,,,,,,,,,,,,,2,0,2,0,4,0,4,0,,,,,,,,,,,,,,,,,,,,,,,,,,,,,,,,,,,,,,,,,,,,,,,,,,,,,,,,,,,,,,,,,,,,,,0.205,,,,,,,,,,,,,,,,,,,,,,,,,,,,right,1,10,30,40,1,1955.561193,1955.561193,1955.561193,None,None,3,0,0.2678638,,,,,,,,,,,,,,,,,,,1,10,1,2024-10-22_08h15.11.064,uWM_experiment,2022.2.3,59.98616719
,,,,,,,,,,,,,,,,,,,,2,0,2,0,5,0,5,0,,,,,,,,,,,,,,,,,,,,,,,,,,,,,,,,,,,,,,,,,,,,,,,,,,,,,,,,,,,,,,,,,,,,,,0.195,,,,,,,,,,,,,,,,,,,,,,,,,,,,left,1,160,-30,130,1,1961.328125,1961.328125,1961.328125,None,None,3,0,0.6930913,,,,,,,,,,,,,,,,,,,1,10,1,2024-10-22_08h15.11.064,uWM_experiment,2022.2.3,59.98616719
,,,,,,,,,,,,,,,,,,,,2,0,2,0,6,0,6,0,,,,,,,,,,,,,,,,,,,,,,,,,,,,,,,,,,,,,,,,,,,,,,,,,,,,,,,,,,,,,,,,,,,,,,0.185,,,,,,,,,,,,,,,,,,,,,,,,,,,,right,1,160,30,190,1,1967.628415,1967.628415,1967.628415,None,None,4,0,0.2726747,,,,,,,,,,,,,,,,,,,1,10,1,2024-10-22_08h15.11.064,uWM_experiment,2022.2.3,59.98616719
,,,,,,,,,,,,,,,,,,,,2,0,2,0,7,0,7,0,,,,,,,,,,,,,,,,,,,,,,,,,,,,,,,,,,,,,,,,,,,,,,,,,,,,,,,,,,,,,,,,,,,,,,0.175,,,,,,,,,,,,,,,,,,,,,,,,,,,,left,1,100,-30,70,1,1973.545335,1973.545335,1973.545335,None,None,1,1,0.2439291,,,,,,,,,,,,,,,,,,,1,10,1,2024-10-22_08h15.11.064,uWM_experiment,2022.2.3,59.98616719
,,,,,,,,,,,,,,,,,,,,2,0,2,0,8,0,8,0,,,,,,,,,,,,,,,,,,,,,,,,,,,,,,,,,,,,,,,,,,,,,,,,,,,,,,,,,,,,,,,,,,,,,,0.185,,,,,,,,,,,,,,,,,,,,,,,,,,,,right,1,70,30,100,1,1980.078991,1980.078991,1980.078991,None,None,3,0,0.5741634,,,,,,,,,,,,,,,,,,,1,10,1,2024-10-22_08h15.11.064,uWM_experiment,2022.2.3,59.98616719
,,,,,,,,,,,,,,,,,,,,2,0,2,0,9,0,9,0,,,,,,,,,,,,,,,,,,,,,,,,,,,,,,,,,,,,,,,,,,,,,,,,,,,,,,,,,,,,,,,,,,,,,,0.175,,,,,,,,,,,,,,,,,,,,,,,,,,,,left,0,70,30,100,1,1986.995972,1986.995972,1986.995972,None,None,2,0,0.2812441,,,,,,,,,,,,,,,,,,,1,10,1,2024-10-22_08h15.11.064,uWM_experiment,2022.2.3,59.98616719
,,,,,,,,,,,,,,,,,,,,2,0,2,0,10,0,10,0,,,,,,,,,,,,,,,,,,,,,,,,,,,,,,,,,,,,,,,,,,,,,,,,,,,,,,,,,,,,,,,,,,,,,,0.165,,,,,,,,,,,,,,,,,,,,,,,,,,,,right,1,10,30,40,1,1992.679526,1992.679526,1992.679526,None,None,3,0,0.6535841,,,,,,,,,,,,,,,,,,,1,10,1,2024-10-22_08h15.11.064,uWM_experiment,2022.2.3,59.98616719
,,,,,,,,,,,,,,,,,,,,2,0,2,0,11,0,11,0,,,,,,,,,,,,,,,,,,,,,,,,,,,,,,,,,,,,,,,,,,,,,,,,,,,,,,,,,,,,,,,,,,,,,,0.155,,,,,,,,,,,,,,,,,,,,,,,,,,,,left,0,100,30,130,1,1998.51313,1998.51313,1998.51313,None,None,1,1,0.2120941,,,,,,,,,,,,,,,,,,,1,10,1,2024-10-22_08h15.11.064,uWM_experiment,2022.2.3,59.98616719
,,,,,,,,,,,,,,,,,,,,2,0,2,0,12,0,12,0,,,,,,,,,,,,,,,,,,,,,,,,,,,,,,,,,,,,,,,,,,,,,,,,,,,,,,,,,,,,,,,,,,,,,,0.165,,,,,,,,,,,,,,,,,,,,,,,,,,,,left,1,40,-30,10,1,2004.013384,2004.013384,2004.013384,None,None,1,1,0.2637709,,,,,,,,,,,,,,,,,,,1,10,1,2024-10-22_08h15.11.064,uWM_experiment,2022.2.3,59.98616719
,,,,,,,,,,,,,,,,,,,,2,0,2,0,13,0,13,0,,,,,,,,,,,,,,,,,,,,,,,,,,,,,,,,,,,,,,,,,,,,,,,,,,,,,,,,,,,,,,,,,,,,,,0.175,,,,,,,,,,,,,,,,,,,,,,,,,,,,right,1,160,30,190,1,2009.797002,2009.797002,2009.797002,None,None,3,0,0.3762415,,,,,,,,,,,,,,,,,,,1,10,1,2024-10-22_08h15.11.064,uWM_experiment,2022.2.3,59.98616719
,,,,,,,,,,,,,,,,,,,,2,0,2,0,14,0,14,0,,,,,,,,,,,,,,,,,,,,,,,,,,,,,,,,,,,,,,,,,,,,,,,,,,,,,,,,,,,,,,,,,,,,,,0.165,,,,,,,,,,,,,,,,,,,,,,,,,,,,left,1,100,-30,70,1,2015.3139,2015.3139,2015.3139,None,None,1,1,0.267174,,,,,,,,,,,,,,,,,,,1,10,1,2024-10-22_08h15.11.064,uWM_experiment,2022.2.3,59.98616719
,,,,,,,,,,,,,,,,,,,,2,0,2,0,15,0,15,0,,,,,,,,,,,,,,,,,,,,,,,,,,,,,,,,,,,,,,,,,,,,,,,,,,,,,,,,,,,,,,,,,,,,,,0.175,,,,,,,,,,,,,,,,,,,,,,,,,,,,right,1,70,30,100,1,2021.214157,2021.214157,2021.214157,None,None,3,0,0.3271181,,,,,,,,,,,,,,,,,,,1,10,1,2024-10-22_08h15.11.064,uWM_experiment,2022.2.3,59.98616719
,,,,,,,,,,,,,,,,,,,,2,0,2,0,16,0,16,0,,,,,,,,,,,,,,,,,,,,,,,,,,,,,,,,,,,,,,,,,,,,,,,,,,,,,,,,,,,,,,,,,,,,,,0.165,,,,,,,,,,,,,,,,,,,,,,,,,,,,left,1,10,-30,-20,1,2027.247743,2027.247743,2027.247743,None,None,2,0,0.2693746,,,,,,,,,,,,,,,,,,,1,10,1,2024-10-22_08h15.11.064,uWM_experiment,2022.2.3,59.98616719
,,,,,,,,,,,,,,,,,,,,2,0,2,0,17,0,17,0,,,,,,,,,,,,,,,,,,,,,,,,,,,,,,,,,,,,,,,,,,,,,,,,,,,,,,,,,,,,,,,,,,,,,,0.155,,,,,,,,,,,,,,,,,,,,,,,,,,,,right,1,100,30,130,1,2033.19805,2033.19805,2033.19805,None,None,3,0,0.3431673,,,,,,,,,,,,,,,,,,,1,10,1,2024-10-22_08h15.11.064,uWM_experiment,2022.2.3,59.98616719
,,,,,,,,,,,,,,,,,,,,2,0,2,0,18,0,18,0,,,,,,,,,,,,,,,,,,,,,,,,,,,,,,,,,,,,,,,,,,,,,,,,,,,,,,,,,,,,,,,,,,,,,,0,,,,,,,,,,,,,,,,,,,,,,,,,,,,left,1,10,-30,-20,0,2039.031601,2039.031601,2039.031601,None,None,1,1,0.2534919,,,,,,,,,,,,,,,,,,,1,10,1,2024-10-22_08h15.11.064,uWM_experiment,2022.2.3,59.98616719
,,,,,,,,,,,,,,,,,,,,2,0,2,0,19,0,19,0,,,,,,,,,,,,,,,,,,,,,,,,,,,,,,,,,,,,,,,,,,,,,,,,,,,,,,,,,,,,,,,,,,,,,,0.145,,,,,,,,,,,,,,,,,,,,,,,,,,,,right,1,40,30,70,1,2044.831891,2044.831891,2044.831891,None,None,3,0,0.4613565,,,,,,,,,,,,,,,,,,,1,10,1,2024-10-22_08h15.11.064,uWM_experiment,2022.2.3,59.98616719
,,,,,,,,,,,,,,,,,,,,2,0,2,0,20,0,20,0,,,,,,,,,,,,,,,,,,,,,,,,,,,,,,,,,,,,,,,,,,,,,,,,,,,,,,,,,,,,,,,,,,,,,,0.135,,,,,,,,,,,,,,,,,,,,,,,,,,,,right,1,40,30,70,1,2050.948797,2050.948797,2050.948797,None,None,3,0,0.288447,,,,,,,,,,,,,,,,,,,1,10,1,2024-10-22_08h15.11.064,uWM_experiment,2022.2.3,59.98616719
,,,,,,,,,,,,,,,,,,,,2,0,2,0,21,0,21,0,,,,,,,,,,,,,,,,,,,,,,,,,,,,,,,,,,,,,,,,,,,,,,,,,,,,,,,,,,,,,,,,,,,,,,0.125,,,,,,,,,,,,,,,,,,,,,,,,,,,,left,0,130,30,160,1,2056.399048,2056.399048,2056.399048,None,None,1,1,0.2540757,,,,,,,,,,,,,,,,,,,1,10,1,2024-10-22_08h15.11.064,uWM_experiment,2022.2.3,59.98616719
,,,,,,,,,,,,,,,,,,,,2,0,2,0,22,0,22,0,,,,,,,,,,,,,,,,,,,,,,,,,,,,,,,,,,,,,,,,,,,,,,,,,,,,,,,,,,,,,,,,,,,,,,0.135,,,,,,,,,,,,,,,,,,,,,,,,,,,,left,1,40,-30,10,1,2062.43265,2062.43265,2062.43265,None,None,3,0,0.9646174,,,,,,,,,,,,,,,,,,,1,10,1,2024-10-22_08h15.11.064,uWM_experiment,2022.2.3,59.98616719
,,,,,,,,,,,,,,,,,,,,2,0,2,0,23,0,23,0,,,,,,,,,,,,,,,,,,,,,,,,,,,,,,,,,,,,,,,,,,,,,,,,,,,,,,,,,,,,,,,,,,,,,,0.125,,,,,,,,,,,,,,,,,,,,,,,,,,,,right,1,40,30,70,1,2068.916277,2068.916277,2068.916277,None,None,3,0,0.3289048,,,,,,,,,,,,,,,,,,,1,10,1,2024-10-22_08h15.11.064,uWM_experiment,2022.2.3,59.98616719
,,,,,,,,,,,,,,,,,,,,2,0,2,0,,,,,0,0,0,0,,,,,,,,,,,,,,,,,,,,,,,,,,,,,,,,,,,,,,,,,,,,,,,,,,,,,,,,,,,,,,,,,,,,,,,,,,,,,,,,,,,,,,,,,,,,,,,,,,,,,,,,,,,,2069.26626,2069.26626,space,0.995002,space,None,,2070.283005,2070.283005,8.5062171,,,,,,,,,1,10,1,2024-10-22_08h15.11.064,uWM_experiment,2022.2.3,59.98616719
,,,,,,,,,,,,,,,,,,,,2,0,2,0,,,,,1,0,1,0,,,,,,,,,,,,,,,,,,,,,,,,,,,,,,,,,,,,,,,,,,,,,,,,,,,,,,,,,,,,,,,,,,,,,,,,,,,,,,,,,,,,,,,,,,,,,,,,,,,,,,,,,,,,,,,,,,,,,,,,,,,,,,1,10,1,2024-10-22_08h15.11.064,uWM_experiment,2022.2.3,59.98616719
,,,,,,,,,,,,,,,,,,,,2,0,2,0,,,,,2,0,2,0,,,,,,,,,,,,,,,,,,,,,,,,,,,,,,,,,,,,,,,,,,,,,,,,,,,,,,,,,,,,,,,,,,,,,,,,,,,,,,,,,,,,,,,,,,,,,,,,,,,,,,,,,,,,,,,,,,,,,,,,,,,,,,1,10,1,2024-10-22_08h15.11.064,uWM_experiment,2022.2.3,59.98616719
,,,,,,,,,,,,,,,,,,,,3,0,3,0,0,0,0,0,,,,,,,,,,,,,,,,,,,,,,,,,,,,,,,,,,,,,,,,,,,,,,,,,,,,,,,,,,,,,,,,,,,,,,0,,,,,,,,,,,,,,,,,,,,2078.81672,2079.516745,2079.816777,2080.516794,2080.816809,2081.516837,2081.516837,2081.833526,left,0,70,30,100,0,2085.983704,2085.983704,2085.983704,None,None,1,1,0.3094596,,,,,,,None,,,,,,,,,,,,1,10,1,2024-10-22_08h15.11.064,uWM_experiment,2022.2.3,59.98616719
,,,,,,,,,,,,,,,,,,,,3,0,3,0,1,0,1,0,,,,,,,,,,,,,,,,,,,,,,,,,,,,,,,,,,,,,,,,,,,,,,,,,,,,,,,,,,,,,,,,,,,,,,0,,,,,,,,,,,,,,,,,,,,,,,,,,,,left,1,130,-30,100,0,2091.900659,2091.900659,2091.900659,None,None,1,1,0.2646358,,,,,,,,,,,,,,,,,,,1,10,1,2024-10-22_08h15.11.064,uWM_experiment,2022.2.3,59.98616719
,,,,,,,,,,,,,,,,,,,,3,0,3,0,2,0,2,0,,,,,,,,,,,,,,,,,,,,,,,,,,,,,,,,,,,,,,,,,,,,,,,,,,,,,,,,,,,,,,,,,,,,,,0.115,,,,,,,,,,,,,,,,,,,,,,,,,,,,left,0,100,30,130,1,2097.917576,2097.917576,2097.917576,None,None,2,0,0.5675785,,,,,,,,,,,,,,,,,,,1,10,1,2024-10-22_08h15.11.064,uWM_experiment,2022.2.3,59.98616719
,,,,,,,,,,,,,,,,,,,,3,0,3,0,3,0,3,0,,,,,,,,,,,,,,,,,,,,,,,,,,,,,,,,,,,,,,,,,,,,,,,,,,,,,,,,,,,,,,,,,,,,,,0.105,,,,,,,,,,,,,,,,,,,,,,,,,,,,right,1,10,30,40,1,2103.817833,2103.817833,2103.817833,None,None,4,0,0.3474301,,,,,,,,,,,,,,,,,,,1,10,1,2024-10-22_08h15.11.064,uWM_experiment,2022.2.3,59.98616719
,,,,,,,,,,,,,,,,,,,,3,0,3,0,4,0,4,0,,,,,,,,,,,,,,,,,,,,,,,,,,,,,,,,,,,,,,,,,,,,,,,,,,,,,,,,,,,,,,,,,,,,,,0.095,,,,,,,,,,,,,,,,,,,,,,,,,,,,right,1,130,30,160,1,2109.76813,2109.76813,2109.76813,None,None,2,0,0.5492188,,,,,,,,,,,,,,,,,,,1,10,1,2024-10-22_08h15.11.064,uWM_experiment,2022.2.3,59.98616719
,,,,,,,,,,,,,,,,,,,,3,0,3,0,5,0,5,0,,,,,,,,,,,,,,,,,,,,,,,,,,,,,,,,,,,,,,,,,,,,,,,,,,,,,,,,,,,,,,,,,,,,,,0,,,,,,,,,,,,,,,,,,,,,,,,,,,,left,0,40,30,70,0,2115.901703,2115.901703,2115.901703,None,None,1,1,0.3915551,,,,,,,,,,,,,,,,,,,1,10,1,2024-10-22_08h15.11.064,uWM_experiment,2022.2.3,59.98616719
,,,,,,,,,,,,,,,,,,,,3,0,3,0,6,0,6,0,,,,,,,,,,,,,,,,,,,,,,,,,,,,,,,,,,,,,,,,,,,,,,,,,,,,,,,,,,,,,,,,,,,,,,0,,,,,,,,,,,,,,,,,,,,,,,,,,,,left,1,160,-30,130,0,2121.785355,2121.785355,2121.785355,None,None,1,1,0.2599503,,,,,,,,,,,,,,,,,,,1,10,1,2024-10-22_08h15.11.064,uWM_experiment,2022.2.3,59.98616719
,,,,,,,,,,,,,,,,,,,,3,0,3,0,7,0,7,0,,,,,,,,,,,,,,,,,,,,,,,,,,,,,,,,,,,,,,,,,,,,,,,,,,,,,,,,,,,,,,,,,,,,,,0,,,,,,,,,,,,,,,,,,,,,,,,,,,,right,1,160,30,190,0,2127.468906,2127.468906,2127.468906,None,None,1,1,0.2722801,,,,,,,,,,,,,,,,,,,1,10,1,2024-10-22_08h15.11.064,uWM_experiment,2022.2.3,59.98616719
,,,,,,,,,,,,,,,,,,,,3,0,3,0,8,0,8,0,,,,,,,,,,,,,,,,,,,,,,,,,,,,,,,,,,,,,,,,,,,,,,,,,,,,,,,,,,,,,,,,,,,,,,0.085,,,,,,,,,,,,,,,,,,,,,,,,,,,,left,1,160,-30,130,1,2133.269177,2133.269177,2133.269177,None,None,2,0,0.5680121,,,,,,,,,,,,,,,,,,,1,10,1,2024-10-22_08h15.11.064,uWM_experiment,2022.2.3,59.98616719
,,,,,,,,,,,,,,,,,,,,3,0,3,0,9,0,9,0,,,,,,,,,,,,,,,,,,,,,,,,,,,,,,,,,,,,,,,,,,,,,,,,,,,,,,,,,,,,,,,,,,,,,,0.075,,,,,,,,,,,,,,,,,,,,,,,,,,,,left,0,100,30,130,1,2139.086065,2139.086065,2139.086065,None,None,1,1,0.2631609,,,,,,,,,,,,,,,,,,,1,10,1,2024-10-22_08h15.11.064,uWM_experiment,2022.2.3,59.98616719
,,,,,,,,,,,,,,,,,,,,3,0,3,0,10,0,10,0,,,,,,,,,,,,,,,,,,,,,,,,,,,,,,,,,,,,,,,,,,,,,,,,,,,,,,,,,,,,,,,,,,,,,,0.085,,,,,,,,,,,,,,,,,,,,,,,,,,,,left,0,70,30,100,1,2144.519668,2144.519668,2144.519668,None,None,1,1,0.2295539,,,,,,,,,,,,,,,,,,,1,10,1,2024-10-22_08h15.11.064,uWM_experiment,2022.2.3,59.98616719
,,,,,,,,,,,,,,,,,,,,3,0,3,0,11,0,11,0,,,,,,,,,,,,,,,,,,,,,,,,,,,,,,,,,,,,,,,,,,,,,,,,,,,,,,,,,,,,,,,,,,,,,,0.1,,,,,,,,,,,,,,,,,,,,,,,,,,,,right,1,130,30,160,2,2150.603251,2150.603251,2150.603251,None,None,4,0,0.3940219,,,,,,,,,,,,,,,,,,,1,10,1,2024-10-22_08h15.11.064,uWM_experiment,2022.2.3,59.98616719
,,,,,,,,,,,,,,,,,,,,3,0,3,0,12,0,12,0,,,,,,,,,,,,,,,,,,,,,,,,,,,,,,,,,,,,,,,,,,,,,,,,,,,,,,,,,,,,,,,,,,,,,,0.095,,,,,,,,,,,,,,,,,,,,,,,,,,,,left,1,10,-30,-20,1,2156.436844,2156.436844,2156.436844,None,None,3,0,0.456511,,,,,,,,,,,,,,,,,,,1,10,1,2024-10-22_08h15.11.064,uWM_experiment,2022.2.3,59.98616719
,,,,,,,,,,,,,,,,,,,,3,0,3,0,13,0,13,0,,,,,,,,,,,,,,,,,,,,,,,,,,,,,,,,,,,,,,,,,,,,,,,,,,,,,,,,,,,,,,,,,,,,,,0,,,,,,,,,,,,,,,,,,,,,,,,,,,,left,0,70,30,100,0,2162.303789,2162.303789,2162.303789,None,None,2,0,1.2373778,,,,,,,,,,,,,,,,,,,1,10,1,2024-10-22_08h15.11.064,uWM_experiment,2022.2.3,59.98616719
,,,,,,,,,,,,,,,,,,,,3,0,3,0,14,0,14,0,,,,,,,,,,,,,,,,,,,,,,,,,,,,,,,,,,,,,,,,,,,,,,,,,,,,,,,,,,,,,,,,,,,,,,0.085,,,,,,,,,,,,,,,,,,,,,,,,,,,,left,1,70,-30,40,1,2168.70408,2168.70408,2168.70408,None,None,1,1,0.2690848,,,,,,,,,,,,,,,,,,,1,10,1,2024-10-22_08h15.11.064,uWM_experiment,2022.2.3,59.98616719
,,,,,,,,,,,,,,,,,,,,3,0,3,0,15,0,15,0,,,,,,,,,,,,,,,,,,,,,,,,,,,,,,,,,,,,,,,,,,,,,,,,,,,,,,,,,,,,,,,,,,,,,,0.095,,,,,,,,,,,,,,,,,,,,,,,,,,,,right,1,40,30,70,1,2174.554348,2174.554348,2174.554348,None,None,2,0,0.2748539,,,,,,,,,,,,,,,,,,,1,10,1,2024-10-22_08h15.11.064,uWM_experiment,2022.2.3,59.98616719
,,,,,,,,,,,,,,,,,,,,3,0,3,0,16,0,16,0,,,,,,,,,,,,,,,,,,,,,,,,,,,,,,,,,,,,,,,,,,,,,,,,,,,,,,,,,,,,,,,,,,,,,,0.085,,,,,,,,,,,,,,,,,,,,,,,,,,,,left,1,40,-30,10,1,2180.204642,2180.204642,2180.204642,None,None,1,1,0.2726281,,,,,,,,,,,,,,,,,,,1,10,1,2024-10-22_08h15.11.064,uWM_experiment,2022.2.3,59.98616719
,,,,,,,,,,,,,,,,,,,,3,0,3,0,17,0,17,0,,,,,,,,,,,,,,,,,,,,,,,,,,,,,,,,,,,,,,,,,,,,,,,,,,,,,,,,,,,,,,,,,,,,,,0.095,,,,,,,,,,,,,,,,,,,,,,,,,,,,left,1,160,-30,130,1,2186.071503,2186.071503,2186.071503,None,None,2,0,0.3898434,,,,,,,,,,,,,,,,,,,1,10,1,2024-10-22_08h15.11.064,uWM_experiment,2022.2.3,59.98616719
,,,,,,,,,,,,,,,,,,,,3,0,3,0,18,0,18,0,,,,,,,,,,,,,,,,,,,,,,,,,,,,,,,,,,,,,,,,,,,,,,,,,,,,,,,,,,,,,,,,,,,,,,0.085,,,,,,,,,,,,,,,,,,,,,,,,,,,,left,1,10,-30,-20,1,2191.855122,2191.855122,2191.855122,None,None,1,1,0.222004,,,,,,,,,,,,,,,,,,,1,10,1,2024-10-22_08h15.11.064,uWM_experiment,2022.2.3,59.98616719
,,,,,,,,,,,,,,,,,,,,3,0,3,0,19,0,19,0,,,,,,,,,,,,,,,,,,,,,,,,,,,,,,,,,,,,,,,,,,,,,,,,,,,,,,,,,,,,,,,,,,,,,,0,,,,,,,,,,,,,,,,,,,,,,,,,,,,left,0,40,30,70,0,2197.388679,2197.388679,2197.388679,None,None,1,1,0.2165927,,,,,,,,,,,,,,,,,,,1,10,1,2024-10-22_08h15.11.064,uWM_experiment,2022.2.3,59.98616719
,,,,,,,,,,,,,,,,,,,,3,0,3,0,20,0,20,0,,,,,,,,,,,,,,,,,,,,,,,,,,,,,,,,,,,,,,,,,,,,,,,,,,,,,,,,,,,,,,,,,,,,,,0,,,,,,,,,,,,,,,,,,,,,,,,,,,,left,1,130,-30,100,0,2202.755585,2202.755585,2202.755585,None,None,1,1,0.2016424,,,,,,,,,,,,,,,,,,,1,10,1,2024-10-22_08h15.11.064,uWM_experiment,2022.2.3,59.98616719
,,,,,,,,,,,,,,,,,,,,3,0,3,0,21,0,21,0,,,,,,,,,,,,,,,,,,,,,,,,,,,,,,,,,,,,,,,,,,,,,,,,,,,,,,,,,,,,,,,,,,,,,,0.095,,,,,,,,,,,,,,,,,,,,,,,,,,,,left,1,160,-30,130,1,2208.53918,2208.53918,2208.53918,None,None,3,0,0.2981051,,,,,,,,,,,,,,,,,,,1,10,1,2024-10-22_08h15.11.064,uWM_experiment,2022.2.3,59.98616719
,,,,,,,,,,,,,,,,,,,,3,0,3,0,22,0,22,0,,,,,,,,,,,,,,,,,,,,,,,,,,,,,,,,,,,,,,,,,,,,,,,,,,,,,,,,,,,,,,,,,,,,,,0.085,,,,,,,,,,,,,,,,,,,,,,,,,,,,left,1,160,-30,130,1,2214.006099,2214.006099,2214.006099,None,None,1,1,0.2710904,,,,,,,,,,,,,,,,,,,1,10,1,2024-10-22_08h15.11.064,uWM_experiment,2022.2.3,59.98616719
,,,,,,,,,,,,,,,,,,,,3,0,3,0,23,0,23,0,,,,,,,,,,,,,,,,,,,,,,,,,,,,,,,,,,,,,,,,,,,,,,,,,,,,,,,,,,,,,,,,,,,,,,0.095,,,,,,,,,,,,,,,,,,,,,,,,,,,,left,1,70,-30,40,1,2220.039727,2220.039727,2220.039727,None,None,2,0,0.4215078,,,,,,,,,,,,,,,,,,,1,10,1,2024-10-22_08h15.11.064,uWM_experiment,2022.2.3,59.98616719
,,,,,,,,,,,,,,,,,,,,3,0,3,0,,,,,0,0,0,0,,,,,,,,,,,,,,,,,,,,,,,,,,,,,,,,,,,,,,,,,,,,,,,,,,,,,,,,,,,,,,,,,,,,,,,,,,,,,,,,,,,,,,,,,,,,,,,,,,,,,,,,,,,,2220.4897,2220.4897,space,36.5157061,None,None,,,,,,,,,,,,,1,10,1,2024-10-22_08h15.11.064,uWM_experiment,2022.2.3,59.98616719
,,,,,,,,,,,,,,,,,,,,3,0,3,0,,,,,1,0,1,0,,,,,,,,,,,,,,,,,,,,,,,,,,,,,,,,,,,,,,,,,,,,,,,,,,,,,,,,,,,,,,,,,,,,,,,,,,,,,,,,,,,,,,,,,,,,,,,,,,,,,,,,,,,,,,,,,,,,,,,,,,,,,,1,10,1,2024-10-22_08h15.11.064,uWM_experiment,2022.2.3,59.98616719
,,,,,,,,,,,,,,,,,,,,3,0,3,0,,,,,2,0,2,0,,,,,,,,,,,,,,,,,,,,,,,,,,,,,,,,,,,,,,,,,,,,,,,,,,,,,,,,,,,,,,,,,,,,,,,,,,,,,,,,,,,,,,,,,,,,,,,,,,,,,,,,,,,,,,,,,,,,,,,,,,,,,,1,10,1,2024-10-22_08h15.11.064,uWM_experiment,2022.2.3,59.98616719
,,,,,,,,,,,,,,,,,,,,4,0,4,0,0,0,0,0,,,,,,,,,,,,,,,,,,,,,,,,,,,,,,,,,,,,,,,,,,,,,,,,,,,,,,,,,,,,,,,,,,,,,,0,,,,,,,,,,,,,,,,,,,,2257.024712,2257.724715,2258.02473,2258.724764,2259.024782,2259.724811,2259.724811,2260.041486,left,1,40,-30,10,0,2264.225012,2264.225012,2264.225012,None,None,1,1,0.2362127,,,,,,,None,,,,,,,,,,,,1,10,1,2024-10-22_08h15.11.064,uWM_experiment,2022.2.3,59.98616719
,,,,,,,,,,,,,,,,,,,,4,0,4,0,1,0,1,0,,,,,,,,,,,,,,,,,,,,,,,,,,,,,,,,,,,,,,,,,,,,,,,,,,,,,,,,,,,,,,,,,,,,,,0.1,,,,,,,,,,,,,,,,,,,,,,,,,,,,left,1,160,-30,130,2,2270.308599,2270.308599,2270.308599,None,None,4,0,0.3366238,,,,,,,,,,,,,,,,,,,1,10,1,2024-10-22_08h15.11.064,uWM_experiment,2022.2.3,59.98616719
,,,,,,,,,,,,,,,,,,,,4,0,4,0,2,0,2,0,,,,,,,,,,,,,,,,,,,,,,,,,,,,,,,,,,,,,,,,,,,,,,,,,,,,,,,,,,,,,,,,,,,,,,0.085,,,,,,,,,,,,,,,,,,,,,,,,,,,,left,1,40,-30,10,1,2275.875531,2275.875531,2275.875531,None,None,1,1,0.2417682,,,,,,,,,,,,,,,,,,,1,10,1,2024-10-22_08h15.11.064,uWM_experiment,2022.2.3,59.98616719
,,,,,,,,,,,,,,,,,,,,4,0,4,0,3,0,3,0,,,,,,,,,,,,,,,,,,,,,,,,,,,,,,,,,,,,,,,,,,,,,,,,,,,,,,,,,,,,,,,,,,,,,,0.095,,,,,,,,,,,,,,,,,,,,,,,,,,,,right,1,160,30,190,1,2281.559114,2281.559114,2281.559114,None,None,3,0,0.1981619,,,,,,,,,,,,,,,,,,,1,10,1,2024-10-22_08h15.11.064,uWM_experiment,2022.2.3,59.98616719
,,,,,,,,,,,,,,,,,,,,4,0,4,0,4,0,4,0,,,,,,,,,,,,,,,,,,,,,,,,,,,,,,,,,,,,,,,,,,,,,,,,,,,,,,,,,,,,,,,,,,,,,,0.085,,,,,,,,,,,,,,,,,,,,,,,,,,,,left,1,130,-30,100,1,2286.892687,2286.892687,2286.892687,None,None,2,0,0.1925649,,,,,,,,,,,,,,,,,,,1,10,1,2024-10-22_08h15.11.064,uWM_experiment,2022.2.3,59.98616719
,,,,,,,,,,,,,,,,,,,,4,0,4,0,5,0,5,0,,,,,,,,,,,,,,,,,,,,,,,,,,,,,,,,,,,,,,,,,,,,,,,,,,,,,,,,,,,,,,,,,,,,,,0,,,,,,,,,,,,,,,,,,,,,,,,,,,,left,1,70,-30,40,0,2292.476253,2292.476253,2292.476253,None,None,1,1,0.2411,,,,,,,,,,,,,,,,,,,1,10,1,2024-10-22_08h15.11.064,uWM_experiment,2022.2.3,59.98616719
,,,,,,,,,,,,,,,,,,,,4,0,4,0,6,0,6,0,,,,,,,,,,,,,,,,,,,,,,,,,,,,,,,,,,,,,,,,,,,,,,,,,,,,,,,,,,,,,,,,,,,,,,0,,,,,,,,,,,,,,,,,,,,,,,,,,,,left,1,70,-30,40,0,2297.893202,2297.893202,2297.893202,None,None,1,1,0.2320759,,,,,,,,,,,,,,,,,,,1,10,1,2024-10-22_08h15.11.064,uWM_experiment,2022.2.3,59.98616719
,,,,,,,,,,,,,,,,,,,,4,0,4,0,7,0,7,0,,,,,,,,,,,,,,,,,,,,,,,,,,,,,,,,,,,,,,,,,,,,,,,,,,,,,,,,,,,,,,,,,,,,,,0,,,,,,,,,,,,,,,,,,,,,,,,,,,,right,0,40,-30,10,0,2303.810139,2303.810139,2303.810139,None,None,1,1,0.2350922,,,,,,,,,,,,,,,,,,,1,10,1,2024-10-22_08h15.11.064,uWM_experiment,2022.2.3,59.98616719
,,,,,,,,,,,,,,,,,,,,4,0,4,0,8,0,8,0,,,,,,,,,,,,,,,,,,,,,,,,,,,,,,,,,,,,,,,,,,,,,,,,,,,,,,,,,,,,,,,,,,,,,,0.075,,,,,,,,,,,,,,,,,,,,,,,,,,,,right,0,70,-30,40,1,2309.577035,2309.577035,2309.577035,None,None,3,0,0.3962455,,,,,,,,,,,,,,,,,,,1,10,1,2024-10-22_08h15.11.064,uWM_experiment,2022.2.3,59.98616719
,,,,,,,,,,,,,,,,,,,,4,0,4,0,9,0,9,0,,,,,,,,,,,,,,,,,,,,,,,,,,,,,,,,,,,,,,,,,,,,,,,,,,,,,,,,,,,,,,,,,,,,,,0.1,,,,,,,,,,,,,,,,,,,,,,,,,,,,left,1,10,-30,-20,2,2316.077319,2316.077319,2316.077319,None,None,4,0,0.3199667,,,,,,,,,,,,,,,,,,,1,10,1,2024-10-22_08h15.11.064,uWM_experiment,2022.2.3,59.98616719
,,,,,,,,,,,,,,,,,,,,4,0,4,0,10,0,10,0,,,,,,,,,,,,,,,,,,,,,,,,,,,,,,,,,,,,,,,,,,,,,,,,,,,,,,,,,,,,,,,,,,,,,,0.065,,,,,,,,,,,,,,,,,,,,,,,,,,,,left,1,40,-30,10,1,2321.94427,2321.94427,2321.94427,None,None,1,1,0.2771659,,,,,,,,,,,,,,,,,,,1,10,1,2024-10-22_08h15.11.064,uWM_experiment,2022.2.3,59.98616719
,,,,,,,,,,,,,,,,,,,,4,0,4,0,11,0,11,0,,,,,,,,,,,,,,,,,,,,,,,,,,,,,,,,,,,,,,,,,,,,,,,,,,,,,,,,,,,,,,,,,,,,,,0.075,,,,,,,,,,,,,,,,,,,,,,,,,,,,right,1,160,30,190,1,2327.644503,2327.644503,2327.644503,None,None,3,0,0.3527744,,,,,,,,,,,,,,,,,,,1,10,1,2024-10-22_08h15.11.064,uWM_experiment,2022.2.3,59.98616719
,,,,,,,,,,,,,,,,,,,,4,0,4,0,12,0,12,0,,,,,,,,,,,,,,,,,,,,,,,,,,,,,,,,,,,,,,,,,,,,,,,,,,,,,,,,,,,,,,,,,,,,,,0.065,,,,,,,,,,,,,,,,,,,,,,,,,,,,left,1,160,-30,130,1,2333.76147,2333.76147,2333.76147,None,None,2,0,0.4358123,,,,,,,,,,,,,,,,,,,1,10,1,2024-10-22_08h15.11.064,uWM_experiment,2022.2.3,59.98616719
,,,,,,,,,,,,,,,,,,,,4,0,4,0,13,0,13,0,,,,,,,,,,,,,,,,,,,,,,,,,,,,,,,,,,,,,,,,,,,,,,,,,,,,,,,,,,,,,,,,,,,,,,0.055,,,,,,,,,,,,,,,,,,,,,,,,,,,,left,0,10,30,40,1,2339.478365,2339.478365,2339.478365,None,None,1,1,0.2789742,,,,,,,,,,,,,,,,,,,1,10,1,2024-10-22_08h15.11.064,uWM_experiment,2022.2.3,59.98616719
,,,,,,,,,,,,,,,,,,,,4,0,4,0,14,0,14,0,,,,,,,,,,,,,,,,,,,,,,,,,,,,,,,,,,,,,,,,,,,,,,,,,,,,,,,,,,,,,,,,,,,,,,0,,,,,,,,,,,,,,,,,,,,,,,,,,,,left,1,160,-30,130,0,2345.328623,2345.328623,2345.328623,None,None,1,1,0.3006709,,,,,,,,,,,,,,,,,,,1,10,1,2024-10-22_08h15.11.064,uWM_experiment,2022.2.3,59.98616719
,,,,,,,,,,,,,,,,,,,,4,0,4,0,15,0,15,0,,,,,,,,,,,,,,,,,,,,,,,,,,,,,,,,,,,,,,,,,,,,,,,,,,,,,,,,,,,,,,,,,,,,,,0,,,,,,,,,,,,,,,,,,,,,,,,,,,,left,0,70,30,100,0,2350.862239,2350.862239,2350.862239,None,None,1,1,0.2950758,,,,,,,,,,,,,,,,,,,1,10,1,2024-10-22_08h15.11.064,uWM_experiment,2022.2.3,59.98616719
,,,,,,,,,,,,,,,,,,,,4,0,4,0,16,0,16,0,,,,,,,,,,,,,,,,,,,,,,,,,,,,,,,,,,,,,,,,,,,,,,,,,,,,,,,,,,,,,,,,,,,,,,0,,,,,,,,,,,,,,,,,,,,,,,,,,,,left,1,100,-30,70,0,2356.312463,2356.312463,2356.312463,None,None,1,1,0.2928436,,,,,,,,,,,,,,,,,,,1,10,1,2024-10-22_08h15.11.064,uWM_experiment,2022.2.3,59.98616719
,,,,,,,,,,,,,,,,,,,,4,0,4,0,17,0,17,0,,,,,,,,,,,,,,,,,,,,,,,,,,,,,,,,,,,,,,,,,,,,,,,,,,,,,,,,,,,,,,,,,,,,,,0.065,,,,,,,,,,,,,,,,,,,,,,,,,,,,left,1,10,-30,-20,1,2361.762685,2361.762685,2361.762685,None,None,1,1,0.282657,,,,,,,,,,,,,,,,,,,1,10,1,2024-10-22_08h15.11.064,uWM_experiment,2022.2.3,59.98616719
,,,,,,,,,,,,,,,,,,,,4,0,4,0,18,0,18,0,,,,,,,,,,,,,,,,,,,,,,,,,,,,,,,,,,,,,,,,,,,,,,,,,,,,,,,,,,,,,,,,,,,,,,0.075,,,,,,,,,,,,,,,,,,,,,,,,,,,,left,1,160,-30,130,1,2367.546316,2367.546316,2367.546316,None,None,3,0,0.44302,,,,,,,,,,,,,,,,,,,1,10,1,2024-10-22_08h15.11.064,uWM_experiment,2022.2.3,59.98616719
,,,,,,,,,,,,,,,,,,,,4,0,4,0,19,0,19,0,,,,,,,,,,,,,,,,,,,,,,,,,,,,,,,,,,,,,,,,,,,,,,,,,,,,,,,,,,,,,,,,,,,,,,0.065,,,,,,,,,,,,,,,,,,,,,,,,,,,,left,0,160,30,190,1,2373.146573,2373.146573,2373.146573,None,None,1,1,0.2347193,,,,,,,,,,,,,,,,,,,1,10,1,2024-10-22_08h15.11.064,uWM_experiment,2022.2.3,59.98616719
,,,,,,,,,,,,,,,,,,,,4,0,4,0,20,0,20,0,,,,,,,,,,,,,,,,,,,,,,,,,,,,,,,,,,,,,,,,,,,,,,,,,,,,,,,,,,,,,,,,,,,,,,0,,,,,,,,,,,,,,,,,,,,,,,,,,,,left,0,100,30,130,0,2378.546776,2378.546776,2378.546776,None,None,1,1,0.3305963,,,,,,,,,,,,,,,,,,,1,10,1,2024-10-22_08h15.11.064,uWM_experiment,2022.2.3,59.98616719
,,,,,,,,,,,,,,,,,,,,4,0,4,0,21,0,21,0,,,,,,,,,,,,,,,,,,,,,,,,,,,,,,,,,,,,,,,,,,,,,,,,,,,,,,,,,,,,,,,,,,,,,,0,,,,,,,,,,,,,,,,,,,,,,,,,,,,left,0,100,30,130,0,2384.030371,2384.030371,2384.030371,None,None,1,1,0.2950934,,,,,,,,,,,,,,,,,,,1,10,1,2024-10-22_08h15.11.064,uWM_experiment,2022.2.3,59.98616719
,,,,,,,,,,,,,,,,,,,,4,0,4,0,22,0,22,0,,,,,,,,,,,,,,,,,,,,,,,,,,,,,,,,,,,,,,,,,,,,,,,,,,,,,,,,,,,,,,,,,,,,,,0.075,,,,,,,,,,,,,,,,,,,,,,,,,,,,right,1,40,30,70,1,2389.813943,2389.813943,2389.813943,None,None,2,0,0.439468,,,,,,,,,,,,,,,,,,,1,10,1,2024-10-22_08h15.11.064,uWM_experiment,2022.2.3,59.98616719
,,,,,,,,,,,,,,,,,,,,4,0,4,0,23,0,23,0,,,,,,,,,,,,,,,,,,,,,,,,,,,,,,,,,,,,,,,,,,,,,,,,,,,,,,,,,,,,,,,,,,,,,,0,,,,,,,,,,,,,,,,,,,,,,,,,,,,left,1,100,-30,70,0,2395.514211,2395.514211,2395.514211,None,None,1,1,0.331181,,,,,,,,,,,,,,,,,,,1,10,1,2024-10-22_08h15.11.064,uWM_experiment,2022.2.3,59.98616719
,,,,,,,,,,,,,,,,,,,,4,0,4,0,,,,,0,0,0,0,,,,,,,,,,,,,,,,,,,,,,,,,,,,,,,,,,,,,,,,,,,,,,,,,,,,,,,,,,,,,,,,,,,,,,,,,,,,,,,,,,,,,,,,,,,,,,,,,,,,,,,,,,,,2395.864258,2395.864258,space,16.5411592,None,None,,,,,,,,,,,,,1,10,1,2024-10-22_08h15.11.064,uWM_experiment,2022.2.3,59.98616719
,,,,,,,,,,,,,,,,,,,,4,0,4,0,,,,,1,0,1,0,,,,,,,,,,,,,,,,,,,,,,,,,,,,,,,,,,,,,,,,,,,,,,,,,,,,,,,,,,,,,,,,,,,,,,,,,,,,,,,,,,,,,,,,,,,,,,,,,,,,,,,,,,,,,,,,,,,,,,,,,,,,,,1,10,1,2024-10-22_08h15.11.064,uWM_experiment,2022.2.3,59.98616719
,,,,,,,,,,,,,,,,,,,,4,0,4,0,,,,,2,0,2,0,,,,,,,,,,,,,,,,,,,,,,,,,,,,,,,,,,,,,,,,,,,,,,,,,,,,,,,,,,,,,,,,,,,,,,,,,,,,,,,,,,,,,,,,,,,,,,,,,,,,,,,,,,,,,,,,,,,,,,,,,,,,,,1,10,1,2024-10-22_08h15.11.064,uWM_experiment,2022.2.3,59.98616719
,,,,,,,,,,,,,,,,,,,,5,0,5,0,0,0,0,0,,,,,,,,,,,,,,,,,,,,,,,,,,,,,,,,,,,,,,,,,,,,,,,,,,,,,,,,,,,,,,,,,,,,,,0,,,,,,,,,,,,,,,,,,,,2412.431653,2413.131665,2413.43168,2414.131719,2414.431725,2415.131757,2415.131757,2415.448444,left,1,100,-30,70,0,2419.665313,2419.665313,2419.665313,None,None,1,1,0.2601475,,,,,,,None,,,,,,,,,,,,1,10,1,2024-10-22_08h15.11.064,uWM_experiment,2022.2.3,59.98616719
,,,,,,,,,,,,,,,,,,,,5,0,5,0,1,0,1,0,,,,,,,,,,,,,,,,,,,,,,,,,,,,,,,,,,,,,,,,,,,,,,,,,,,,,,,,,,,,,,,,,,,,,,0.065,,,,,,,,,,,,,,,,,,,,,,,,,,,,left,1,70,-30,40,1,2425.215538,2425.215538,2425.215538,None,None,1,1,0.245847,,,,,,,,,,,,,,,,,,,1,10,1,2024-10-22_08h15.11.064,uWM_experiment,2022.2.3,59.98616719
,,,,,,,,,,,,,,,,,,,,5,0,5,0,2,0,2,0,,,,,,,,,,,,,,,,,,,,,,,,,,,,,,,,,,,,,,,,,,,,,,,,,,,,,,,,,,,,,,,,,,,,,,0.075,,,,,,,,,,,,,,,,,,,,,,,,,,,,right,0,70,-30,40,1,2430.932484,2430.932484,2430.932484,None,None,2,0,0.2408802,,,,,,,,,,,,,,,,,,,1,10,1,2024-10-22_08h15.11.064,uWM_experiment,2022.2.3,59.98616719
,,,,,,,,,,,,,,,,,,,,5,0,5,0,3,0,3,0,,,,,,,,,,,,,,,,,,,,,,,,,,,,,,,,,,,,,,,,,,,,,,,,,,,,,,,,,,,,,,,,,,,,,,0.065,,,,,,,,,,,,,,,,,,,,,,,,,,,,left,0,70,30,100,1,2436.416043,2436.416043,2436.416043,None,None,1,1,0.1973518,,,,,,,,,,,,,,,,,,,1,10,1,2024-10-22_08h15.11.064,uWM_experiment,2022.2.3,59.98616719
,,,,,,,,,,,,,,,,,,,,5,0,5,0,4,0,4,0,,,,,,,,,,,,,,,,,,,,,,,,,,,,,,,,,,,,,,,,,,,,,,,,,,,,,,,,,,,,,,,,,,,,,,0.075,,,,,,,,,,,,,,,,,,,,,,,,,,,,left,0,100,30,130,1,2442.149625,2442.149625,2442.149625,None,None,2,0,0.3838305,,,,,,,,,,,,,,,,,,,1,10,1,2024-10-22_08h15.11.064,uWM_experiment,2022.2.3,59.98616719
,,,,,,,,,,,,,,,,,,,,5,0,5,0,5,0,5,0,,,,,,,,,,,,,,,,,,,,,,,,,,,,,,,,,,,,,,,,,,,,,,,,,,,,,,,,,,,,,,,,,,,,,,0.065,,,,,,,,,,,,,,,,,,,,,,,,,,,,left,1,10,-30,-20,1,2448.433247,2448.433247,2448.433247,None,None,2,0,0.2041114,,,,,,,,,,,,,,,,,,,1,10,1,2024-10-22_08h15.11.064,uWM_experiment,2022.2.3,59.98616719
,,,,,,,,,,,,,,,,,,,,5,0,5,0,6,0,6,0,,,,,,,,,,,,,,,,,,,,,,,,,,,,,,,,,,,,,,,,,,,,,,,,,,,,,,,,,,,,,,,,,,,,,,0.055,,,,,,,,,,,,,,,,,,,,,,,,,,,,left,1,130,-30,100,1,2454.150195,2454.150195,2454.150195,None,None,3,0,0.2392979,,,,,,,,,,,,,,,,,,,1,10,1,2024-10-22_08h15.11.064,uWM_experiment,2022.2.3,59.98616719
,,,,,,,,,,,,,,,,,,,,5,0,5,0,7,0,7,0,,,,,,,,,,,,,,,,,,,,,,,,,,,,,,,,,,,,,,,,,,,,,,,,,,,,,,,,,,,,,,,,,,,,,,0,,,,,,,,,,,,,,,,,,,,,,,,,,,,left,1,100,-30,70,0,2459.53373,2459.53373,2459.53373,None,None,1,1,0.2876295,,,,,,,,,,,,,,,,,,,1,10,1,2024-10-22_08h15.11.064,uWM_experiment,2022.2.3,59.98616719
,,,,,,,,,,,,,,,,,,,,5,0,5,0,8,0,8,0,,,,,,,,,,,,,,,,,,,,,,,,,,,,,,,,,,,,,,,,,,,,,,,,,,,,,,,,,,,,,,,,,,,,,,0,,,,,,,,,,,,,,,,,,,,,,,,,,,,left,1,10,-30,-20,0,2465.850688,2465.850688,2465.850688,None,None,1,1,0.194747,,,,,,,,,,,,,,,,,,,1,10,1,2024-10-22_08h15.11.064,uWM_experiment,2022.2.3,59.98616719
,,,,,,,,,,,,,,,,,,,,5,0,5,0,9,0,9,0,,,,,,,,,,,,,,,,,,,,,,,,,,,,,,,,,,,,,,,,,,,,,,,,,,,,,,,,,,,,,,,,,,,,,,0,,,,,,,,,,,,,,,,,,,,,,,,,,,,left,0,160,30,190,0,2471.217581,2471.217581,2471.217581,None,None,1,1,0.2439241,,,,,,,,,,,,,,,,,,,1,10,1,2024-10-22_08h15.11.064,uWM_experiment,2022.2.3,59.98616719
,,,,,,,,,,,,,,,,,,,,5,0,5,0,10,0,10,0,,,,,,,,,,,,,,,,,,,,,,,,,,,,,,,,,,,,,,,,,,,,,,,,,,,,,,,,,,,,,,,,,,,,,,0,,,,,,,,,,,,,,,,,,,,,,,,,,,,left,1,70,-30,40,0,2476.967863,2476.967863,2476.967863,None,None,1,1,0.2936474,,,,,,,,,,,,,,,,,,,1,10,1,2024-10-22_08h15.11.064,uWM_experiment,2022.2.3,59.98616719
,,,,,,,,,,,,,,,,,,,,5,0,5,0,11,0,11,0,,,,,,,,,,,,,,,,,,,,,,,,,,,,,,,,,,,,,,,,,,,,,,,,,,,,,,,,,,,,,,,,,,,,,,0.045,,,,,,,,,,,,,,,,,,,,,,,,,,,,left,1,130,-30,100,1,2482.968114,2482.968114,2482.968114,None,None,1,1,0.3012448,,,,,,,,,,,,,,,,,,,1,10,1,2024-10-22_08h15.11.064,uWM_experiment,2022.2.3,59.98616719
,,,,,,,,,,,,,,,,,,,,5,0,5,0,12,0,12,0,,,,,,,,,,,,,,,,,,,,,,,,,,,,,,,,,,,,,,,,,,,,,,,,,,,,,,,,,,,,,,,,,,,,,,0.055,,,,,,,,,,,,,,,,,,,,,,,,,,,,left,1,160,-30,130,1,2488.468379,2488.468379,2488.468379,None,None,1,1,0.2730837,,,,,,,,,,,,,,,,,,,1,10,1,2024-10-22_08h15.11.064,uWM_experiment,2022.2.3,59.98616719
,,,,,,,,,,,,,,,,,,,,5,0,5,0,13,0,13,0,,,,,,,,,,,,,,,,,,,,,,,,,,,,,,,,,,,,,,,,,,,,,,,,,,,,,,,,,,,,,,,,,,,,,,0.065,,,,,,,,,,,,,,,,,,,,,,,,,,,,left,1,100,-30,70,1,2494.301962,2494.301962,2494.301962,None,None,2,0,0.2954409,,,,,,,,,,,,,,,,,,,1,10,1,2024-10-22_08h15.11.064,uWM_experiment,2022.2.3,59.98616719
,,,,,,,,,,,,,,,,,,,,5,0,5,0,14,0,14,0,,,,,,,,,,,,,,,,,,,,,,,,,,,,,,,,,,,,,,,,,,,,,,,,,,,,,,,,,,,,,,,,,,,,,,0.055,,,,,,,,,,,,,,,,,,,,,,,,,,,,left,1,10,-30,-20,1,2499.785541,2499.785541,2499.785541,None,None,1,1,0.419785,,,,,,,,,,,,,,,,,,,1,10,1,2024-10-22_08h15.11.064,uWM_experiment,2022.2.3,59.98616719
,,,,,,,,,,,,,,,,,,,,5,0,5,0,15,0,15,0,,,,,,,,,,,,,,,,,,,,,,,,,,,,,,,,,,,,,,,,,,,,,,,,,,,,,,,,,,,,,,,,,,,,,,0.1,,,,,,,,,,,,,,,,,,,,,,,,,,,,right,1,10,30,40,2,2506.019142,2506.019142,2506.019142,None,None,4,0,0.4103102,,,,,,,,,,,,,,,,,,,1,10,1,2024-10-22_08h15.11.064,uWM_experiment,2022.2.3,59.98616719
,,,,,,,,,,,,,,,,,,,,5,0,5,0,16,0,16,0,,,,,,,,,,,,,,,,,,,,,,,,,,,,,,,,,,,,,,,,,,,,,,,,,,,,,,,,,,,,,,,,,,,,,,0,,,,,,,,,,,,,,,,,,,,,,,,,,,,left,0,100,30,130,0,2511.619405,2511.619405,2511.619405,None,None,1,1,0.3060328,,,,,,,,,,,,,,,,,,,1,10,1,2024-10-22_08h15.11.064,uWM_experiment,2022.2.3,59.98616719
,,,,,,,,,,,,,,,,,,,,5,0,5,0,17,0,17,0,,,,,,,,,,,,,,,,,,,,,,,,,,,,,,,,,,,,,,,,,,,,,,,,,,,,,,,,,,,,,,,,,,,,,,0.065,,,,,,,,,,,,,,,,,,,,,,,,,,,,left,0,70,30,100,1,2517.369678,2517.369678,2517.369678,None,None,1,1,0.2998395,,,,,,,,,,,,,,,,,,,1,10,1,2024-10-22_08h15.11.064,uWM_experiment,2022.2.3,59.98616719
,,,,,,,,,,,,,,,,,,,,5,0,5,0,18,0,18,0,,,,,,,,,,,,,,,,,,,,,,,,,,,,,,,,,,,,,,,,,,,,,,,,,,,,,,,,,,,,,,,,,,,,,,0.075,,,,,,,,,,,,,,,,,,,,,,,,,,,,right,1,130,30,160,1,2523.269919,2523.269919,2523.269919,None,None,3,0,0.4635325,,,,,,,,,,,,,,,,,,,1,10,1,2024-10-22_08h15.11.064,uWM_experiment,2022.2.3,59.98616719
,,,,,,,,,,,,,,,,,,,,5,0,5,0,19,0,19,0,,,,,,,,,,,,,,,,,,,,,,,,,,,,,,,,,,,,,,,,,,,,,,,,,,,,,,,,,,,,,,,,,,,,,,0.065,,,,,,,,,,,,,,,,,,,,,,,,,,,,left,0,70,30,100,1,2529.286864,2529.286864,2529.286864,None,None,1,1,0.2626258,,,,,,,,,,,,,,,,,,,1,10,1,2024-10-22_08h15.11.064,uWM_experiment,2022.2.3,59.98616719
,,,,,,,,,,,,,,,,,,,,5,0,5,0,20,0,20,0,,,,,,,,,,,,,,,,,,,,,,,,,,,,,,,,,,,,,,,,,,,,,,,,,,,,,,,,,,,,,,,,,,,,,,0.075,,,,,,,,,,,,,,,,,,,,,,,,,,,,left,1,40,-30,10,1,2535.103796,2535.103796,2535.103796,None,None,3,0,1.1737443,,,,,,,,,,,,,,,,,,,1,10,1,2024-10-22_08h15.11.064,uWM_experiment,2022.2.3,59.98616719
,,,,,,,,,,,,,,,,,,,,5,0,5,0,21,0,21,0,,,,,,,,,,,,,,,,,,,,,,,,,,,,,,,,,,,,,,,,,,,,,,,,,,,,,,,,,,,,,,,,,,,,,,0.065,,,,,,,,,,,,,,,,,,,,,,,,,,,,left,0,160,30,190,1,2541.687425,2541.687425,2541.687425,None,None,2,0,0.2459671,,,,,,,,,,,,,,,,,,,1,10,1,2024-10-22_08h15.11.064,uWM_experiment,2022.2.3,59.98616719
,,,,,,,,,,,,,,,,,,,,5,0,5,0,22,0,22,0,,,,,,,,,,,,,,,,,,,,,,,,,,,,,,,,,,,,,,,,,,,,,,,,,,,,,,,,,,,,,,,,,,,,,,0.055,,,,,,,,,,,,,,,,,,,,,,,,,,,,left,1,70,-30,40,1,2547.270999,2547.270999,2547.270999,None,None,2,0,0.2543995,,,,,,,,,,,,,,,,,,,1,10,1,2024-10-22_08h15.11.064,uWM_experiment,2022.2.3,59.98616719
,,,,,,,,,,,,,,,,,,,,5,0,5,0,23,0,23,0,,,,,,,,,,,,,,,,,,,,,,,,,,,,,,,,,,,,,,,,,,,,,,,,,,,,,,,,,,,,,,,,,,,,,,0.045,,,,,,,,,,,,,,,,,,,,,,,,,,,,left,1,130,-30,100,1,2552.937964,2552.937964,2552.937964,None,None,1,1,0.2353868,,,,,,,,,,,,,,,,,,,1,10,1,2024-10-22_08h15.11.064,uWM_experiment,2022.2.3,59.98616719
,,,,,,,,,,,,,,,,,,,,5,0,5,0,,,,,0,0,0,0,,,,,,,,,,,,,,,,,,,,,,,,,,,,,,,,,,,,,,,,,,,,,,,,,,,,,,,,,,,,,,,,,,,,,,,,,,,,,,,,,,,,,,,,,,,,,,,,,,,,,,,,,,,,2553.204591,2553.204591,space,1.7369694,space,None,,2554.971345,2554.971345,1.0582472,,,,,,,,,1,10,1,2024-10-22_08h15.11.064,uWM_experiment,2022.2.3,59.98616719
,,,,,,,,,,,,,,,,,,,,5,0,5,0,,,,,1,0,1,0,,,,,,,,,,,,,,,,,,,,,,,,,,,,,,,,,,,,,,,,,,,,,,,,,,,,,,,,,,,,,,,,,,,,,,,,,,,,,,,,,,,,,,,,,,,,,,,,,,,,,,,,,,,,,,,,,,,,,,,,,,,,,,1,10,1,2024-10-22_08h15.11.064,uWM_experiment,2022.2.3,59.98616719
,,,,,,,,,,,,,,,,,,,,5,0,5,0,,,,,2,0,2,0,,,,,,,,,,,,,,,,,,,,,,,,,,,,,,,,,,,,,,,,,,,,,,,,,,,,,,,,,,,,,,,,,,,,,,,,,,,,,,,,,,,,,,,,,,,,,,,,,,,,,,,,,,,,,,,,,,,,,,,,,,,,,,1,10,1,2024-10-22_08h15.11.064,uWM_experiment,2022.2.3,59.98616719
,,,,,,,,,,,,,,,,,,,,6,0,6,0,0,0,0,0,,,,,,,,,,,,,,,,,,,,,,,,,,,,,,,,,,,,,,,,,,,,,,,,,,,,,,,,,,,,,,,,,,,,,,0.055,,,,,,,,,,,,,,,,,,,,2556.054727,2556.754765,2557.05478,2557.754805,2558.054816,2558.75485,2558.75485,2559.071543,left,0,100,30,130,1,2563.855069,2563.855069,2563.855069,None,None,1,1,0.5423811,,,,,,,None,,,,,,,,,,,,1,10,1,2024-10-22_08h15.11.064,uWM_experiment,2022.2.3,59.98616719
,,,,,,,,,,,,,,,,,,,,6,0,6,0,1,0,1,0,,,,,,,,,,,,,,,,,,,,,,,,,,,,,,,,,,,,,,,,,,,,,,,,,,,,,,,,,,,,,,,,,,,,,,0,,,,,,,,,,,,,,,,,,,,,,,,,,,,left,1,100,-30,70,0,2569.972023,2569.972023,2569.972023,None,None,1,1,0.5615091,,,,,,,,,,,,,,,,,,,1,10,1,2024-10-22_08h15.11.064,uWM_experiment,2022.2.3,59.98616719
,,,,,,,,,,,,,,,,,,,,6,0,6,0,2,0,2,0,,,,,,,,,,,,,,,,,,,,,,,,,,,,,,,,,,,,,,,,,,,,,,,,,,,,,,,,,,,,,,,,,,,,,,0.065,,,,,,,,,,,,,,,,,,,,,,,,,,,,left,0,100,30,130,1,2575.705616,2575.705616,2575.705616,None,None,1,1,0.3158987,,,,,,,,,,,,,,,,,,,1,10,1,2024-10-22_08h15.11.064,uWM_experiment,2022.2.3,59.98616719
,,,,,,,,,,,,,,,,,,,,6,0,6,0,3,0,3,0,,,,,,,,,,,,,,,,,,,,,,,,,,,,,,,,,,,,,,,,,,,,,,,,,,,,,,,,,,,,,,,,,,,,,,0.075,,,,,,,,,,,,,,,,,,,,,,,,,,,,left,0,130,30,160,1,2582.172585,2582.172585,2582.172585,None,None,1,1,0.2249213,,,,,,,,,,,,,,,,,,,1,10,1,2024-10-22_08h15.11.064,uWM_experiment,2022.2.3,59.98616719
,,,,,,,,,,,,,,,,,,,,6,0,6,0,4,0,4,0,,,,,,,,,,,,,,,,,,,,,,,,,,,,,,,,,,,,,,,,,,,,,,,,,,,,,,,,,,,,,,,,,,,,,,0.085,,,,,,,,,,,,,,,,,,,,,,,,,,,,right,0,70,-30,40,1,2587.589476,2587.589476,2587.589476,None,None,2,0,0.1759498,,,,,,,,,,,,,,,,,,,1,10,1,2024-10-22_08h15.11.064,uWM_experiment,2022.2.3,59.98616719
,,,,,,,,,,,,,,,,,,,,6,0,6,0,5,0,5,0,,,,,,,,,,,,,,,,,,,,,,,,,,,,,,,,,,,,,,,,,,,,,,,,,,,,,,,,,,,,,,,,,,,,,,0.075,,,,,,,,,,,,,,,,,,,,,,,,,,,,right,0,100,-30,70,1,2592.873034,2592.873034,2592.873034,None,None,2,0,0.2523873,,,,,,,,,,,,,,,,,,,1,10,1,2024-10-22_08h15.11.064,uWM_experiment,2022.2.3,59.98616719
,,,,,,,,,,,,,,,,,,,,6,0,6,0,6,0,6,0,,,,,,,,,,,,,,,,,,,,,,,,,,,,,,,,,,,,,,,,,,,,,,,,,,,,,,,,,,,,,,,,,,,,,,0.065,,,,,,,,,,,,,,,,,,,,,,,,,,,,left,0,70,30,100,1,2598.273284,2598.273284,2598.273284,None,None,1,1,0.3402581,,,,,,,,,,,,,,,,,,,1,10,1,2024-10-22_08h15.11.064,uWM_experiment,2022.2.3,59.98616719
,,,,,,,,,,,,,,,,,,,,6,0,6,0,7,0,7,0,,,,,,,,,,,,,,,,,,,,,,,,,,,,,,,,,,,,,,,,,,,,,,,,,,,,,,,,,,,,,,,,,,,,,,0.075,,,,,,,,,,,,,,,,,,,,,,,,,,,,right,0,40,-30,10,1,2603.723503,2603.723503,2603.723503,None,None,2,0,0.2980694,,,,,,,,,,,,,,,,,,,1,10,1,2024-10-22_08h15.11.064,uWM_experiment,2022.2.3,59.98616719
,,,,,,,,,,,,,,,,,,,,6,0,6,0,8,0,8,0,,,,,,,,,,,,,,,,,,,,,,,,,,,,,,,,,,,,,,,,,,,,,,,,,,,,,,,,,,,,,,,,,,,,,,0.065,,,,,,,,,,,,,,,,,,,,,,,,,,,,left,1,130,-30,100,1,2609.557108,2609.557108,2609.557108,None,None,1,1,0.3363101,,,,,,,,,,,,,,,,,,,1,10,1,2024-10-22_08h15.11.064,uWM_experiment,2022.2.3,59.98616719
,,,,,,,,,,,,,,,,,,,,6,0,6,0,9,0,9,0,,,,,,,,,,,,,,,,,,,,,,,,,,,,,,,,,,,,,,,,,,,,,,,,,,,,,,,,,,,,,,,,,,,,,,0.075,,,,,,,,,,,,,,,,,,,,,,,,,,,,right,1,10,30,40,1,2615.424049,2615.424049,2615.424049,None,None,2,0,0.2775303,,,,,,,,,,,,,,,,,,,1,10,1,2024-10-22_08h15.11.064,uWM_experiment,2022.2.3,59.98616719
,,,,,,,,,,,,,,,,,,,,6,0,6,0,10,0,10,0,,,,,,,,,,,,,,,,,,,,,,,,,,,,,,,,,,,,,,,,,,,,,,,,,,,,,,,,,,,,,,,,,,,,,,0,,,,,,,,,,,,,,,,,,,,,,,,,,,,left,0,40,30,70,0,2621.157642,2621.157642,2621.157642,None,None,1,1,0.2798741,,,,,,,,,,,,,,,,,,,1,10,1,2024-10-22_08h15.11.064,uWM_experiment,2022.2.3,59.98616719
,,,,,,,,,,,,,,,,,,,,6,0,6,0,11,0,11,0,,,,,,,,,,,,,,,,,,,,,,,,,,,,,,,,,,,,,,,,,,,,,,,,,,,,,,,,,,,,,,,,,,,,,,0.065,,,,,,,,,,,,,,,,,,,,,,,,,,,,right,0,130,-30,100,1,2627.391241,2627.391241,2627.391241,None,None,3,0,0.2701574,,,,,,,,,,,,,,,,,,,1,10,1,2024-10-22_08h15.11.064,uWM_experiment,2022.2.3,59.98616719
,,,,,,,,,,,,,,,,,,,,6,0,6,0,12,0,12,0,,,,,,,,,,,,,,,,,,,,,,,,,,,,,,,,,,,,,,,,,,,,,,,,,,,,,,,,,,,,,,,,,,,,,,0.055,,,,,,,,,,,,,,,,,,,,,,,,,,,,left,0,130,30,160,1,2633.224842,2633.224842,2633.224842,None,None,2,0,0.2526242,,,,,,,,,,,,,,,,,,,1,10,1,2024-10-22_08h15.11.064,uWM_experiment,2022.2.3,59.98616719
,,,,,,,,,,,,,,,,,,,,6,0,6,0,13,0,13,0,,,,,,,,,,,,,,,,,,,,,,,,,,,,,,,,,,,,,,,,,,,,,,,,,,,,,,,,,,,,,,,,,,,,,,0.045,,,,,,,,,,,,,,,,,,,,,,,,,,,,right,1,160,30,190,1,2638.908433,2638.908433,2638.908433,None,None,4,0,0.3451705,,,,,,,,,,,,,,,,,,,1,10,1,2024-10-22_08h15.11.064,uWM_experiment,2022.2.3,59.98616719
,,,,,,,,,,,,,,,,,,,,6,0,6,0,14,0,14,0,,,,,,,,,,,,,,,,,,,,,,,,,,,,,,,,,,,,,,,,,,,,,,,,,,,,,,,,,,,,,,,,,,,,,,0.035,,,,,,,,,,,,,,,,,,,,,,,,,,,,left,0,70,30,100,1,2645.125403,2645.125403,2645.125403,None,None,1,1,0.3761002,,,,,,,,,,,,,,,,,,,1,10,1,2024-10-22_08h15.11.064,uWM_experiment,2022.2.3,59.98616719
,,,,,,,,,,,,,,,,,,,,6,0,6,0,15,0,15,0,,,,,,,,,,,,,,,,,,,,,,,,,,,,,,,,,,,,,,,,,,,,,,,,,,,,,,,,,,,,,,,,,,,,,,0.045,,,,,,,,,,,,,,,,,,,,,,,,,,,,left,1,100,-30,70,1,2650.692273,2650.692273,2650.692273,None,None,1,1,0.273303,,,,,,,,,,,,,,,,,,,1,10,1,2024-10-22_08h15.11.064,uWM_experiment,2022.2.3,59.98616719
,,,,,,,,,,,,,,,,,,,,6,0,6,0,16,0,16,0,,,,,,,,,,,,,,,,,,,,,,,,,,,,,,,,,,,,,,,,,,,,,,,,,,,,,,,,,,,,,,,,,,,,,,0.055,,,,,,,,,,,,,,,,,,,,,,,,,,,,left,0,70,30,100,1,2656.175975,2656.175975,2656.175975,None,None,1,1,0.2695009,,,,,,,,,,,,,,,,,,,1,10,1,2024-10-22_08h15.11.064,uWM_experiment,2022.2.3,59.98616719
,,,,,,,,,,,,,,,,,,,,6,0,6,0,17,0,17,0,,,,,,,,,,,,,,,,,,,,,,,,,,,,,,,,,,,,,,,,,,,,,,,,,,,,,,,,,,,,,,,,,,,,,,0,,,,,,,,,,,,,,,,,,,,,,,,,,,,left,0,160,30,190,0,2661.742783,2661.742783,2661.742783,None,None,1,1,0.2628263,,,,,,,,,,,,,,,,,,,1,10,1,2024-10-22_08h15.11.064,uWM_experiment,2022.2.3,59.98616719
,,,,,,,,,,,,,,,,,,,,6,0,6,0,18,0,18,0,,,,,,,,,,,,,,,,,,,,,,,,,,,,,,,,,,,,,,,,,,,,,,,,,,,,,,,,,,,,,,,,,,,,,,0.065,,,,,,,,,,,,,,,,,,,,,,,,,,,,right,0,70,-30,40,1,2667.226357,2667.226357,2667.226357,None,None,2,0,0.2752533,,,,,,,,,,,,,,,,,,,1,10,1,2024-10-22_08h15.11.064,uWM_experiment,2022.2.3,59.98616719
,,,,,,,,,,,,,,,,,,,,6,0,6,0,19,0,19,0,,,,,,,,,,,,,,,,,,,,,,,,,,,,,,,,,,,,,,,,,,,,,,,,,,,,,,,,,,,,,,,,,,,,,,0.055,,,,,,,,,,,,,,,,,,,,,,,,,,,,right,1,130,30,160,1,2673.043301,2673.043301,2673.043301,None,None,2,0,1.2341551,,,,,,,,,,,,,,,,,,,1,10,1,2024-10-22_08h15.11.064,uWM_experiment,2022.2.3,59.98616719
,,,,,,,,,,,,,,,,,,,,6,0,6,0,20,0,20,0,,,,,,,,,,,,,,,,,,,,,,,,,,,,,,,,,,,,,,,,,,,,,,,,,,,,,,,,,,,,,,,,,,,,,,0.045,,,,,,,,,,,,,,,,,,,,,,,,,,,,left,0,70,30,100,1,2679.493574,2679.493574,2679.493574,None,None,1,1,0.1999206,,,,,,,,,,,,,,,,,,,1,10,1,2024-10-22_08h15.11.064,uWM_experiment,2022.2.3,59.98616719
,,,,,,,,,,,,,,,,,,,,6,0,6,0,21,0,21,0,,,,,,,,,,,,,,,,,,,,,,,,,,,,,,,,,,,,,,,,,,,,,,,,,,,,,,,,,,,,,,,,,,,,,,0.055,,,,,,,,,,,,,,,,,,,,,,,,,,,,left,1,130,-30,100,1,2684.877131,2684.877131,2684.877131,None,None,1,1,0.3604452,,,,,,,,,,,,,,,,,,,1,10,1,2024-10-22_08h15.11.064,uWM_experiment,2022.2.3,59.98616719
,,,,,,,,,,,,,,,,,,,,6,0,6,0,22,0,22,0,,,,,,,,,,,,,,,,,,,,,,,,,,,,,,,,,,,,,,,,,,,,,,,,,,,,,,,,,,,,,,,,,,,,,,0.065,,,,,,,,,,,,,,,,,,,,,,,,,,,,left,1,40,-30,10,1,2691.894152,2691.894152,2691.894152,None,None,2,0,0.1434676,,,,,,,,,,,,,,,,,,,1,10,1,2024-10-22_08h15.11.064,uWM_experiment,2022.2.3,59.98616719
,,,,,,,,,,,,,,,,,,,,6,0,6,0,23,0,23,0,,,,,,,,,,,,,,,,,,,,,,,,,,,,,,,,,,,,,,,,,,,,,,,,,,,,,,,,,,,,,,,,,,,,,,0.055,,,,,,,,,,,,,,,,,,,,,,,,,,,,left,1,10,-30,-20,1,2697.3277,2697.3277,2697.3277,None,None,1,1,0.2537393,,,,,,,,,,,,,,,,,,,1,10,1,2024-10-22_08h15.11.064,uWM_experiment,2022.2.3,59.98616719
,,,,,,,,,,,,,,,,,,,,6,0,6,0,,,,,0,0,0,0,,,,,,,,,,,,,,,,,,,,,,,,,,,,,,,,,,,,,,,,,,,,,,,,,,,,,,,,,,,,,,,,,,,,,,,,,,,,,,,,,,,,,,,,,,,,,,,,,,,,,,,,,,,,2697.611025,2697.611025,space,2.4345959,None,space,,,,,2700.077818,2700.077818,0.2317526,,,,,,1,10,1,2024-10-22_08h15.11.064,uWM_experiment,2022.2.3,59.98616719
,,,,,,,,,,,,,,,,,,,,6,0,6,0,,,,,1,0,1,0,,,,,,,,,,,,,,,,,,,,,,,,,,,,,,,,,,,,,,,,,,,,,,,,,,,,,,,,,,,,,,,,,,,,,,,,,,,,,,,,,,,,,,,,,,,,,,,,,,,,,,,,,,,,,,,,,,,,,,,,,,,,,,1,10,1,2024-10-22_08h15.11.064,uWM_experiment,2022.2.3,59.98616719
,,,,,,,,,,,,,,,,,,,,6,0,6,0,,,,,2,0,2,0,,,,,,,,,,,,,,,,,,,,,,,,,,,,,,,,,,,,,,,,,,,,,,,,,,,,,,,,,,,,,,,,,,,,,,,,,,,,,,,,,,,,,,,,,,,,,,,,,,,,,,,,,,,,,,,,,,,,,,,,,,,,,,1,10,1,2024-10-22_08h15.11.064,uWM_experiment,2022.2.3,59.98616719
,,,,,,,,,,,,,,,,,,,,7,0,7,0,0,0,0,0,,,,,,,,,,,,,,,,,,,,,,,,,,,,,,,,,,,,,,,,,,,,,,,,,,,,,,,,,,,,,,,,,,,,,,0.065,,,,,,,,,,,,,,,,,,,,2727.712393,2728.41242,2728.695767,2729.395798,2729.69582,2730.395844,2730.395844,2730.712534,left,0,70,30,100,1,2735.446073,2735.446073,2735.446073,None,None,1,1,0.3514484,,,,,,,space,,,,,,,2722.812172,2722.812172,4.88148,,,1,10,1,2024-10-22_08h15.11.064,uWM_experiment,2022.2.3,59.98616719
,,,,,,,,,,,,,,,,,,,,7,0,7,0,1,0,1,0,,,,,,,,,,,,,,,,,,,,,,,,,,,,,,,,,,,,,,,,,,,,,,,,,,,,,,,,,,,,,,,,,,,,,,0.075,,,,,,,,,,,,,,,,,,,,,,,,,,,,left,1,100,-30,70,1,2741.029657,2741.029657,2741.029657,None,None,1,1,0.2560026,,,,,,,,,,,,,,,,,,,1,10,1,2024-10-22_08h15.11.064,uWM_experiment,2022.2.3,59.98616719
,,,,,,,,,,,,,,,,,,,,7,0,7,0,2,0,2,0,,,,,,,,,,,,,,,,,,,,,,,,,,,,,,,,,,,,,,,,,,,,,,,,,,,,,,,,,,,,,,,,,,,,,,0,,,,,,,,,,,,,,,,,,,,,,,,,,,,right,1,70,30,100,0,2746.396548,2746.396548,2746.396548,None,None,1,1,0.4089715,,,,,,,,,,,,,,,,,,,1,10,1,2024-10-22_08h15.11.064,uWM_experiment,2022.2.3,59.98616719
,,,,,,,,,,,,,,,,,,,,7,0,7,0,3,0,3,0,,,,,,,,,,,,,,,,,,,,,,,,,,,,,,,,,,,,,,,,,,,,,,,,,,,,,,,,,,,,,,,,,,,,,,0.085,,,,,,,,,,,,,,,,,,,,,,,,,,,,right,0,160,-30,130,1,2752.380191,2752.380191,2752.380191,None,None,2,0,1.1373079,,,,,,,,,,,,,,,,,,,1,10,1,2024-10-22_08h15.11.064,uWM_experiment,2022.2.3,59.98616719
,,,,,,,,,,,,,,,,,,,,7,0,7,0,4,0,4,0,,,,,,,,,,,,,,,,,,,,,,,,,,,,,,,,,,,,,,,,,,,,,,,,,,,,,,,,,,,,,,,,,,,,,,0,,,,,,,,,,,,,,,,,,,,,,,,,,,,left,0,160,30,190,0,2758.980481,2758.980481,2758.980481,None,None,1,1,0.3530178,,,,,,,,,,,,,,,,,,,1,10,1,2024-10-22_08h15.11.064,uWM_experiment,2022.2.3,59.98616719
,,,,,,,,,,,,,,,,,,,,7,0,7,0,5,0,5,0,,,,,,,,,,,,,,,,,,,,,,,,,,,,,,,,,,,,,,,,,,,,,,,,,,,,,,,,,,,,,,,,,,,,,,0.075,,,,,,,,,,,,,,,,,,,,,,,,,,,,right,1,130,30,160,1,2764.864074,2764.864074,2764.864074,None,None,2,0,0.3255986,,,,,,,,,,,,,,,,,,,1,10,1,2024-10-22_08h15.11.064,uWM_experiment,2022.2.3,59.98616719
,,,,,,,,,,,,,,,,,,,,7,0,7,0,6,0,6,0,,,,,,,,,,,,,,,,,,,,,,,,,,,,,,,,,,,,,,,,,,,,,,,,,,,,,,,,,,,,,,,,,,,,,,0.065,,,,,,,,,,,,,,,,,,,,,,,,,,,,right,1,160,30,190,1,2770.69765,2770.69765,2770.69765,None,None,3,0,0.3400323,,,,,,,,,,,,,,,,,,,1,10,1,2024-10-22_08h15.11.064,uWM_experiment,2022.2.3,59.98616719
,,,,,,,,,,,,,,,,,,,,7,0,7,0,7,0,7,0,,,,,,,,,,,,,,,,,,,,,,,,,,,,,,,,,,,,,,,,,,,,,,,,,,,,,,,,,,,,,,,,,,,,,,0.055,,,,,,,,,,,,,,,,,,,,,,,,,,,,left,1,10,-30,-20,1,2776.297918,2776.297918,2776.297918,None,None,1,1,0.7236269,,,,,,,,,,,,,,,,,,,1,10,1,2024-10-22_08h15.11.064,uWM_experiment,2022.2.3,59.98616719
,,,,,,,,,,,,,,,,,,,,7,0,7,0,8,0,8,0,,,,,,,,,,,,,,,,,,,,,,,,,,,,,,,,,,,,,,,,,,,,,,,,,,,,,,,,,,,,,,,,,,,,,,0.065,,,,,,,,,,,,,,,,,,,,,,,,,,,,right,1,160,30,190,1,2782.514834,2782.514834,2782.514834,None,None,3,0,0.3946953,,,,,,,,,,,,,,,,,,,1,10,1,2024-10-22_08h15.11.064,uWM_experiment,2022.2.3,59.98616719
,,,,,,,,,,,,,,,,,,,,7,0,7,0,9,0,9,0,,,,,,,,,,,,,,,,,,,,,,,,,,,,,,,,,,,,,,,,,,,,,,,,,,,,,,,,,,,,,,,,,,,,,,0.055,,,,,,,,,,,,,,,,,,,,,,,,,,,,left,0,100,30,130,1,2788.298448,2788.298448,2788.298448,None,None,1,1,0.2752143,,,,,,,,,,,,,,,,,,,1,10,1,2024-10-22_08h15.11.064,uWM_experiment,2022.2.3,59.98616719
,,,,,,,,,,,,,,,,,,,,7,0,7,0,10,0,10,0,,,,,,,,,,,,,,,,,,,,,,,,,,,,,,,,,,,,,,,,,,,,,,,,,,,,,,,,,,,,,,,,,,,,,,0.065,,,,,,,,,,,,,,,,,,,,,,,,,,,,left,1,160,-30,130,1,2793.948666,2793.948666,2793.948666,None,None,1,1,0.2650127,,,,,,,,,,,,,,,,,,,1,10,1,2024-10-22_08h15.11.064,uWM_experiment,2022.2.3,59.98616719
,,,,,,,,,,,,,,,,,,,,7,0,7,0,11,0,11,0,,,,,,,,,,,,,,,,,,,,,,,,,,,,,,,,,,,,,,,,,,,,,,,,,,,,,,,,,,,,,,,,,,,,,,0.075,,,,,,,,,,,,,,,,,,,,,,,,,,,,left,0,130,30,160,1,2800.365658,2800.365658,2800.365658,None,None,2,0,0.3358992,,,,,,,,,,,,,,,,,,,1,10,1,2024-10-22_08h15.11.064,uWM_experiment,2022.2.3,59.98616719
,,,,,,,,,,,,,,,,,,,,7,0,7,0,12,0,12,0,,,,,,,,,,,,,,,,,,,,,,,,,,,,,,,,,,,,,,,,,,,,,,,,,,,,,,,,,,,,,,,,,,,,,,0.065,,,,,,,,,,,,,,,,,,,,,,,,,,,,right,1,70,30,100,1,2806.699218,2806.699218,2806.699218,None,None,3,0,0.3463915,,,,,,,,,,,,,,,,,,,1,10,1,2024-10-22_08h15.11.064,uWM_experiment,2022.2.3,59.98616719
,,,,,,,,,,,,,,,,,,,,7,0,7,0,13,0,13,0,,,,,,,,,,,,,,,,,,,,,,,,,,,,,,,,,,,,,,,,,,,,,,,,,,,,,,,,,,,,,,,,,,,,,,0.055,,,,,,,,,,,,,,,,,,,,,,,,,,,,left,1,40,-30,10,1,2812.616193,2812.616193,2812.616193,None,None,3,0,1.0614455,,,,,,,,,,,,,,,,,,,1,10,1,2024-10-22_08h15.11.064,uWM_experiment,2022.2.3,59.98616719
,,,,,,,,,,,,,,,,,,,,7,0,7,0,14,0,14,0,,,,,,,,,,,,,,,,,,,,,,,,,,,,,,,,,,,,,,,,,,,,,,,,,,,,,,,,,,,,,,,,,,,,,,0.045,,,,,,,,,,,,,,,,,,,,,,,,,,,,left,0,100,30,130,1,2819.516493,2819.516493,2819.516493,None,None,3,0,0.401052,,,,,,,,,,,,,,,,,,,1,10,1,2024-10-22_08h15.11.064,uWM_experiment,2022.2.3,59.98616719
,,,,,,,,,,,,,,,,,,,,7,0,7,0,15,0,15,0,,,,,,,,,,,,,,,,,,,,,,,,,,,,,,,,,,,,,,,,,,,,,,,,,,,,,,,,,,,,,,,,,,,,,,0,,,,,,,,,,,,,,,,,,,,,,,,,,,,left,1,100,-30,70,0,2825.800126,2825.800126,2825.800126,None,None,1,1,0.1894576,,,,,,,,,,,,,,,,,,,1,10,1,2024-10-22_08h15.11.064,uWM_experiment,2022.2.3,59.98616719
,,,,,,,,,,,,,,,,,,,,7,0,7,0,16,0,16,0,,,,,,,,,,,,,,,,,,,,,,,,,,,,,,,,,,,,,,,,,,,,,,,,,,,,,,,,,,,,,,,,,,,,,,0.035,,,,,,,,,,,,,,,,,,,,,,,,,,,,left,1,160,-30,130,1,2831.10032,2831.10032,2831.10032,None,None,1,1,0.2252782,,,,,,,,,,,,,,,,,,,1,10,1,2024-10-22_08h15.11.064,uWM_experiment,2022.2.3,59.98616719
,,,,,,,,,,,,,,,,,,,,7,0,7,0,17,0,17,0,,,,,,,,,,,,,,,,,,,,,,,,,,,,,,,,,,,,,,,,,,,,,,,,,,,,,,,,,,,,,,,,,,,,,,0.1,,,,,,,,,,,,,,,,,,,,,,,,,,,,left,0,40,30,70,2,2838.850673,2838.850673,2838.850673,None,None,4,0,0.266902,,,,,,,,,,,,,,,,,,,1,10,1,2024-10-22_08h15.11.064,uWM_experiment,2022.2.3,59.98616719
,,,,,,,,,,,,,,,,,,,,7,0,7,0,18,0,18,0,,,,,,,,,,,,,,,,,,,,,,,,,,,,,,,,,,,,,,,,,,,,,,,,,,,,,,,,,,,,,,,,,,,,,,0.045,,,,,,,,,,,,,,,,,,,,,,,,,,,,right,0,10,-30,-20,1,2844.517607,2844.517607,2844.517607,None,None,1,1,0.2320694,,,,,,,,,,,,,,,,,,,1,10,1,2024-10-22_08h15.11.064,uWM_experiment,2022.2.3,59.98616719
,,,,,,,,,,,,,,,,,,,,7,0,7,0,19,0,19,0,,,,,,,,,,,,,,,,,,,,,,,,,,,,,,,,,,,,,,,,,,,,,,,,,,,,,,,,,,,,,,,,,,,,,,0.055,,,,,,,,,,,,,,,,,,,,,,,,,,,,left,1,160,-30,130,1,2850.28453,2850.28453,2850.28453,None,None,3,0,0.337026,,,,,,,,,,,,,,,,,,,1,10,1,2024-10-22_08h15.11.064,uWM_experiment,2022.2.3,59.98616719
,,,,,,,,,,,,,,,,,,,,7,0,7,0,20,0,20,0,,,,,,,,,,,,,,,,,,,,,,,,,,,,,,,,,,,,,,,,,,,,,,,,,,,,,,,,,,,,,,,,,,,,,,0,,,,,,,,,,,,,,,,,,,,,,,,,,,,left,0,130,30,160,0,2855.768116,2855.768116,2855.768116,None,None,1,1,0.285435,,,,,,,,,,,,,,,,,,,1,10,1,2024-10-22_08h15.11.064,uWM_experiment,2022.2.3,59.98616719
,,,,,,,,,,,,,,,,,,,,7,0,7,0,21,0,21,0,,,,,,,,,,,,,,,,,,,,,,,,,,,,,,,,,,,,,,,,,,,,,,,,,,,,,,,,,,,,,,,,,,,,,,0.045,,,,,,,,,,,,,,,,,,,,,,,,,,,,left,0,10,30,40,1,2861.485051,2861.485051,2861.485051,None,None,1,1,0.2646219,,,,,,,,,,,,,,,,,,,1,10,1,2024-10-22_08h15.11.064,uWM_experiment,2022.2.3,59.98616719
,,,,,,,,,,,,,,,,,,,,7,0,7,0,22,0,22,0,,,,,,,,,,,,,,,,,,,,,,,,,,,,,,,,,,,,,,,,,,,,,,,,,,,,,,,,,,,,,,,,,,,,,,0.055,,,,,,,,,,,,,,,,,,,,,,,,,,,,left,0,70,30,100,1,2867.035287,2867.035287,2867.035287,None,None,2,0,0.3143222,,,,,,,,,,,,,,,,,,,1,10,1,2024-10-22_08h15.11.064,uWM_experiment,2022.2.3,59.98616719
,,,,,,,,,,,,,,,,,,,,7,0,7,0,23,0,23,0,,,,,,,,,,,,,,,,,,,,,,,,,,,,,,,,,,,,,,,,,,,,,,,,,,,,,,,,,,,,,,,,,,,,,,0.045,,,,,,,,,,,,,,,,,,,,,,,,,,,,left,0,100,30,130,1,2872.902196,2872.902196,2872.902196,None,None,1,1,0.2314572,,,,,,,,,,,,,,,,,,,1,10,1,2024-10-22_08h15.11.064,uWM_experiment,2022.2.3,59.98616719
,,,,,,,,,,,,,,,,,,,,7,0,7,0,,,,,0,0,0,0,,,,,,,,,,,,,,,,,,,,,,,,,,,,,,,,,,,,,,,,,,,,,,,,,,,,,,,,,,,,,,,,,,,,,,,,,,,,,,,,,,,,,,,,,,,,,,,,,,,,,,,,,,,,2873.152283,2873.152283,space,23.2454786,None,None,,,,,,,,,,,,,1,10,1,2024-10-22_08h15.11.064,uWM_experiment,2022.2.3,59.98616719
,,,,,,,,,,,,,,,,,,,,7,0,7,0,,,,,1,0,1,0,,,,,,,,,,,,,,,,,,,,,,,,,,,,,,,,,,,,,,,,,,,,,,,,,,,,,,,,,,,,,,,,,,,,,,,,,,,,,,,,,,,,,,,,,,,,,,,,,,,,,,,,,,,,,,,,,,,,,,,,,,,,,,1,10,1,2024-10-22_08h15.11.064,uWM_experiment,2022.2.3,59.98616719
,,,,,,,,,,,,,,,,,,,,7,0,7,0,,,,,2,0,2,0,,,,,,,,,,,,,,,,,,,,,,,,,,,,,,,,,,,,,,,,,,,,,,,,,,,,,,,,,,,,,,,,,,,,,,,,,,,,,,,,,,,,,,,,,,,,,,,,,,,,,,,,,,,,,,,,,,,,,,,,,,,,,,1,10,1,2024-10-22_08h15.11.064,uWM_experiment,2022.2.3,59.98616719
,,,,,,,,,,,,,,,,,,,,8,0,8,0,0,0,0,0,,,,,,,,,,,,,,,,,,,,,,,,,,,,,,,,,,,,,,,,,,,,,,,,,,,,,,,,,,,,,,,,,,,,,,0,,,,,,,,,,,,,,,,,,,,2896.419919,2897.119948,2897.419965,2898.119991,2898.420007,2899.120045,2899.120045,2899.436738,left,1,70,-30,40,0,2903.62028,2903.62028,2903.62028,None,None,1,1,0.2653713,,,,,,,None,,,,,,,,,,,,1,10,1,2024-10-22_08h15.11.064,uWM_experiment,2022.2.3,59.98616719
,,,,,,,,,,,,,,,,,,,,8,0,8,0,1,0,1,0,,,,,,,,,,,,,,,,,,,,,,,,,,,,,,,,,,,,,,,,,,,,,,,,,,,,,,,,,,,,,,,,,,,,,,0.055,,,,,,,,,,,,,,,,,,,,,,,,,,,,right,1,160,30,190,1,2909.303831,2909.303831,2909.303831,None,None,3,0,0.3258702,,,,,,,,,,,,,,,,,,,1,10,1,2024-10-22_08h15.11.064,uWM_experiment,2022.2.3,59.98616719
,,,,,,,,,,,,,,,,,,,,8,0,8,0,2,0,2,0,,,,,,,,,,,,,,,,,,,,,,,,,,,,,,,,,,,,,,,,,,,,,,,,,,,,,,,,,,,,,,,,,,,,,,0.045,,,,,,,,,,,,,,,,,,,,,,,,,,,,left,1,70,-30,40,1,2915.504121,2915.504121,2915.504121,None,None,1,1,0.2936247,,,,,,,,,,,,,,,,,,,1,10,1,2024-10-22_08h15.11.064,uWM_experiment,2022.2.3,59.98616719
,,,,,,,,,,,,,,,,,,,,8,0,8,0,3,0,3,0,,,,,,,,,,,,,,,,,,,,,,,,,,,,,,,,,,,,,,,,,,,,,,,,,,,,,,,,,,,,,,,,,,,,,,0.055,,,,,,,,,,,,,,,,,,,,,,,,,,,,right,1,40,30,70,1,2921.137705,2921.137705,2921.137705,None,None,2,0,0.4280808,,,,,,,,,,,,,,,,,,,1,10,1,2024-10-22_08h15.11.064,uWM_experiment,2022.2.3,59.98616719
,,,,,,,,,,,,,,,,,,,,8,0,8,0,4,0,4,0,,,,,,,,,,,,,,,,,,,,,,,,,,,,,,,,,,,,,,,,,,,,,,,,,,,,,,,,,,,,,,,,,,,,,,0.045,,,,,,,,,,,,,,,,,,,,,,,,,,,,right,1,40,30,70,1,2927.087997,2927.087997,2927.087997,None,None,3,0,0.4136755,,,,,,,,,,,,,,,,,,,1,10,1,2024-10-22_08h15.11.064,uWM_experiment,2022.2.3,59.98616719
,,,,,,,,,,,,,,,,,,,,8,0,8,0,5,0,5,0,,,,,,,,,,,,,,,,,,,,,,,,,,,,,,,,,,,,,,,,,,,,,,,,,,,,,,,,,,,,,,,,,,,,,,0.035,,,,,,,,,,,,,,,,,,,,,,,,,,,,left,1,40,-30,10,1,2933.054884,2933.054884,2933.054884,None,None,3,0,0.254726,,,,,,,,,,,,,,,,,,,1,10,1,2024-10-22_08h15.11.064,uWM_experiment,2022.2.3,59.98616719
,,,,,,,,,,,,,,,,,,,,8,0,8,0,6,0,6,0,,,,,,,,,,,,,,,,,,,,,,,,,,,,,,,,,,,,,,,,,,,,,,,,,,,,,,,,,,,,,,,,,,,,,,0.025,,,,,,,,,,,,,,,,,,,,,,,,,,,,left,0,40,30,70,1,2938.755142,2938.755142,2938.755142,None,None,1,1,0.1864323,,,,,,,,,,,,,,,,,,,1,10,1,2024-10-22_08h15.11.064,uWM_experiment,2022.2.3,59.98616719
,,,,,,,,,,,,,,,,,,,,8,0,8,0,7,0,7,0,,,,,,,,,,,,,,,,,,,,,,,,,,,,,,,,,,,,,,,,,,,,,,,,,,,,,,,,,,,,,,,,,,,,,,0,,,,,,,,,,,,,,,,,,,,,,,,,,,,left,1,160,-30,130,0,2944.122057,2944.122057,2944.122057,None,None,1,1,0.3236145,,,,,,,,,,,,,,,,,,,1,10,1,2024-10-22_08h15.11.064,uWM_experiment,2022.2.3,59.98616719
,,,,,,,,,,,,,,,,,,,,8,0,8,0,8,0,8,0,,,,,,,,,,,,,,,,,,,,,,,,,,,,,,,,,,,,,,,,,,,,,,,,,,,,,,,,,,,,,,,,,,,,,,0.035,,,,,,,,,,,,,,,,,,,,,,,,,,,,left,1,160,-30,130,1,2949.538955,2949.538955,2949.538955,None,None,1,1,0.4266744,,,,,,,,,,,,,,,,,,,1,10,1,2024-10-22_08h15.11.064,uWM_experiment,2022.2.3,59.98616719
,,,,,,,,,,,,,,,,,,,,8,0,8,0,9,0,9,0,,,,,,,,,,,,,,,,,,,,,,,,,,,,,,,,,,,,,,,,,,,,,,,,,,,,,,,,,,,,,,,,,,,,,,0.045,,,,,,,,,,,,,,,,,,,,,,,,,,,,left,1,130,-30,100,1,2955.122545,2955.122545,2955.122545,None,None,1,1,0.3310944,,,,,,,,,,,,,,,,,,,1,10,1,2024-10-22_08h15.11.064,uWM_experiment,2022.2.3,59.98616719
,,,,,,,,,,,,,,,,,,,,8,0,8,0,10,0,10,0,,,,,,,,,,,,,,,,,,,,,,,,,,,,,,,,,,,,,,,,,,,,,,,,,,,,,,,,,,,,,,,,,,,,,,0,,,,,,,,,,,,,,,,,,,,,,,,,,,,left,0,130,30,160,0,2960.706139,2960.706139,2960.706139,None,None,1,1,0.5955749,,,,,,,,,,,,,,,,,,,1,10,1,2024-10-22_08h15.11.064,uWM_experiment,2022.2.3,59.98616719
,,,,,,,,,,,,,,,,,,,,8,0,8,0,11,0,11,0,,,,,,,,,,,,,,,,,,,,,,,,,,,,,,,,,,,,,,,,,,,,,,,,,,,,,,,,,,,,,,,,,,,,,,0.055,,,,,,,,,,,,,,,,,,,,,,,,,,,,left,1,130,-30,100,1,2966.556401,2966.556401,2966.556401,None,None,2,0,0.4331989,,,,,,,,,,,,,,,,,,,1,10,1,2024-10-22_08h15.11.064,uWM_experiment,2022.2.3,59.98616719
,,,,,,,,,,,,,,,,,,,,8,0,8,0,12,0,12,0,,,,,,,,,,,,,,,,,,,,,,,,,,,,,,,,,,,,,,,,,,,,,,,,,,,,,,,,,,,,,,,,,,,,,,0,,,,,,,,,,,,,,,,,,,,,,,,,,,,left,1,10,-30,-20,0,2972.273293,2972.273293,2972.273293,None,None,1,1,0.3564072,,,,,,,,,,,,,,,,,,,1,10,1,2024-10-22_08h15.11.064,uWM_experiment,2022.2.3,59.98616719
,,,,,,,,,,,,,,,,,,,,8,0,8,0,13,0,13,0,,,,,,,,,,,,,,,,,,,,,,,,,,,,,,,,,,,,,,,,,,,,,,,,,,,,,,,,,,,,,,,,,,,,,,0.045,,,,,,,,,,,,,,,,,,,,,,,,,,,,left,1,10,-30,-20,1,2977.823546,2977.823546,2977.823546,None,None,1,1,0.4781548,,,,,,,,,,,,,,,,,,,1,10,1,2024-10-22_08h15.11.064,uWM_experiment,2022.2.3,59.98616719
,,,,,,,,,,,,,,,,,,,,8,0,8,0,14,0,14,0,,,,,,,,,,,,,,,,,,,,,,,,,,,,,,,,,,,,,,,,,,,,,,,,,,,,,,,,,,,,,,,,,,,,,,0,,,,,,,,,,,,,,,,,,,,,,,,,,,,left,1,40,-30,10,0,2983.49049,2983.49049,2983.49049,None,None,1,1,0.3631906,,,,,,,,,,,,,,,,,,,1,10,1,2024-10-22_08h15.11.064,uWM_experiment,2022.2.3,59.98616719
,,,,,,,,,,,,,,,,,,,,8,0,8,0,15,0,15,0,,,,,,,,,,,,,,,,,,,,,,,,,,,,,,,,,,,,,,,,,,,,,,,,,,,,,,,,,,,,,,,,,,,,,,0.055,,,,,,,,,,,,,,,,,,,,,,,,,,,,left,1,130,-30,100,1,2989.040717,2989.040717,2989.040717,None,None,1,1,0.284905,,,,,,,,,,,,,,,,,,,1,10,1,2024-10-22_08h15.11.064,uWM_experiment,2022.2.3,59.98616719
,,,,,,,,,,,,,,,,,,,,8,0,8,0,16,0,16,0,,,,,,,,,,,,,,,,,,,,,,,,,,,,,,,,,,,,,,,,,,,,,,,,,,,,,,,,,,,,,,,,,,,,,,0.065,,,,,,,,,,,,,,,,,,,,,,,,,,,,right,1,70,30,100,1,2994.724334,2994.724334,2994.724334,None,None,2,0,0.3052877,,,,,,,,,,,,,,,,,,,1,10,1,2024-10-22_08h15.11.064,uWM_experiment,2022.2.3,59.98616719
,,,,,,,,,,,,,,,,,,,,8,0,8,0,17,0,17,0,,,,,,,,,,,,,,,,,,,,,,,,,,,,,,,,,,,,,,,,,,,,,,,,,,,,,,,,,,,,,,,,,,,,,,0,,,,,,,,,,,,,,,,,,,,,,,,,,,,left,1,40,-30,10,0,3000.924582,3000.924582,3000.924582,None,None,1,1,0.2171644,,,,,,,,,,,,,,,,,,,1,10,1,2024-10-22_08h15.11.064,uWM_experiment,2022.2.3,59.98616719
,,,,,,,,,,,,,,,,,,,,8,0,8,0,18,0,18,0,,,,,,,,,,,,,,,,,,,,,,,,,,,,,,,,,,,,,,,,,,,,,,,,,,,,,,,,,,,,,,,,,,,,,,0.055,,,,,,,,,,,,,,,,,,,,,,,,,,,,left,0,130,30,160,1,3006.674844,3006.674844,3006.674844,None,None,2,0,0.4267919,,,,,,,,,,,,,,,,,,,1,10,1,2024-10-22_08h15.11.064,uWM_experiment,2022.2.3,59.98616719
,,,,,,,,,,,,,,,,,,,,8,0,8,0,19,0,19,0,,,,,,,,,,,,,,,,,,,,,,,,,,,,,,,,,,,,,,,,,,,,,,,,,,,,,,,,,,,,,,,,,,,,,,0.045,,,,,,,,,,,,,,,,,,,,,,,,,,,,left,1,100,-30,70,1,3012.375108,3012.375108,3012.375108,None,None,1,1,0.2226269,,,,,,,,,,,,,,,,,,,1,10,1,2024-10-22_08h15.11.064,uWM_experiment,2022.2.3,59.98616719
,,,,,,,,,,,,,,,,,,,,8,0,8,0,20,0,20,0,,,,,,,,,,,,,,,,,,,,,,,,,,,,,,,,,,,,,,,,,,,,,,,,,,,,,,,,,,,,,,,,,,,,,,0.055,,,,,,,,,,,,,,,,,,,,,,,,,,,,left,1,40,-30,10,1,3017.841991,3017.841991,3017.841991,None,None,1,1,0.3716576,,,,,,,,,,,,,,,,,,,1,10,1,2024-10-22_08h15.11.064,uWM_experiment,2022.2.3,59.98616719
,,,,,,,,,,,,,,,,,,,,8,0,8,0,21,0,21,0,,,,,,,,,,,,,,,,,,,,,,,,,,,,,,,,,,,,,,,,,,,,,,,,,,,,,,,,,,,,,,,,,,,,,,0.065,,,,,,,,,,,,,,,,,,,,,,,,,,,,left,1,70,-30,40,1,3023.858934,3023.858934,3023.858934,None,None,2,0,0.498818,,,,,,,,,,,,,,,,,,,1,10,1,2024-10-22_08h15.11.064,uWM_experiment,2022.2.3,59.98616719
,,,,,,,,,,,,,,,,,,,,8,0,8,0,22,0,22,0,,,,,,,,,,,,,,,,,,,,,,,,,,,,,,,,,,,,,,,,,,,,,,,,,,,,,,,,,,,,,,,,,,,,,,0.055,,,,,,,,,,,,,,,,,,,,,,,,,,,,right,1,130,30,160,1,3030.292545,3030.292545,3030.292545,None,None,3,0,0.353088,,,,,,,,,,,,,,,,,,,1,10,1,2024-10-22_08h15.11.064,uWM_experiment,2022.2.3,59.98616719
,,,,,,,,,,,,,,,,,,,,8,0,8,0,23,0,23,0,,,,,,,,,,,,,,,,,,,,,,,,,,,,,,,,,,,,,,,,,,,,,,,,,,,,,,,,,,,,,,,,,,,,,,0,,,,,,,,,,,,,,,,,,,,,,,,,,,,left,1,40,-30,10,0,3035.759462,3035.759462,3035.759462,None,None,1,1,0.2542007,,,,,,,,,,,,,,,,,,,1,10,1,2024-10-22_08h15.11.064,uWM_experiment,2022.2.3,59.98616719
,,,,,,,,,,,,,,,,,,,,8,0,8,0,,,,,0,0,0,0,,,,,,,,,,,,,,,,,,,,,,,,,,,,,,,,,,,,,,,,,,,,,,,,,,,,,,,,,,,,,,,,,,,,,,,,,,,,,,,,,,,,,,,,,,,,,,,,,,,,,,,,,,,,3036.042805,3036.042805,space,4.6829854,space,None,,3040.743025,3040.743025,7.6066774,,,,,,,,,1,10,1,2024-10-22_08h15.11.064,uWM_experiment,2022.2.3,59.98616719
,,,,,,,,,,,,,,,,,,,,8,0,8,0,,,,,1,0,1,0,,,,,,,,,,,,,,,,,,,,,,,,,,,,,,,,,,,,,,,,,,,,,,,,,,,,,,,,,,,,,,,,,,,,,,,,,,,,,,,,,,,,,,,,,,,,,,,,,,,,,,,,,,,,,,,,,,,,,,,,,,,,,,1,10,1,2024-10-22_08h15.11.064,uWM_experiment,2022.2.3,59.98616719
,,,,,,,,,,,,,,,,,,,,8,0,8,0,,,,,2,0,2,0,,,,,,,,,,,,,,,,,,,,,,,,,,,,,,,,,,,,,,,,,,,,,,,,,,,,,,,,,,,,,,,,,,,,,,,,,,,,,,,,,,,,,,,,,,,,,,,,,,,,,,,,,,,,,,,,,,,,,,,,,,,,,,1,10,1,2024-10-22_08h15.11.064,uWM_experiment,2022.2.3,59.98616719
,,,,,,,,,,,,,,,,,,,,9,0,9,0,0,0,0,0,,,,,,,,,,,,,,,,,,,,,,,,,,,,,,,,,,,,,,,,,,,,,,,,,,,,,,,,,,,,,,,,,,,,,,0.045,,,,,,,,,,,,,,,,,,,,3048.376701,3049.076751,3049.376732,3050.076779,3050.376792,3051.076827,3051.076827,3051.393507,right,1,40,30,70,1,3055.743706,3055.743706,3055.743706,None,None,2,0,0.2379562,,,,,,,None,,,,,,,,,,,,1,10,1,2024-10-22_08h15.11.064,uWM_experiment,2022.2.3,59.98616719
,,,,,,,,,,,,,,,,,,,,9,0,9,0,1,0,1,0,,,,,,,,,,,,,,,,,,,,,,,,,,,,,,,,,,,,,,,,,,,,,,,,,,,,,,,,,,,,,,,,,,,,,,0.035,,,,,,,,,,,,,,,,,,,,,,,,,,,,left,1,10,-30,-20,1,3061.393975,3061.393975,3061.393975,None,None,1,1,0.2597249,,,,,,,,,,,,,,,,,,,1,10,1,2024-10-22_08h15.11.064,uWM_experiment,2022.2.3,59.98616719
,,,,,,,,,,,,,,,,,,,,9,0,9,0,2,0,2,0,,,,,,,,,,,,,,,,,,,,,,,,,,,,,,,,,,,,,,,,,,,,,,,,,,,,,,,,,,,,,,,,,,,,,,0.045,,,,,,,,,,,,,,,,,,,,,,,,,,,,left,1,40,-30,10,1,3067.094223,3067.094223,3067.094223,None,None,2,0,0.4394173,,,,,,,,,,,,,,,,,,,1,10,1,2024-10-22_08h15.11.064,uWM_experiment,2022.2.3,59.98616719
,,,,,,,,,,,,,,,,,,,,9,0,9,0,3,0,3,0,,,,,,,,,,,,,,,,,,,,,,,,,,,,,,,,,,,,,,,,,,,,,,,,,,,,,,,,,,,,,,,,,,,,,,0.035,,,,,,,,,,,,,,,,,,,,,,,,,,,,left,0,130,30,160,1,3072.677781,3072.677781,3072.677781,None,None,1,1,0.2800297,,,,,,,,,,,,,,,,,,,1,10,1,2024-10-22_08h15.11.064,uWM_experiment,2022.2.3,59.98616719
,,,,,,,,,,,,,,,,,,,,9,0,9,0,4,0,4,0,,,,,,,,,,,,,,,,,,,,,,,,,,,,,,,,,,,,,,,,,,,,,,,,,,,,,,,,,,,,,,,,,,,,,,0.045,,,,,,,,,,,,,,,,,,,,,,,,,,,,left,1,130,-30,100,1,3078.344708,3078.344708,3078.344708,None,None,3,0,0.5009697,,,,,,,,,,,,,,,,,,,1,10,1,2024-10-22_08h15.11.064,uWM_experiment,2022.2.3,59.98616719
,,,,,,,,,,,,,,,,,,,,9,0,9,0,5,0,5,0,,,,,,,,,,,,,,,,,,,,,,,,,,,,,,,,,,,,,,,,,,,,,,,,,,,,,,,,,,,,,,,,,,,,,,0.035,,,,,,,,,,,,,,,,,,,,,,,,,,,,left,0,40,30,70,1,3083.944962,3083.944962,3083.944962,None,None,1,1,0.2607968,,,,,,,,,,,,,,,,,,,1,10,1,2024-10-22_08h15.11.064,uWM_experiment,2022.2.3,59.98616719
,,,,,,,,,,,,,,,,,,,,9,0,9,0,6,0,6,0,,,,,,,,,,,,,,,,,,,,,,,,,,,,,,,,,,,,,,,,,,,,,,,,,,,,,,,,,,,,,,,,,,,,,,0,,,,,,,,,,,,,,,,,,,,,,,,,,,,left,0,10,30,40,0,3089.378598,3089.378598,3089.378598,None,None,1,1,0.2512125,,,,,,,,,,,,,,,,,,,1,10,1,2024-10-22_08h15.11.064,uWM_experiment,2022.2.3,59.98616719
,,,,,,,,,,,,,,,,,,,,9,0,9,0,7,0,7,0,,,,,,,,,,,,,,,,,,,,,,,,,,,,,,,,,,,,,,,,,,,,,,,,,,,,,,,,,,,,,,,,,,,,,,0.045,,,,,,,,,,,,,,,,,,,,,,,,,,,,left,1,130,-30,100,1,3095.495491,3095.495491,3095.495491,None,None,2,0,0.5662487,,,,,,,,,,,,,,,,,,,1,10,1,2024-10-22_08h15.11.064,uWM_experiment,2022.2.3,59.98616719
,,,,,,,,,,,,,,,,,,,,9,0,9,0,8,0,8,0,,,,,,,,,,,,,,,,,,,,,,,,,,,,,,,,,,,,,,,,,,,,,,,,,,,,,,,,,,,,,,,,,,,,,,0.035,,,,,,,,,,,,,,,,,,,,,,,,,,,,left,1,70,-30,40,1,3101.24573,3101.24573,3101.24573,None,None,1,1,0.335952,,,,,,,,,,,,,,,,,,,1,10,1,2024-10-22_08h15.11.064,uWM_experiment,2022.2.3,59.98616719
,,,,,,,,,,,,,,,,,,,,9,0,9,0,9,0,9,0,,,,,,,,,,,,,,,,,,,,,,,,,,,,,,,,,,,,,,,,,,,,,,,,,,,,,,,,,,,,,,,,,,,,,,0.1,,,,,,,,,,,,,,,,,,,,,,,,,,,,left,1,70,-30,40,2,3107.329319,3107.329319,3107.329319,None,None,4,0,0.3643816,,,,,,,,,,,,,,,,,,,1,10,1,2024-10-22_08h15.11.064,uWM_experiment,2022.2.3,59.98616719
,,,,,,,,,,,,,,,,,,,,9,0,9,0,10,0,10,0,,,,,,,,,,,,,,,,,,,,,,,,,,,,,,,,,,,,,,,,,,,,,,,,,,,,,,,,,,,,,,,,,,,,,,0,,,,,,,,,,,,,,,,,,,,,,,,,,,,left,0,100,30,130,0,3112.82956,3112.82956,3112.82956,None,None,1,1,0.2241776,,,,,,,,,,,,,,,,,,,1,10,1,2024-10-22_08h15.11.064,uWM_experiment,2022.2.3,59.98616719
,,,,,,,,,,,,,,,,,,,,9,0,9,0,11,0,11,0,,,,,,,,,,,,,,,,,,,,,,,,,,,,,,,,,,,,,,,,,,,,,,,,,,,,,,,,,,,,,,,,,,,,,,0.045,,,,,,,,,,,,,,,,,,,,,,,,,,,,right,1,10,30,40,1,3118.796514,3118.796514,3118.796514,None,None,4,0,0.3931995,,,,,,,,,,,,,,,,,,,1,10,1,2024-10-22_08h15.11.064,uWM_experiment,2022.2.3,59.98616719
,,,,,,,,,,,,,,,,,,,,9,0,9,0,12,0,12,0,,,,,,,,,,,,,,,,,,,,,,,,,,,,,,,,,,,,,,,,,,,,,,,,,,,,,,,,,,,,,,,,,,,,,,0.035,,,,,,,,,,,,,,,,,,,,,,,,,,,,left,1,160,-30,130,1,3124.646789,3124.646789,3124.646789,None,None,1,1,0.3749463,,,,,,,,,,,,,,,,,,,1,10,1,2024-10-22_08h15.11.064,uWM_experiment,2022.2.3,59.98616719
,,,,,,,,,,,,,,,,,,,,9,0,9,0,13,0,13,0,,,,,,,,,,,,,,,,,,,,,,,,,,,,,,,,,,,,,,,,,,,,,,,,,,,,,,,,,,,,,,,,,,,,,,0.1,,,,,,,,,,,,,,,,,,,,,,,,,,,,left,1,10,-30,-20,2,3130.680398,3130.680398,3130.680398,None,None,4,0,0.3333303,,,,,,,,,,,,,,,,,,,1,10,1,2024-10-22_08h15.11.064,uWM_experiment,2022.2.3,59.98616719
,,,,,,,,,,,,,,,,,,,,9,0,9,0,14,0,14,0,,,,,,,,,,,,,,,,,,,,,,,,,,,,,,,,,,,,,,,,,,,,,,,,,,,,,,,,,,,,,,,,,,,,,,0,,,,,,,,,,,,,,,,,,,,,,,,,,,,left,0,130,30,160,0,3136.163935,3136.163935,3136.163935,None,None,1,1,0.1857438,,,,,,,,,,,,,,,,,,,1,10,1,2024-10-22_08h15.11.064,uWM_experiment,2022.2.3,59.98616719
,,,,,,,,,,,,,,,,,,,,9,0,9,0,15,0,15,0,,,,,,,,,,,,,,,,,,,,,,,,,,,,,,,,,,,,,,,,,,,,,,,,,,,,,,,,,,,,,,,,,,,,,,0.045,,,,,,,,,,,,,,,,,,,,,,,,,,,,left,1,130,-30,100,1,3141.547528,3141.547528,3141.547528,None,None,1,1,0.2582598,,,,,,,,,,,,,,,,,,,1,10,1,2024-10-22_08h15.11.064,uWM_experiment,2022.2.3,59.98616719
,,,,,,,,,,,,,,,,,,,,9,0,9,0,16,0,16,0,,,,,,,,,,,,,,,,,,,,,,,,,,,,,,,,,,,,,,,,,,,,,,,,,,,,,,,,,,,,,,,,,,,,,,0.055,,,,,,,,,,,,,,,,,,,,,,,,,,,,left,0,100,30,130,1,3146.964433,3146.964433,3146.964433,None,None,1,1,0.3933024,,,,,,,,,,,,,,,,,,,1,10,1,2024-10-22_08h15.11.064,uWM_experiment,2022.2.3,59.98616719
,,,,,,,,,,,,,,,,,,,,9,0,9,0,17,0,17,0,,,,,,,,,,,,,,,,,,,,,,,,,,,,,,,,,,,,,,,,,,,,,,,,,,,,,,,,,,,,,,,,,,,,,,0.065,,,,,,,,,,,,,,,,,,,,,,,,,,,,right,1,160,30,190,1,3152.581397,3152.581397,3152.581397,None,None,3,0,0.4883723,,,,,,,,,,,,,,,,,,,1,10,1,2024-10-22_08h15.11.064,uWM_experiment,2022.2.3,59.98616719
,,,,,,,,,,,,,,,,,,,,9,0,9,0,18,0,18,0,,,,,,,,,,,,,,,,,,,,,,,,,,,,,,,,,,,,,,,,,,,,,,,,,,,,,,,,,,,,,,,,,,,,,,0.055,,,,,,,,,,,,,,,,,,,,,,,,,,,,left,0,130,30,160,1,3158.381598,3158.381598,3158.381598,None,None,1,1,0.3201167,,,,,,,,,,,,,,,,,,,1,10,1,2024-10-22_08h15.11.064,uWM_experiment,2022.2.3,59.98616719
,,,,,,,,,,,,,,,,,,,,9,0,9,0,19,0,19,0,,,,,,,,,,,,,,,,,,,,,,,,,,,,,,,,,,,,,,,,,,,,,,,,,,,,,,,,,,,,,,,,,,,,,,0,,,,,,,,,,,,,,,,,,,,,,,,,,,,left,0,130,30,160,0,3164.148544,3164.148544,3164.148544,None,None,1,1,0.1531427,,,,,,,,,,,,,,,,,,,1,10,1,2024-10-22_08h15.11.064,uWM_experiment,2022.2.3,59.98616719
,,,,,,,,,,,,,,,,,,,,9,0,9,0,20,0,20,0,,,,,,,,,,,,,,,,,,,,,,,,,,,,,,,,,,,,,,,,,,,,,,,,,,,,,,,,,,,,,,,,,,,,,,0,,,,,,,,,,,,,,,,,,,,,,,,,,,,right,1,160,30,190,0,3169.832116,3169.832116,3169.832116,None,None,1,1,0.3496739,,,,,,,,,,,,,,,,,,,1,10,1,2024-10-22_08h15.11.064,uWM_experiment,2022.2.3,59.98616719
,,,,,,,,,,,,,,,,,,,,9,0,9,0,21,0,21,0,,,,,,,,,,,,,,,,,,,,,,,,,,,,,,,,,,,,,,,,,,,,,,,,,,,,,,,,,,,,,,,,,,,,,,0.065,,,,,,,,,,,,,,,,,,,,,,,,,,,,right,1,10,30,40,1,3175.515707,3175.515707,3175.515707,None,None,3,0,0.4020181,,,,,,,,,,,,,,,,,,,1,10,1,2024-10-22_08h15.11.064,uWM_experiment,2022.2.3,59.98616719
,,,,,,,,,,,,,,,,,,,,9,0,9,0,22,0,22,0,,,,,,,,,,,,,,,,,,,,,,,,,,,,,,,,,,,,,,,,,,,,,,,,,,,,,,,,,,,,,,,,,,,,,,0.055,,,,,,,,,,,,,,,,,,,,,,,,,,,,left,0,130,30,160,1,3181.31599,3181.31599,3181.31599,None,None,1,1,0.4098098,,,,,,,,,,,,,,,,,,,1,10,1,2024-10-22_08h15.11.064,uWM_experiment,2022.2.3,59.98616719
,,,,,,,,,,,,,,,,,,,,9,0,9,0,23,0,23,0,,,,,,,,,,,,,,,,,,,,,,,,,,,,,,,,,,,,,,,,,,,,,,,,,,,,,,,,,,,,,,,,,,,,,,0,,,,,,,,,,,,,,,,,,,,,,,,,,,,left,0,10,30,40,0,3189.016311,3189.016311,3189.016311,None,None,1,1,0.2135723,,,,,,,,,,,,,,,,,,,1,10,1,2024-10-22_08h15.11.064,uWM_experiment,2022.2.3,59.98616719
,,,,,,,,,,,,,,,,,,,,9,0,9,0,,,,,0,0,0,0,,,,,,,,,,,,,,,,,,,,,,,,,,,,,,,,,,,,,,,,,,,,,,,,,,,,,,,,,,,,,,,,,,,,,,,,,,,,,,,,,,,,,,,,,,,,,,,,,,,,,,,,,,,,3189.24964,3189.24964,space,780.1485754,None,None,,,,,,,,,,,,,1,10,1,2024-10-22_08h15.11.064,uWM_experiment,2022.2.3,59.98616719
