PreTrainingPAS4_loop.thisRepN,PreTrainingPAS4_loop.thisTrialN,PreTrainingPAS4_loop.thisN,PreTrainingPAS4_loop.thisIndex,PreTrainingPAS1_loop.thisRepN,PreTrainingPAS1_loop.thisTrialN,PreTrainingPAS1_loop.thisN,PreTrainingPAS1_loop.thisIndex,RepeatCV_loop.thisRepN,RepeatCV_loop.thisTrialN,RepeatCV_loop.thisN,RepeatCV_loop.thisIndex,TrainingCV_loop.thisRepN,TrainingCV_loop.thisTrialN,TrainingCV_loop.thisN,TrainingCV_loop.thisIndex,TrainingCAL_loop.thisRepN,TrainingCAL_loop.thisTrialN,TrainingCAL_loop.thisN,TrainingCAL_loop.thisIndex,blocks_loop.thisRepN,blocks_loop.thisTrialN,blocks_loop.thisN,blocks_loop.thisIndex,trials_loop.thisRepN,trials_loop.thisTrialN,trials_loop.thisN,trials_loop.thisIndex,TrainingPAS1_loop.thisRepN,TrainingPAS1_loop.thisTrialN,TrainingPAS1_loop.thisN,TrainingPAS1_loop.thisIndex,spacebarWelcome0.started,spacebarWelcome0.keys,spacebarWelcome0.rt,spacebarWelcome1.started,gaborWelcome1.started,maskWelcome1.started,textMaskWelcome1.started,spacebarWelcome1.keys,spacebarWelcome1.rt,spacebarWelcome2.started,spacebarWelcome2.keys,spacebarWelcome2.rt,textInst_PreTrainingPAS4.started,spacebarPreTrainingPAS4.started,spacebarPreTrainingPAS4.keys,spacebarPreTrainingPAS4.rt,textPreTrainingPAS1.started,spacebarPreTrainingPAS1.started,spacebarPreTrainingPAS1.keys,spacebarPreTrainingPAS1.rt,textQUEST0.started,spacebarQUEST0.started,spacebarQUEST0.keys,spacebarQUEST0.rt,spacebar0.started,spacebar0.keys,spacebar0.rt,spacebar1.started,spacebar1.keys,spacebar1.rt,textInstructions2.started,spacebar2.started,Gabor1Inst2.started,Gabor2Inst2.started,Gabor3Inst2.started,Gabor4Inst2.started,spacebar2.keys,spacebar2.rt,textInstructionsPAS.started,spacebarInstPAS.started,spacebarInstPAS.keys,spacebarInstPAS.rt,textInstructions3.started,spacebar3.started,spacebar3.keys,spacebar3.rt,WMresp_CV,WMresp_CV_acc,oriMemo_CV,gyre_CV,oriTest_CV,feedbackText.started,sliderCV.started,PAStextCV.started,PASkeyCV.started,sliderCV.response,sliderCV.rt,PASkeyCV.keys,PASkeyCV.corr,PASkeyCV.rt,feedbackText.stopped,TextInstructionsCAL.started,spacebarCAL.started,spacebarCAL.keys,spacebarCAL.rt,contrast,WMresp_CAL,WMresp_CAL_acc,oriMemo_CAL,gyre_CAL,oriTest_CAL,cue_CAL,sliderCAL.started,PAStextCAL.started,PASkeyCAL.started,sliderCAL.response,sliderCAL.rt,PASkeyCAL.keys,PASkeyCAL.corr,PASkeyCAL.rt,propUnseen_CAL,textStart.started,spacebar4.started,spacebar4.keys,spacebar4.rt,three.started,three.stopped,two.started,two.stopped,one.started,one.stopped,blank_countdown.started,blank_countdown.stopped,WMresp,WMresp_acc,oriMemo,gyre,oriTest,cue,slider.started,textPAS_firstGabor.started,PASkey.started,slider.response,slider.rt,PASkey.keys,PASkey.corr,PASkey.rt,spacebarContinue.started,textBreak.started,spacebarContinue.keys,spacebarContinue.rt,spacebar_reminder.keys,spacebar_TrainingPAS1.keys,spacebar_endpractice.keys,spacebar_reminder.started,textReminder.started,spacebar_reminder.rt,textInst_TrainingPAS1.started,spacebar_TrainingPAS1.started,spacebar_TrainingPAS1.rt,textend_practicePAS1.started,spacebar_endpractice.started,spacebar_endpractice.rt,textThanks.started,textThanks.stopped,laboratory,participant,session,date,expName,psychopyVersion,frameRate
,,,,,,,,,,,,,,,,,,,,,,,,,,,,,,,,112.1552835,space,5.6226556,,,,,,,,,,,,,,,,,,,,,,,,,,,,,,,,,,,,,,,,,,,,,,,,,,,,,,,,,,,,,,,,,,,,,,,,,,,,,,,,,,,,,,,,,,,,,,,,,,,,,,,,,,,,,,,,,,,,,,,,,,,10,11,1,2024-10-25_14h10.47.405,uWM_experiment,2022.2.3,60.00376824
,,,,,,,,,,,,,,,,,,,,,,,,,,,,,,,,,,,117.8218593,117.8218593,117.8218593,117.8218593,space,22.6999587,,,,,,,,,,,,,,,,,,,,,,,,,,,,,,,,,,,,,,,,,,,,,,,,,,,,,,,,,,,,,,,,,,,,,,,,,,,,,,,,,,,,,,,,,,,,,,,,,,,,,,,,,,,,,,,,,,,,,10,11,1,2024-10-25_14h10.47.405,uWM_experiment,2022.2.3,60.00376824
,,,,,,,,,,,,,,,,,,,,,,,,,,,,,,,,,,,,,,,,,140.5393916,space,25.9102303,,,,,,,,,,,,,,,,,,,,,,,,,,,,,,,,,,,,,,,,,,,,,,,,,,,,,,,,,,,,,,,,,,,,,,,,,,,,,,,,,,,,,,,,,,,,,,,,,,,,,,,,,,,,,,,,,,10,11,1,2024-10-25_14h10.47.405,uWM_experiment,2022.2.3,60.00376824
,,,,,,,,,,,,,,,,,,,,,,,,,,,,,,,,,,,,,,,,,,,,166.4737305,166.4737305,space,17.4717979,,,,,,,,,,,,,,,,,,,,,,,,,,,,,,,,,,,,,,,,,,,,,,,,,,,,,,,,,,,,,,,,,,,,,,,,,,,,,,,,,,,,,,,,,,,,,,,,,,,,,,,,,,,,,,10,11,1,2024-10-25_14h10.47.405,uWM_experiment,2022.2.3,60.00376824
0,0,0,0,,,,,,,,,,,,,,,,,,,,,,,,,,,,,,,,,,,,,,,,,,,,,,,,,,,,,,,,,,,,,,,,,,,,,,,,,,,,,,,,,,,,,,,,,,,,,,,,,,,,,,,,,,,,,,,,,,,,,,,,,,,,,,,,,,,,,,,,,,,,,,,,,,,,,,,,,,10,11,1,2024-10-25_14h10.47.405,uWM_experiment,2022.2.3,60.00376824
1,0,1,0,,,,,,,,,,,,,,,,,,,,,,,,,,,,,,,,,,,,,,,,,,,,,,,,,,,,,,,,,,,,,,,,,,,,,,,,,,,,,,,,,,,,,,,,,,,,,,,,,,,,,,,,,,,,,,,,,,,,,,,,,,,,,,,,,,,,,,,,,,,,,,,,,,,,,,,,,,10,11,1,2024-10-25_14h10.47.405,uWM_experiment,2022.2.3,60.00376824
2,0,2,0,,,,,,,,,,,,,,,,,,,,,,,,,,,,,,,,,,,,,,,,,,,,,,,,,,,,,,,,,,,,,,,,,,,,,,,,,,,,,,,,,,,,,,,,,,,,,,,,,,,,,,,,,,,,,,,,,,,,,,,,,,,,,,,,,,,,,,,,,,,,,,,,,,,,,,,,,,10,11,1,2024-10-25_14h10.47.405,uWM_experiment,2022.2.3,60.00376824
,,,,,,,,,,,,,,,,,,,,,,,,,,,,,,,,,,,,,,,,,,,,,,,,191.9080617,191.9080617,space,21.8772791,,,,,,,,,,,,,,,,,,,,,,,,,,,,,,,,,,,,,,,,,,,,,,,,,,,,,,,,,,,,,,,,,,,,,,,,,,,,,,,,,,,,,,,,,,,,,,,,,,,,,,,,,,10,11,1,2024-10-25_14h10.47.405,uWM_experiment,2022.2.3,60.00376824
,,,,0,0,0,0,,,,,,,,,,,,,,,,,,,,,,,,,,,,,,,,,,,,,,,,,,,,,,,,,,,,,,,,,,,,,,,,,,,,,,,,,,,,,,,,,,,,,,,,,,,,,,,,,,,,,,,,,,,,,,,,,,,,,,,,,,,,,,,,,,,,,,,,,,,,,,,,,,,,,,10,11,1,2024-10-25_14h10.47.405,uWM_experiment,2022.2.3,60.00376824
,,,,1,0,1,0,,,,,,,,,,,,,,,,,,,,,,,,,,,,,,,,,,,,,,,,,,,,,,,,,,,,,,,,,,,,,,,,,,,,,,,,,,,,,,,,,,,,,,,,,,,,,,,,,,,,,,,,,,,,,,,,,,,,,,,,,,,,,,,,,,,,,,,,,,,,,,,,,,,,,,10,11,1,2024-10-25_14h10.47.405,uWM_experiment,2022.2.3,60.00376824
,,,,2,0,2,0,,,,,,,,,,,,,,,,,,,,,,,,,,,,,,,,,,,,,,,,,,,,,,,,,,,,,,,,,,,,,,,,,,,,,,,,,,,,,,,,,,,,,,,,,,,,,,,,,,,,,,,,,,,,,,,,,,,,,,,,,,,,,,,,,,,,,,,,,,,,,,,,,,,,,,10,11,1,2024-10-25_14h10.47.405,uWM_experiment,2022.2.3,60.00376824
,,,,,,,,,,,,,,,,,,,,,,,,,,,,,,,,,,,,,,,,,,,,,,,,,,,,221.4092094,221.4092094,space,13.4400757,,,,,,,,,,,,,,,,,,,,,,,,,,,,,,,,,,,,,,,,,,,,,,,,,,,,,,,,,,,,,,,,,,,,,,,,,,,,,,,,,,,,,,,,,,,,,,,,,,,,,,10,11,1,2024-10-25_14h10.47.405,uWM_experiment,2022.2.3,60.00376824
,,,,,,,,,,,,,,,,,,,,,,,,,,,,,,,,,,,,,,,,,,,,,,,,,,,,,,,,371.365123,space,21.3633116,,,,,,,,,,,,,,,,,,,,,,,,,,,,,,,,,,,,,,,,,,,,,,,,,,,,,,,,,,,,,,,,,,,,,,,,,,,,,,,,,,,,,,,,,,,,,,,,,,,10,11,1,2024-10-25_14h10.47.405,uWM_experiment,2022.2.3,60.00376824
,,,,,,,,,,,,,,,,,,,,,,,,,,,,,,,,,,,,,,,,,,,,,,,,,,,,,,,,,,,392.7492661,space,48.6748711,,,,,,,,,,,,,,,,,,,,,,,,,,,,,,,,,,,,,,,,,,,,,,,,,,,,,,,,,,,,,,,,,,,,,,,,,,,,,,,,,,,,,,,,,,,,,,,,10,11,1,2024-10-25_14h10.47.405,uWM_experiment,2022.2.3,60.00376824
,,,,,,,,,,,,,,,,,,,,,,,,,,,,,,,,,,,,,,,,,,,,,,,,,,,,,,,,,,,,,,441.4512169,441.4512169,441.4512169,441.4512169,441.4512169,441.4512169,space,82.6204813,,,,,,,,,,,,,,,,,,,,,,,,,,,,,,,,,,,,,,,,,,,,,,,,,,,,,,,,,,,,,,,,,,,,,,,,,,,,,,,,,,,,,,,,10,11,1,2024-10-25_14h10.47.405,uWM_experiment,2022.2.3,60.00376824
,,,,,,,,,,,,,,,,,,,,,,,,,,,,,,,,,,,,,,,,,,,,,,,,,,,,,,,,,,,,,,,,,,,,,,524.1044283,524.1044283,space,17.2391935,,,,,,,,,,,,,,,,,,,,,,,,,,,,,,,,,,,,,,,,,,,,,,,,,,,,,,,,,,,,,,,,,,,,,,,,,,,,,,,,,,,,10,11,1,2024-10-25_14h10.47.405,uWM_experiment,2022.2.3,60.00376824
,,,,,,,,,,,,,,,,,,,,,,,,,,,,,,,,,,,,,,,,,,,,,,,,,,,,,,,,,,,,,,,,,,,,,,,,,,541.3717889,541.3717889,space,20.6757265,,,,,,,,,,,,,,,,,,,,,,,,,,,,,,,,,,,,,,,,,,,,,,,,,,,,,,,,,,,,,,,,,,,,,,,,,,,,,,,,10,11,1,2024-10-25_14h10.47.405,uWM_experiment,2022.2.3,60.00376824
,,,,,,,,0,0,0,0,0,0,0,0,,,,,,,,,,,,,,,,,,,,,,,,,,,,,,,,,,,,,,,,,,,,,,,,,,,,,,,,,,,,,,,right,1,130,30,160,569.3395567,570.3396137,570.3396137,570.3396137,None,None,4,0,1.1957518,,,,,,,,,,,,,,,,,,,,,,,,,,,,,,,,,,,,,,,,,,,,,,,,,,,,,,,,,,,,,,,,,,10,11,1,2024-10-25_14h10.47.405,uWM_experiment,2022.2.3,60.00376824
,,,,,,,,0,0,0,0,1,0,1,0,,,,,,,,,,,,,,,,,,,,,,,,,,,,,,,,,,,,,,,,,,,,,,,,,,,,,,,,,,,,,,,left,1,40,-30,10,577.6398913,578.639992,578.639992,578.639992,None,None,4,0,0.4314166,578.639992,,,,,,,,,,,,,,,,,,,,,,,,,,,,,,,,,,,,,,,,,,,,,,,,,,,,,,,,,,,,,,,,,10,11,1,2024-10-25_14h10.47.405,uWM_experiment,2022.2.3,60.00376824
,,,,,,,,0,0,0,0,2,0,2,0,,,,,,,,,,,,,,,,,,,,,,,,,,,,,,,,,,,,,,,,,,,,,,,,,,,,,,,,,,,,,,,right,1,10,30,40,585.0902017,586.0902236,586.0902236,586.0902236,None,None,4,0,0.453006,586.0902236,,,,,,,,,,,,,,,,,,,,,,,,,,,,,,,,,,,,,,,,,,,,,,,,,,,,,,,,,,,,,,,,,10,11,1,2024-10-25_14h10.47.405,uWM_experiment,2022.2.3,60.00376824
,,,,,,,,0,0,0,0,3,0,3,0,,,,,,,,,,,,,,,,,,,,,,,,,,,,,,,,,,,,,,,,,,,,,,,,,,,,,,,,,,,,,,,left,1,130,-30,100,593.9071869,594.9072212,594.9072212,594.9072212,None,None,4,0,7.3480881,594.9072212,,,,,,,,,,,,,,,,,,,,,,,,,,,,,,,,,,,,,,,,,,,,,,,,,,,,,,,,,,,,,,,,,10,11,1,2024-10-25_14h10.47.405,uWM_experiment,2022.2.3,60.00376824
,,,,,,,,0,0,0,0,4,0,4,0,,,,,,,,,,,,,,,,,,,,,,,,,,,,,,,,,,,,,,,,,,,,,,,,,,,,,,,,,,,,,,,right,1,10,30,40,608.2577492,609.2578084,609.2578084,609.2578084,None,None,4,0,0.549473,,,,,,,,,,,,,,,,,,,,,,,,,,,,,,,,,,,,,,,,,,,,,,,,,,,,,,,,,,,,,,,,,,10,11,1,2024-10-25_14h10.47.405,uWM_experiment,2022.2.3,60.00376824
,,,,,,,,0,0,0,0,5,0,5,0,,,,,,,,,,,,,,,,,,,,,,,,,,,,,,,,,,,,,,,,,,,,,,,,,,,,,,,,,,,,,,,right,1,70,30,100,615.7914134,616.7914219,616.7914219,616.7914219,None,None,4,0,0.4958022,616.7914219,,,,,,,,,,,,,,,,,,,,,,,,,,,,,,,,,,,,,,,,,,,,,,,,,,,,,,,,,,,,,,,,,10,11,1,2024-10-25_14h10.47.405,uWM_experiment,2022.2.3,60.00376824
,,,,,,,,0,0,0,0,6,0,6,0,,,,,,,,,,,,,,,,,,,,,,,,,,,,,,,,,,,,,,,,,,,,,,,,,,,,,,,,,,,,,,,left,1,130,-30,100,624.9417652,625.9417712,625.9417712,625.9417712,None,None,4,0,0.7774758,625.9417712,,,,,,,,,,,,,,,,,,,,,,,,,,,,,,,,,,,,,,,,,,,,,,,,,,,,,,,,,,,,,,,,,10,11,1,2024-10-25_14h10.47.405,uWM_experiment,2022.2.3,60.00376824
,,,,,,,,0,0,0,0,7,0,7,0,,,,,,,,,,,,,,,,,,,,,,,,,,,,,,,,,,,,,,,,,,,,,,,,,,,,,,,,,,,,,,,left,1,70,-30,40,633.5587541,634.5588131,634.5588131,634.5588131,None,None,4,0,0.4323018,634.5588131,,,,,,,,,,,,,,,,,,,,,,,,,,,,,,,,,,,,,,,,,,,,,,,,,,,,,,,,,,,,,,,,,10,11,1,2024-10-25_14h10.47.405,uWM_experiment,2022.2.3,60.00376824
,,,,,,,,0,0,0,0,8,0,8,0,,,,,,,,,,,,,,,,,,,,,,,,,,,,,,,,,,,,,,,,,,,,,,,,,,,,,,,,,,,,,,,right,1,70,30,100,640.9923952,641.9924032,641.9924032,641.9924032,None,None,4,0,0.4305732,641.9924032,,,,,,,,,,,,,,,,,,,,,,,,,,,,,,,,,,,,,,,,,,,,,,,,,,,,,,,,,,,,,,,,,10,11,1,2024-10-25_14h10.47.405,uWM_experiment,2022.2.3,60.00376824
,,,,,,,,0,0,0,0,9,0,9,0,,,,,,,,,,,,,,,,,,,,,,,,,,,,,,,,,,,,,,,,,,,,,,,,,,,,,,,,,,,,,,,right,1,40,30,70,648.1926966,649.1927286,649.1927286,649.1927286,None,None,4,0,0.4541963,,,,,,,,,,,,,,,,,,,,,,,,,,,,,,,,,,,,,,,,,,,,,,,,,,,,,,,,,,,,,,,,,,10,11,1,2024-10-25_14h10.47.405,uWM_experiment,2022.2.3,60.00376824
,,,,,,,,0,0,0,0,10,0,10,0,,,,,,,,,,,,,,,,,,,,,,,,,,,,,,,,,,,,,,,,,,,,,,,,,,,,,,,,,,,,,,,right,1,160,30,190,655.6262877,656.6263232,656.6263232,656.6263232,None,None,4,0,0.4606974,,,,,,,,,,,,,,,,,,,,,,,,,,,,,,,,,,,,,,,,,,,,,,,,,,,,,,,,,,,,,,,,,,10,11,1,2024-10-25_14h10.47.405,uWM_experiment,2022.2.3,60.00376824
,,,,,,,,0,0,0,0,11,0,11,0,,,,,,,,,,,,,,,,,,,,,,,,,,,,,,,,,,,,,,,,,,,,,,,,,,,,,,,,,,,,,,,left,1,100,-30,70,663.2766046,664.2766243,664.2766243,664.2766243,None,None,4,0,0.4182111,664.2766243,,,,,,,,,,,,,,,,,,,,,,,,,,,,,,,,,,,,,,,,,,,,,,,,,,,,,,,,,,,,,,,,,10,11,1,2024-10-25_14h10.47.405,uWM_experiment,2022.2.3,60.00376824
,,,,,,,,0,0,0,0,,,,,,,,,,,,,,,,,,,,,,,,,,,,,,,,,,,,,,,,,,,,,,,,,,,,,,,,,,,,,,,,,,,,,,,,,,,,,,,,,,,,,,,,,,,,,,,,,,,,,,,,,,,,,,,,,,,,,,,,,,,,,,,,,,,,,,,,,,,,,,,,,,10,11,1,2024-10-25_14h10.47.405,uWM_experiment,2022.2.3,60.00376824
,,,,,,,,,,,,,,,,,,,,,,,,,,,,,,,,,,,,,,,,,,,,,,,,,,,,,,,,,,,,,,,,,,,,,,,,,,,,,,,,,,,,,,,,,,,,,677.9938469,677.9938469,space,30.9408309,,,,,,,,,,,,,,,,,,,,,,,,,,,,,,,,,,,,,,,,,,,,,,,,,,,,,,,,,,,,,10,11,1,2024-10-25_14h10.47.405,uWM_experiment,2022.2.3,60.00376824
,,,,,,,,,,,,,,,,0,0,0,0,,,,,,,,,,,,,,,,,,,,,,,,,,,,,,,,,,,,,,,,,,,,,,,,,,,,,,,,,,,,,,,,,,,,,,,,,,,,,,0.005,left,1,70,-30,40,1,714.8453037,714.8453037,714.8453037,None,None,2,0,3.8413512,,,,,,,,,,,,,,,,,,,,,,,,,,,,,,,,,,,,,,,,,,,,,,10,11,1,2024-10-25_14h10.47.405,uWM_experiment,2022.2.3,60.00376824
,,,,,,,,,,,,,,,,1,0,1,0,,,,,,,,,,,,,,,,,,,,,,,,,,,,,,,,,,,,,,,,,,,,,,,,,,,,,,,,,,,,,,,,,,,,,,,,,,,,,,0.1,right,1,40,30,70,2,726.8624472,726.8624472,726.8624472,None,None,4,0,0.6003507,0,,,,,,,,,,,,,,,,,,,,,,,,,,,,,,,,,,,,,,,,,,,,,10,11,1,2024-10-25_14h10.47.405,uWM_experiment,2022.2.3,60.00376824
,,,,,,,,,,,,,,,,2,0,2,0,,,,,,,,,,,,,,,,,,,,,,,,,,,,,,,,,,,,,,,,,,,,,,,,,,,,,,,,,,,,,,,,,,,,,,,,,,,,,,0.005,right,1,160,30,190,1,733.8460311,733.8460311,733.8460311,None,None,3,0,1.2645261,0,,,,,,,,,,,,,,,,,,,,,,,,,,,,,,,,,,,,,,,,,,,,,10,11,1,2024-10-25_14h10.47.405,uWM_experiment,2022.2.3,60.00376824
,,,,,,,,,,,,,,,,3,0,3,0,,,,,,,,,,,,,,,,,,,,,,,,,,,,,,,,,,,,,,,,,,,,,,,,,,,,,,,,,,,,,,,,,,,,,,,,,,,,,,0.1,left,1,10,-30,-20,2,741.162997,741.162997,741.162997,None,None,4,0,0.7955685,0,,,,,,,,,,,,,,,,,,,,,,,,,,,,,,,,,,,,,,,,,,,,,10,11,1,2024-10-25_14h10.47.405,uWM_experiment,2022.2.3,60.00376824
,,,,,,,,,,,,,,,,4,0,4,0,,,,,,,,,,,,,,,,,,,,,,,,,,,,,,,,,,,,,,,,,,,,,,,,,,,,,,,,,,,,,,,,,,,,,,,,,,,,,,0.005,left,0,100,30,130,1,747.8299363,747.8299363,747.8299363,None,None,4,0,2.0726626,0,,,,,,,,,,,,,,,,,,,,,,,,,,,,,,,,,,,,,,,,,,,,,10,11,1,2024-10-25_14h10.47.405,uWM_experiment,2022.2.3,60.00376824
,,,,,,,,,,,,,,,,5,0,5,0,,,,,,,,,,,,,,,,,,,,,,,,,,,,,,,,,,,,,,,,,,,,,,,,,,,,,,,,,,,,,,,,,,,,,,,,,,,,,,0.005,left,1,10,-30,-20,1,756.3135961,756.3135961,756.3135961,None,None,3,0,1.9807958,0,,,,,,,,,,,,,,,,,,,,,,,,,,,,,,,,,,,,,,,,,,,,,10,11,1,2024-10-25_14h10.47.405,uWM_experiment,2022.2.3,60.00376824
,,,,,,,,,,,,,,,,6,0,6,0,,,,,,,,,,,,,,,,,,,,,,,,,,,,,,,,,,,,,,,,,,,,,,,,,,,,,,,,,,,,,,,,,,,,,,,,,,,,,,0.005,left,0,70,30,100,1,766.0639862,766.0639862,766.0639862,None,None,2,0,0.3904349,0,,,,,,,,,,,,,,,,,,,,,,,,,,,,,,,,,,,,,,,,,,,,,10,11,1,2024-10-25_14h10.47.405,uWM_experiment,2022.2.3,60.00376824
,,,,,,,,,,,,,,,,7,0,7,0,,,,,,,,,,,,,,,,,,,,,,,,,,,,,,,,,,,,,,,,,,,,,,,,,,,,,,,,,,,,,,,,,,,,,,,,,,,,,,0.005,left,1,130,-30,100,1,773.4476139,773.4476139,773.4476139,None,None,2,0,0.4627361,0,,,,,,,,,,,,,,,,,,,,,,,,,,,,,,,,,,,,,,,,,,,,,10,11,1,2024-10-25_14h10.47.405,uWM_experiment,2022.2.3,60.00376824
,,,,,,,,,,,,,,,,8,0,8,0,,,,,,,,,,,,,,,,,,,,,,,,,,,,,,,,,,,,,,,,,,,,,,,,,,,,,,,,,,,,,,,,,,,,,,,,,,,,,,0.1,left,1,40,-30,10,2,780.1645225,780.1645225,780.1645225,None,None,4,0,0.4257928,0,,,,,,,,,,,,,,,,,,,,,,,,,,,,,,,,,,,,,,,,,,,,,10,11,1,2024-10-25_14h10.47.405,uWM_experiment,2022.2.3,60.00376824
,,,,,,,,,,,,,,,,9,0,9,0,,,,,,,,,,,,,,,,,,,,,,,,,,,,,,,,,,,,,,,,,,,,,,,,,,,,,,,,,,,,,,,,,,,,,,,,,,,,,,0.1,left,1,70,-30,40,2,786.9981325,786.9981325,786.9981325,None,None,4,0,0.3841421,0,,,,,,,,,,,,,,,,,,,,,,,,,,,,,,,,,,,,,,,,,,,,,10,11,1,2024-10-25_14h10.47.405,uWM_experiment,2022.2.3,60.00376824
,,,,,,,,,,,,,,,,10,0,10,0,,,,,,,,,,,,,,,,,,,,,,,,,,,,,,,,,,,,,,,,,,,,,,,,,,,,,,,,,,,,,,,,,,,,,,,,,,,,,,0.1,right,1,100,30,130,2,793.4817255,793.4817255,793.4817255,None,None,4,0,0.4683758,0,,,,,,,,,,,,,,,,,,,,,,,,,,,,,,,,,,,,,,,,,,,,,10,11,1,2024-10-25_14h10.47.405,uWM_experiment,2022.2.3,60.00376824
,,,,,,,,,,,,,,,,11,0,11,0,,,,,,,,,,,,,,,,,,,,,,,,,,,,,,,,,,,,,,,,,,,,,,,,,,,,,,,,,,,,,,,,,,,,,,,,,,,,,,0.005,left,1,130,-30,100,1,799.898639,799.898639,799.898639,None,None,3,0,0.8915064,0,,,,,,,,,,,,,,,,,,,,,,,,,,,,,,,,,,,,,,,,,,,,,10,11,1,2024-10-25_14h10.47.405,uWM_experiment,2022.2.3,60.00376824
,,,,,,,,,,,,,,,,12,0,12,0,,,,,,,,,,,,,,,,,,,,,,,,,,,,,,,,,,,,,,,,,,,,,,,,,,,,,,,,,,,,,,,,,,,,,,,,,,,,,,0.005,right,1,100,30,130,1,809.2323516,809.2323516,809.2323516,None,None,2,0,2.2778781,0,,,,,,,,,,,,,,,,,,,,,,,,,,,,,,,,,,,,,,,,,,,,,10,11,1,2024-10-25_14h10.47.405,uWM_experiment,2022.2.3,60.00376824
,,,,,,,,,,,,,,,,13,0,13,0,,,,,,,,,,,,,,,,,,,,,,,,,,,,,,,,,,,,,,,,,,,,,,,,,,,,,,,,,,,,,,,,,,,,,,,,,,,,,,0.1,right,1,70,30,100,2,818.8327326,818.8327326,818.8327326,None,None,4,0,1.6453577,0,,,,,,,,,,,,,,,,,,,,,,,,,,,,,,,,,,,,,,,,,,,,,10,11,1,2024-10-25_14h10.47.405,uWM_experiment,2022.2.3,60.00376824
,,,,,,,,,,,,,,,,14,0,14,0,,,,,,,,,,,,,,,,,,,,,,,,,,,,,,,,,,,,,,,,,,,,,,,,,,,,,,,,,,,,,,,,,,,,,,,,,,,,,,0.1,right,1,160,30,190,2,826.4330352,826.4330352,826.4330352,None,None,4,0,0.3889557,0,,,,,,,,,,,,,,,,,,,,,,,,,,,,,,,,,,,,,,,,,,,,,10,11,1,2024-10-25_14h10.47.405,uWM_experiment,2022.2.3,60.00376824
,,,,,,,,,,,,,,,,15,0,15,0,,,,,,,,,,,,,,,,,,,,,,,,,,,,,,,,,,,,,,,,,,,,,,,,,,,,,,,,,,,,,,,,,,,,,,,,,,,,,,0.005,left,0,100,30,130,1,833.5166371,833.5166371,833.5166371,None,None,3,0,0.8653725,0,,,,,,,,,,,,,,,,,,,,,,,,,,,,,,,,,,,,,,,,,,,,,10,11,1,2024-10-25_14h10.47.405,uWM_experiment,2022.2.3,60.00376824
,,,,,,,,,,,,,,,,16,0,16,0,,,,,,,,,,,,,,,,,,,,,,,,,,,,,,,,,,,,,,,,,,,,,,,,,,,,,,,,,,,,,,,,,,,,,,,,,,,,,,0.1,right,1,40,30,70,2,840.5335851,840.5335851,840.5335851,None,None,4,0,0.4723025,0,,,,,,,,,,,,,,,,,,,,,,,,,,,,,,,,,,,,,,,,,,,,,10,11,1,2024-10-25_14h10.47.405,uWM_experiment,2022.2.3,60.00376824
,,,,,,,,,,,,,,,,17,0,17,0,,,,,,,,,,,,,,,,,,,,,,,,,,,,,,,,,,,,,,,,,,,,,,,,,,,,,,,,,,,,,,,,,,,,,,,,,,,,,,0.005,left,0,130,30,160,1,847.3338562,847.3338562,847.3338562,None,None,2,0,1.1761756,0,,,,,,,,,,,,,,,,,,,,,,,,,,,,,,,,,,,,,,,,,,,,,10,11,1,2024-10-25_14h10.47.405,uWM_experiment,2022.2.3,60.00376824
,,,,,,,,,,,,,,,,18,0,18,0,,,,,,,,,,,,,,,,,,,,,,,,,,,,,,,,,,,,,,,,,,,,,,,,,,,,,,,,,,,,,,,,,,,,,,,,,,,,,,0.1,left,1,160,-30,130,2,854.8674718,854.8674718,854.8674718,None,None,4,0,0.3303882,0,,,,,,,,,,,,,,,,,,,,,,,,,,,,,,,,,,,,,,,,,,,,,10,11,1,2024-10-25_14h10.47.405,uWM_experiment,2022.2.3,60.00376824
,,,,,,,,,,,,,,,,19,0,19,0,,,,,,,,,,,,,,,,,,,,,,,,,,,,,,,,,,,,,,,,,,,,,,,,,,,,,,,,,,,,,,,,,,,,,,,,,,,,,,0.005,left,0,40,30,70,1,863.1511463,863.1511463,863.1511463,None,None,4,0,2.6545767,0,,,,,,,,,,,,,,,,,,,,,,,,,,,,,,,,,,,,,,,,,,,,,10,11,1,2024-10-25_14h10.47.405,uWM_experiment,2022.2.3,60.00376824
,,,,,,,,,,,,,,,,20,0,20,0,,,,,,,,,,,,,,,,,,,,,,,,,,,,,,,,,,,,,,,,,,,,,,,,,,,,,,,,,,,,,,,,,,,,,,,,,,,,,,0.1,left,1,10,-30,-20,2,871.9014871,871.9014871,871.9014871,None,None,4,0,0.7361972,0,,,,,,,,,,,,,,,,,,,,,,,,,,,,,,,,,,,,,,,,,,,,,10,11,1,2024-10-25_14h10.47.405,uWM_experiment,2022.2.3,60.00376824
,,,,,,,,,,,,,,,,21,0,21,0,,,,,,,,,,,,,,,,,,,,,,,,,,,,,,,,,,,,,,,,,,,,,,,,,,,,,,,,,,,,,,,,,,,,,,,,,,,,,,0.1,left,1,10,-30,-20,2,878.651756,878.651756,878.651756,None,None,4,0,0.3858975,0,,,,,,,,,,,,,,,,,,,,,,,,,,,,,,,,,,,,,,,,,,,,,10,11,1,2024-10-25_14h10.47.405,uWM_experiment,2022.2.3,60.00376824
,,,,,,,,,,,,,,,,22,0,22,0,,,,,,,,,,,,,,,,,,,,,,,,,,,,,,,,,,,,,,,,,,,,,,,,,,,,,,,,,,,,,,,,,,,,,,,,,,,,,,0.005,left,1,160,-30,130,1,885.2686798,885.2686798,885.2686798,None,None,4,0,1.1689477,0,,,,,,,,,,,,,,,,,,,,,,,,,,,,,,,,,,,,,,,,,,,,,10,11,1,2024-10-25_14h10.47.405,uWM_experiment,2022.2.3,60.00376824
,,,,,,,,,,,,,,,,23,0,23,0,,,,,,,,,,,,,,,,,,,,,,,,,,,,,,,,,,,,,,,,,,,,,,,,,,,,,,,,,,,,,,,,,,,,,,,,,,,,,,0.1,right,0,130,-30,100,2,894.2023643,894.2023643,894.2023643,None,None,4,0,0.5392541,0,,,,,,,,,,,,,,,,,,,,,,,,,,,,,,,,,,,,,,,,,,,,,10,11,1,2024-10-25_14h10.47.405,uWM_experiment,2022.2.3,60.00376824
,,,,,,,,,,,,,,,,,,,,,,,,,,,,,,,,,,,,,,,,,,,,,,,,,,,,,,,,,,,,,,,,,,,,,,,,,,,,,,,,,,,,,,,,,,,,,,,,,,,,,,,,,,,,,,,,,894.7690142,895.7690649,space,15.1646055,,,,,,,,,,,,,,,,,,,,,,,,,,,,,,,,,,,,,,,,,10,11,1,2024-10-25_14h10.47.405,uWM_experiment,2022.2.3,60.00376824
,,,,,,,,,,,,,,,,,,,,0,0,0,0,0,0,0,0,,,,,,,,,,,,,,,,,,,,,,,,,,,,,,,,,,,,,,,,,,,,,,,,,,,,,,,,,,,,,,,,,,,,,,0.005,,,,,,,,,,,,,,,,,,,,910.9530338,911.6530316,911.9363865,912.6364222,912.9364015,913.6364412,913.6364412,913.9864617,right,1,160,30,190,1,919.8200413,919.8200413,919.8200413,None,None,2,0,0.5853798,,,,,,,,,,,,,,,,,,,10,11,1,2024-10-25_14h10.47.405,uWM_experiment,2022.2.3,60.00376824
,,,,,,,,,,,,,,,,,,,,0,0,0,0,1,0,1,0,,,,,,,,,,,,,,,,,,,,,,,,,,,,,,,,,,,,,,,,,,,,,,,,,,,,,,,,,,,,,,,,,,,,,,0,,,,,,,,,,,,,,,,,,,,,,,,,,,,right,1,160,30,190,0,926.1369492,926.1369492,926.1369492,None,None,3,0,1.372435,,,,,,,,,,,,,,,,,,,10,11,1,2024-10-25_14h10.47.405,uWM_experiment,2022.2.3,60.00376824
,,,,,,,,,,,,,,,,,,,,0,0,0,0,2,0,2,0,,,,,,,,,,,,,,,,,,,,,,,,,,,,,,,,,,,,,,,,,,,,,,,,,,,,,,,,,,,,,,,,,,,,,,0.005,,,,,,,,,,,,,,,,,,,,,,,,,,,,right,1,10,30,40,1,933.4538986,933.4538986,933.4538986,None,None,3,0,1.759478,,,,,,,,,,,,,,,,,,,10,11,1,2024-10-25_14h10.47.405,uWM_experiment,2022.2.3,60.00376824
,,,,,,,,,,,,,,,,,,,,0,0,0,0,3,0,3,0,,,,,,,,,,,,,,,,,,,,,,,,,,,,,,,,,,,,,,,,,,,,,,,,,,,,,,,,,,,,,,,,,,,,,,0.005,,,,,,,,,,,,,,,,,,,,,,,,,,,,right,0,10,-30,-20,1,941.2875543,941.2875543,941.2875543,None,None,3,0,1.2857564,,,,,,,,,,,,,,,,,,,10,11,1,2024-10-25_14h10.47.405,uWM_experiment,2022.2.3,60.00376824
,,,,,,,,,,,,,,,,,,,,0,0,0,0,4,0,4,0,,,,,,,,,,,,,,,,,,,,,,,,,,,,,,,,,,,,,,,,,,,,,,,,,,,,,,,,,,,,,,,,,,,,,,0.005,,,,,,,,,,,,,,,,,,,,,,,,,,,,left,0,40,30,70,1,949.7712119,949.7712119,949.7712119,None,None,3,0,1.7540651,,,,,,,,,,,,,,,,,,,10,11,1,2024-10-25_14h10.47.405,uWM_experiment,2022.2.3,60.00376824
,,,,,,,,,,,,,,,,,,,,0,0,0,0,5,0,5,0,,,,,,,,,,,,,,,,,,,,,,,,,,,,,,,,,,,,,,,,,,,,,,,,,,,,,,,,,,,,,,,,,,,,,,0.005,,,,,,,,,,,,,,,,,,,,,,,,,,,,right,0,70,-30,40,1,959.5882803,959.5882803,959.5882803,None,None,1,1,0.473077,,,,,,,,,,,,,,,,,,,10,11,1,2024-10-25_14h10.47.405,uWM_experiment,2022.2.3,60.00376824
,,,,,,,,,,,,,,,,,,,,0,0,0,0,6,0,6,0,,,,,,,,,,,,,,,,,,,,,,,,,,,,,,,,,,,,,,,,,,,,,,,,,,,,,,,,,,,,,,,,,,,,,,0.015,,,,,,,,,,,,,,,,,,,,,,,,,,,,right,1,10,30,40,1,967.9219264,967.9219264,967.9219264,None,None,2,0,1.5233948,,,,,,,,,,,,,,,,,,,10,11,1,2024-10-25_14h10.47.405,uWM_experiment,2022.2.3,60.00376824
,,,,,,,,,,,,,,,,,,,,0,0,0,0,7,0,7,0,,,,,,,,,,,,,,,,,,,,,,,,,,,,,,,,,,,,,,,,,,,,,,,,,,,,,,,,,,,,,,,,,,,,,,0.005,,,,,,,,,,,,,,,,,,,,,,,,,,,,right,0,70,-30,40,1,975.7723062,975.7723062,975.7723062,None,None,3,0,1.3608894,,,,,,,,,,,,,,,,,,,10,11,1,2024-10-25_14h10.47.405,uWM_experiment,2022.2.3,60.00376824
,,,,,,,,,,,,,,,,,,,,0,0,0,0,8,0,8,0,,,,,,,,,,,,,,,,,,,,,,,,,,,,,,,,,,,,,,,,,,,,,,,,,,,,,,,,,,,,,,,,,,,,,,0.005,,,,,,,,,,,,,,,,,,,,,,,,,,,,left,0,100,30,130,1,983.2892,983.2892,983.2892,None,None,4,0,0.8678984,,,,,,,,,,,,,,,,,,,10,11,1,2024-10-25_14h10.47.405,uWM_experiment,2022.2.3,60.00376824
,,,,,,,,,,,,,,,,,,,,0,0,0,0,9,0,9,0,,,,,,,,,,,,,,,,,,,,,,,,,,,,,,,,,,,,,,,,,,,,,,,,,,,,,,,,,,,,,,,,,,,,,,0.005,,,,,,,,,,,,,,,,,,,,,,,,,,,,left,0,130,30,160,1,990.7228102,990.7228102,990.7228102,None,None,3,0,1.0182353,,,,,,,,,,,,,,,,,,,10,11,1,2024-10-25_14h10.47.405,uWM_experiment,2022.2.3,60.00376824
,,,,,,,,,,,,,,,,,,,,0,0,0,0,10,0,10,0,,,,,,,,,,,,,,,,,,,,,,,,,,,,,,,,,,,,,,,,,,,,,,,,,,,,,,,,,,,,,,,,,,,,,,0.005,,,,,,,,,,,,,,,,,,,,,,,,,,,,right,0,70,-30,40,1,998.9731534,998.9731534,998.9731534,None,None,3,0,0.9038453,,,,,,,,,,,,,,,,,,,10,11,1,2024-10-25_14h10.47.405,uWM_experiment,2022.2.3,60.00376824
,,,,,,,,,,,,,,,,,,,,0,0,0,0,11,0,11,0,,,,,,,,,,,,,,,,,,,,,,,,,,,,,,,,,,,,,,,,,,,,,,,,,,,,,,,,,,,,,,,,,,,,,,0.005,,,,,,,,,,,,,,,,,,,,,,,,,,,,right,1,40,30,70,1,1006.140099,1006.140099,1006.140099,None,None,2,0,1.7528706,,,,,,,,,,,,,,,,,,,10,11,1,2024-10-25_14h10.47.405,uWM_experiment,2022.2.3,60.00376824
,,,,,,,,,,,,,,,,,,,,0,0,0,0,12,0,12,0,,,,,,,,,,,,,,,,,,,,,,,,,,,,,,,,,,,,,,,,,,,,,,,,,,,,,,,,,,,,,,,,,,,,,,0.005,,,,,,,,,,,,,,,,,,,,,,,,,,,,left,1,10,-30,-20,1,1014.323758,1014.323758,1014.323758,None,None,2,0,0.7772613,,,,,,,,,,,,,,,,,,,10,11,1,2024-10-25_14h10.47.405,uWM_experiment,2022.2.3,60.00376824
,,,,,,,,,,,,,,,,,,,,0,0,0,0,13,0,13,0,,,,,,,,,,,,,,,,,,,,,,,,,,,,,,,,,,,,,,,,,,,,,,,,,,,,,,,,,,,,,,,,,,,,,,0.005,,,,,,,,,,,,,,,,,,,,,,,,,,,,right,0,70,-30,40,1,1023.157436,1023.157436,1023.157436,None,None,2,0,1.1674394,,,,,,,,,,,,,,,,,,,10,11,1,2024-10-25_14h10.47.405,uWM_experiment,2022.2.3,60.00376824
,,,,,,,,,,,,,,,,,,,,0,0,0,0,14,0,14,0,,,,,,,,,,,,,,,,,,,,,,,,,,,,,,,,,,,,,,,,,,,,,,,,,,,,,,,,,,,,,,,,,,,,,,0.005,,,,,,,,,,,,,,,,,,,,,,,,,,,,right,1,160,30,190,1,1031.324428,1031.324428,1031.324428,None,None,1,1,0.4405195,,,,,,,,,,,,,,,,,,,10,11,1,2024-10-25_14h10.47.405,uWM_experiment,2022.2.3,60.00376824
,,,,,,,,,,,,,,,,,,,,0,0,0,0,15,0,15,0,,,,,,,,,,,,,,,,,,,,,,,,,,,,,,,,,,,,,,,,,,,,,,,,,,,,,,,,,,,,,,,,,,,,,,0.015,,,,,,,,,,,,,,,,,,,,,,,,,,,,left,1,100,-30,70,1,1039.09139,1039.09139,1039.09139,None,None,2,0,1.2014372,,,,,,,,,,,,,,,,,,,10,11,1,2024-10-25_14h10.47.405,uWM_experiment,2022.2.3,60.00376824
,,,,,,,,,,,,,,,,,,,,0,0,0,0,16,0,16,0,,,,,,,,,,,,,,,,,,,,,,,,,,,,,,,,,,,,,,,,,,,,,,,,,,,,,,,,,,,,,,,,,,,,,,0.005,,,,,,,,,,,,,,,,,,,,,,,,,,,,left,1,130,-30,100,1,1047.091712,1047.091712,1047.091712,None,None,2,0,0.9290731,,,,,,,,,,,,,,,,,,,10,11,1,2024-10-25_14h10.47.405,uWM_experiment,2022.2.3,60.00376824
,,,,,,,,,,,,,,,,,,,,0,0,0,0,17,0,17,0,,,,,,,,,,,,,,,,,,,,,,,,,,,,,,,,,,,,,,,,,,,,,,,,,,,,,,,,,,,,,,,,,,,,,,0,,,,,,,,,,,,,,,,,,,,,,,,,,,,left,1,40,-30,10,0,1055.408694,1055.408694,1055.408694,None,None,2,0,0.6040125,,,,,,,,,,,,,,,,,,,10,11,1,2024-10-25_14h10.47.405,uWM_experiment,2022.2.3,60.00376824
,,,,,,,,,,,,,,,,,,,,0,0,0,0,18,0,18,0,,,,,,,,,,,,,,,,,,,,,,,,,,,,,,,,,,,,,,,,,,,,,,,,,,,,,,,,,,,,,,,,,,,,,,0.005,,,,,,,,,,,,,,,,,,,,,,,,,,,,left,1,160,-30,130,1,1063.208975,1063.208975,1063.208975,None,None,2,0,0.5558936,,,,,,,,,,,,,,,,,,,10,11,1,2024-10-25_14h10.47.405,uWM_experiment,2022.2.3,60.00376824
,,,,,,,,,,,,,,,,,,,,0,0,0,0,19,0,19,0,,,,,,,,,,,,,,,,,,,,,,,,,,,,,,,,,,,,,,,,,,,,,,,,,,,,,,,,,,,,,,,,,,,,,,0.005,,,,,,,,,,,,,,,,,,,,,,,,,,,,left,0,40,30,70,1,1070.675972,1070.675972,1070.675972,None,None,1,1,0.8647398,,,,,,,,,,,,,,,,,,,10,11,1,2024-10-25_14h10.47.405,uWM_experiment,2022.2.3,60.00376824
,,,,,,,,,,,,,,,,,,,,0,0,0,0,20,0,20,0,,,,,,,,,,,,,,,,,,,,,,,,,,,,,,,,,,,,,,,,,,,,,,,,,,,,,,,,,,,,,,,,,,,,,,0.015,,,,,,,,,,,,,,,,,,,,,,,,,,,,right,0,40,-30,10,1,1079.293016,1079.293016,1079.293016,None,None,3,0,1.7675507,,,,,,,,,,,,,,,,,,,10,11,1,2024-10-25_14h10.47.405,uWM_experiment,2022.2.3,60.00376824
,,,,,,,,,,,,,,,,,,,,0,0,0,0,21,0,21,0,,,,,,,,,,,,,,,,,,,,,,,,,,,,,,,,,,,,,,,,,,,,,,,,,,,,,,,,,,,,,,,,,,,,,,0.005,,,,,,,,,,,,,,,,,,,,,,,,,,,,right,1,130,30,160,1,1087.726619,1087.726619,1087.726619,None,None,1,1,1.2859165,,,,,,,,,,,,,,,,,,,10,11,1,2024-10-25_14h10.47.405,uWM_experiment,2022.2.3,60.00376824
,,,,,,,,,,,,,,,,,,,,0,0,0,0,22,0,22,0,,,,,,,,,,,,,,,,,,,,,,,,,,,,,,,,,,,,,,,,,,,,,,,,,,,,,,,,,,,,,,,,,,,,,,0.015,,,,,,,,,,,,,,,,,,,,,,,,,,,,left,0,70,30,100,1,1095.72696,1095.72696,1095.72696,None,None,1,1,0.8695216,,,,,,,,,,,,,,,,,,,10,11,1,2024-10-25_14h10.47.405,uWM_experiment,2022.2.3,60.00376824
,,,,,,,,,,,,,,,,,,,,0,0,0,0,23,0,23,0,,,,,,,,,,,,,,,,,,,,,,,,,,,,,,,,,,,,,,,,,,,,,,,,,,,,,,,,,,,,,,,,,,,,,,0.025,,,,,,,,,,,,,,,,,,,,,,,,,,,,left,1,130,-30,100,1,1103.277236,1103.277236,1103.277236,None,None,1,1,1.0393292,,,,,,,,,,,,,,,,,,,10,11,1,2024-10-25_14h10.47.405,uWM_experiment,2022.2.3,60.00376824
,,,,,,,,,,,,,,,,,,,,0,0,0,0,,,,,0,0,0,0,,,,,,,,,,,,,,,,,,,,,,,,,,,,,,,,,,,,,,,,,,,,,,,,,,,,,,,,,,,,,,,,,,,,,,,,,,,,,,,,,,,,,,,,,,,,,,,,,,,,,,,,,,,,1104.343939,1104.343939,space,28.2125108,None,None,,,,,,,,,,,,,10,11,1,2024-10-25_14h10.47.405,uWM_experiment,2022.2.3,60.00376824
,,,,,,,,,,,,,,,,,,,,0,0,0,0,,,,,1,0,1,0,,,,,,,,,,,,,,,,,,,,,,,,,,,,,,,,,,,,,,,,,,,,,,,,,,,,,,,,,,,,,,,,,,,,,,,,,,,,,,,,,,,,,,,,,,,,,,,,,,,,,,,,,,,,,,,,,,,,,,,,,,,,,,10,11,1,2024-10-25_14h10.47.405,uWM_experiment,2022.2.3,60.00376824
,,,,,,,,,,,,,,,,,,,,0,0,0,0,,,,,2,0,2,0,,,,,,,,,,,,,,,,,,,,,,,,,,,,,,,,,,,,,,,,,,,,,,,,,,,,,,,,,,,,,,,,,,,,,,,,,,,,,,,,,,,,,,,,,,,,,,,,,,,,,,,,,,,,,,,,,,,,,,,,,,,,,,10,11,1,2024-10-25_14h10.47.405,uWM_experiment,2022.2.3,60.00376824
,,,,,,,,,,,,,,,,,,,,1,0,1,0,0,0,0,0,,,,,,,,,,,,,,,,,,,,,,,,,,,,,,,,,,,,,,,,,,,,,,,,,,,,,,,,,,,,,,,,,,,,,,0.035,,,,,,,,,,,,,,,,,,,,1132.578383,1133.278412,1133.578427,1134.27846,1134.5786,1135.278484,1135.278484,1135.595226,right,0,100,-30,70,1,1140.912046,1140.912046,1140.912046,None,None,1,1,1.1483527,,,,,,,None,,,,,,,,,,,,10,11,1,2024-10-25_14h10.47.405,uWM_experiment,2022.2.3,60.00376824
,,,,,,,,,,,,,,,,,,,,1,0,1,0,1,0,1,0,,,,,,,,,,,,,,,,,,,,,,,,,,,,,,,,,,,,,,,,,,,,,,,,,,,,,,,,,,,,,,,,,,,,,,0.045,,,,,,,,,,,,,,,,,,,,,,,,,,,,left,1,160,-30,130,1,1148.145671,1148.145671,1148.145671,None,None,4,0,1.3226079,,,,,,,,,,,,,,,,,,,10,11,1,2024-10-25_14h10.47.405,uWM_experiment,2022.2.3,60.00376824
,,,,,,,,,,,,,,,,,,,,1,0,1,0,2,0,2,0,,,,,,,,,,,,,,,,,,,,,,,,,,,,,,,,,,,,,,,,,,,,,,,,,,,,,,,,,,,,,,,,,,,,,,0,,,,,,,,,,,,,,,,,,,,,,,,,,,,left,1,100,-30,70,0,1156.029315,1156.029315,1156.029315,None,None,3,0,0.84701,,,,,,,,,,,,,,,,,,,10,11,1,2024-10-25_14h10.47.405,uWM_experiment,2022.2.3,60.00376824
,,,,,,,,,,,,,,,,,,,,1,0,1,0,3,0,3,0,,,,,,,,,,,,,,,,,,,,,,,,,,,,,,,,,,,,,,,,,,,,,,,,,,,,,,,,,,,,,,,,,,,,,,0,,,,,,,,,,,,,,,,,,,,,,,,,,,,right,0,130,-30,100,0,1163.796287,1163.796287,1163.796287,None,None,3,0,0.5518389,,,,,,,,,,,,,,,,,,,10,11,1,2024-10-25_14h10.47.405,uWM_experiment,2022.2.3,60.00376824
,,,,,,,,,,,,,,,,,,,,1,0,1,0,4,0,4,0,,,,,,,,,,,,,,,,,,,,,,,,,,,,,,,,,,,,,,,,,,,,,,,,,,,,,,,,,,,,,,,,,,,,,,0.035,,,,,,,,,,,,,,,,,,,,,,,,,,,,right,0,10,-30,-20,1,1171.096591,1171.096591,1171.096591,None,None,3,0,0.6996326,,,,,,,,,,,,,,,,,,,10,11,1,2024-10-25_14h10.47.405,uWM_experiment,2022.2.3,60.00376824
,,,,,,,,,,,,,,,,,,,,1,0,1,0,5,0,5,0,,,,,,,,,,,,,,,,,,,,,,,,,,,,,,,,,,,,,,,,,,,,,,,,,,,,,,,,,,,,,,,,,,,,,,0.025,,,,,,,,,,,,,,,,,,,,,,,,,,,,left,1,130,-30,100,1,1179.38024,1179.38024,1179.38024,None,None,3,0,2.2239344,,,,,,,,,,,,,,,,,,,10,11,1,2024-10-25_14h10.47.405,uWM_experiment,2022.2.3,60.00376824
,,,,,,,,,,,,,,,,,,,,1,0,1,0,6,0,6,0,,,,,,,,,,,,,,,,,,,,,,,,,,,,,,,,,,,,,,,,,,,,,,,,,,,,,,,,,,,,,,,,,,,,,,0.015,,,,,,,,,,,,,,,,,,,,,,,,,,,,right,1,130,30,160,1,1188.247271,1188.247271,1188.247271,None,None,2,0,1.4047432,,,,,,,,,,,,,,,,,,,10,11,1,2024-10-25_14h10.47.405,uWM_experiment,2022.2.3,60.00376824
,,,,,,,,,,,,,,,,,,,,1,0,1,0,7,0,7,0,,,,,,,,,,,,,,,,,,,,,,,,,,,,,,,,,,,,,,,,,,,,,,,,,,,,,,,,,,,,,,,,,,,,,,0.005,,,,,,,,,,,,,,,,,,,,,,,,,,,,right,0,10,-30,-20,1,1195.697674,1195.697674,1195.697674,None,None,3,0,0.7302693,,,,,,,,,,,,,,,,,,,10,11,1,2024-10-25_14h10.47.405,uWM_experiment,2022.2.3,60.00376824
,,,,,,,,,,,,,,,,,,,,1,0,1,0,8,0,8,0,,,,,,,,,,,,,,,,,,,,,,,,,,,,,,,,,,,,,,,,,,,,,,,,,,,,,,,,,,,,,,,,,,,,,,0,,,,,,,,,,,,,,,,,,,,,,,,,,,,right,1,160,30,190,0,1202.547837,1202.547837,1202.547837,None,None,4,0,0.7520702,,,,,,,,,,,,,,,,,,,10,11,1,2024-10-25_14h10.47.405,uWM_experiment,2022.2.3,60.00376824
,,,,,,,,,,,,,,,,,,,,1,0,1,0,9,0,9,0,,,,,,,,,,,,,,,,,,,,,,,,,,,,,,,,,,,,,,,,,,,,,,,,,,,,,,,,,,,,,,,,,,,,,,0.005,,,,,,,,,,,,,,,,,,,,,,,,,,,,right,0,10,-30,-20,1,1211.38151,1211.38151,1211.38151,None,None,2,0,1.1904916,,,,,,,,,,,,,,,,,,,10,11,1,2024-10-25_14h10.47.405,uWM_experiment,2022.2.3,60.00376824
,,,,,,,,,,,,,,,,,,,,1,0,1,0,10,0,10,0,,,,,,,,,,,,,,,,,,,,,,,,,,,,,,,,,,,,,,,,,,,,,,,,,,,,,,,,,,,,,,,,,,,,,,0.005,,,,,,,,,,,,,,,,,,,,,,,,,,,,left,1,130,-30,100,1,1218.848465,1218.848465,1218.848465,None,None,2,0,1.1873864,,,,,,,,,,,,,,,,,,,10,11,1,2024-10-25_14h10.47.405,uWM_experiment,2022.2.3,60.00376824
,,,,,,,,,,,,,,,,,,,,1,0,1,0,11,0,11,0,,,,,,,,,,,,,,,,,,,,,,,,,,,,,,,,,,,,,,,,,,,,,,,,,,,,,,,,,,,,,,,,,,,,,,0.005,,,,,,,,,,,,,,,,,,,,,,,,,,,,right,0,130,-30,100,1,1226.348748,1226.348748,1226.348748,None,None,3,0,1.2311409,,,,,,,,,,,,,,,,,,,10,11,1,2024-10-25_14h10.47.405,uWM_experiment,2022.2.3,60.00376824
,,,,,,,,,,,,,,,,,,,,1,0,1,0,12,0,12,0,,,,,,,,,,,,,,,,,,,,,,,,,,,,,,,,,,,,,,,,,,,,,,,,,,,,,,,,,,,,,,,,,,,,,,0.005,,,,,,,,,,,,,,,,,,,,,,,,,,,,right,0,40,-30,10,1,1236.365812,1236.365812,1236.365812,None,None,3,0,4.9979615,,,,,,,,,,,,,,,,,,,10,11,1,2024-10-25_14h10.47.405,uWM_experiment,2022.2.3,60.00376824
,,,,,,,,,,,,,,,,,,,,1,0,1,0,13,0,13,0,,,,,,,,,,,,,,,,,,,,,,,,,,,,,,,,,,,,,,,,,,,,,,,,,,,,,,,,,,,,,,,,,,,,,,0.005,,,,,,,,,,,,,,,,,,,,,,,,,,,,left,1,130,-30,100,1,1247.866279,1247.866279,1247.866279,None,None,2,0,0.9294749,,,,,,,,,,,,,,,,,,,10,11,1,2024-10-25_14h10.47.405,uWM_experiment,2022.2.3,60.00376824
,,,,,,,,,,,,,,,,,,,,1,0,1,0,14,0,14,0,,,,,,,,,,,,,,,,,,,,,,,,,,,,,,,,,,,,,,,,,,,,,,,,,,,,,,,,,,,,,,,,,,,,,,0,,,,,,,,,,,,,,,,,,,,,,,,,,,,left,0,40,30,70,0,1256.966738,1256.966738,1256.966738,None,None,3,0,0.980902,,,,,,,,,,,,,,,,,,,10,11,1,2024-10-25_14h10.47.405,uWM_experiment,2022.2.3,60.00376824
,,,,,,,,,,,,,,,,,,,,1,0,1,0,15,0,15,0,,,,,,,,,,,,,,,,,,,,,,,,,,,,,,,,,,,,,,,,,,,,,,,,,,,,,,,,,,,,,,,,,,,,,,0.005,,,,,,,,,,,,,,,,,,,,,,,,,,,,left,1,100,-30,70,1,1266.200335,1266.200335,1266.200335,None,None,2,0,0.8912834,,,,,,,,,,,,,,,,,,,10,11,1,2024-10-25_14h10.47.405,uWM_experiment,2022.2.3,60.00376824
,,,,,,,,,,,,,,,,,,,,1,0,1,0,16,0,16,0,,,,,,,,,,,,,,,,,,,,,,,,,,,,,,,,,,,,,,,,,,,,,,,,,,,,,,,,,,,,,,,,,,,,,,0.1,,,,,,,,,,,,,,,,,,,,,,,,,,,,left,1,40,-30,10,2,1276.684074,1276.684074,1276.684074,None,None,3,0,1.6955262,,,,,,,,,,,,,,,,,,,10,11,1,2024-10-25_14h10.47.405,uWM_experiment,2022.2.3,60.00376824
,,,,,,,,,,,,,,,,,,,,1,0,1,0,17,0,17,0,,,,,,,,,,,,,,,,,,,,,,,,,,,,,,,,,,,,,,,,,,,,,,,,,,,,,,,,,,,,,,,,,,,,,,0.005,,,,,,,,,,,,,,,,,,,,,,,,,,,,right,1,130,30,160,1,1285.651082,1285.651082,1285.651082,None,None,2,0,2.7925113,,,,,,,,,,,,,,,,,,,10,11,1,2024-10-25_14h10.47.405,uWM_experiment,2022.2.3,60.00376824
,,,,,,,,,,,,,,,,,,,,1,0,1,0,18,0,18,0,,,,,,,,,,,,,,,,,,,,,,,,,,,,,,,,,,,,,,,,,,,,,,,,,,,,,,,,,,,,,,,,,,,,,,0.005,,,,,,,,,,,,,,,,,,,,,,,,,,,,right,1,70,30,100,1,1295.934824,1295.934824,1295.934824,None,None,3,0,2.0365715,,,,,,,,,,,,,,,,,,,10,11,1,2024-10-25_14h10.47.405,uWM_experiment,2022.2.3,60.00376824
,,,,,,,,,,,,,,,,,,,,1,0,1,0,19,0,19,0,,,,,,,,,,,,,,,,,,,,,,,,,,,,,,,,,,,,,,,,,,,,,,,,,,,,,,,,,,,,,,,,,,,,,,0,,,,,,,,,,,,,,,,,,,,,,,,,,,,left,0,70,30,100,0,1307.468609,1307.468609,1307.468609,None,None,3,0,2.5187571,,,,,,,,,,,,,,,,,,,10,11,1,2024-10-25_14h10.47.405,uWM_experiment,2022.2.3,60.00376824
,,,,,,,,,,,,,,,,,,,,1,0,1,0,20,0,20,0,,,,,,,,,,,,,,,,,,,,,,,,,,,,,,,,,,,,,,,,,,,,,,,,,,,,,,,,,,,,,,,,,,,,,,0.005,,,,,,,,,,,,,,,,,,,,,,,,,,,,right,1,100,30,130,1,1316.285635,1316.285635,1316.285635,None,None,3,0,1.0856543,,,,,,,,,,,,,,,,,,,10,11,1,2024-10-25_14h10.47.405,uWM_experiment,2022.2.3,60.00376824
,,,,,,,,,,,,,,,,,,,,1,0,1,0,21,0,21,0,,,,,,,,,,,,,,,,,,,,,,,,,,,,,,,,,,,,,,,,,,,,,,,,,,,,,,,,,,,,,,,,,,,,,,0.1,,,,,,,,,,,,,,,,,,,,,,,,,,,,right,1,40,30,70,2,1325.169316,1325.169316,1325.169316,None,None,4,0,0.4579371,,,,,,,,,,,,,,,,,,,10,11,1,2024-10-25_14h10.47.405,uWM_experiment,2022.2.3,60.00376824
,,,,,,,,,,,,,,,,,,,,1,0,1,0,22,0,22,0,,,,,,,,,,,,,,,,,,,,,,,,,,,,,,,,,,,,,,,,,,,,,,,,,,,,,,,,,,,,,,,,,,,,,,0.005,,,,,,,,,,,,,,,,,,,,,,,,,,,,right,0,100,-30,70,1,1331.686217,1331.686217,1331.686217,None,None,3,0,0.4931316,,,,,,,,,,,,,,,,,,,10,11,1,2024-10-25_14h10.47.405,uWM_experiment,2022.2.3,60.00376824
,,,,,,,,,,,,,,,,,,,,1,0,1,0,23,0,23,0,,,,,,,,,,,,,,,,,,,,,,,,,,,,,,,,,,,,,,,,,,,,,,,,,,,,,,,,,,,,,,,,,,,,,,0.005,,,,,,,,,,,,,,,,,,,,,,,,,,,,left,0,10,30,40,1,1338.619848,1338.619848,1338.619848,None,None,3,0,2.5754733,,,,,,,,,,,,,,,,,,,10,11,1,2024-10-25_14h10.47.405,uWM_experiment,2022.2.3,60.00376824
,,,,,,,,,,,,,,,,,,,,1,0,1,0,,,,,0,0,0,0,,,,,,,,,,,,,,,,,,,,,,,,,,,,,,,,,,,,,,,,,,,,,,,,,,,,,,,,,,,,,,,,,,,,,,,,,,,,,,,,,,,,,,,,,,,,,,,,,,,,,,,,,,,,1341.219917,1341.219917,space,36.5912216,None,None,,,,,,,,,,,,,10,11,1,2024-10-25_14h10.47.405,uWM_experiment,2022.2.3,60.00376824
,,,,,,,,,,,,,,,,,,,,1,0,1,0,,,,,1,0,1,0,,,,,,,,,,,,,,,,,,,,,,,,,,,,,,,,,,,,,,,,,,,,,,,,,,,,,,,,,,,,,,,,,,,,,,,,,,,,,,,,,,,,,,,,,,,,,,,,,,,,,,,,,,,,,,,,,,,,,,,,,,,,,,10,11,1,2024-10-25_14h10.47.405,uWM_experiment,2022.2.3,60.00376824
,,,,,,,,,,,,,,,,,,,,1,0,1,0,,,,,2,0,2,0,,,,,,,,,,,,,,,,,,,,,,,,,,,,,,,,,,,,,,,,,,,,,,,,,,,,,,,,,,,,,,,,,,,,,,,,,,,,,,,,,,,,,,,,,,,,,,,,,,,,,,,,,,,,,,,,,,,,,,,,,,,,,,10,11,1,2024-10-25_14h10.47.405,uWM_experiment,2022.2.3,60.00376824
,,,,,,,,,,,,,,,,,,,,2,0,2,0,0,0,0,0,,,,,,,,,,,,,,,,,,,,,,,,,,,,,,,,,,,,,,,,,,,,,,,,,,,,,,,,,,,,,,,,,,,,,,0.005,,,,,,,,,,,,,,,,,,,,1377.838036,1378.538058,1378.838063,1379.538095,1379.838125,1380.538143,1380.538143,1380.854833,left,1,10,-30,-20,1,1386.238358,1386.238358,1386.238358,None,None,1,1,0.4446769,,,,,,,None,,,,,,,,,,,,10,11,1,2024-10-25_14h10.47.405,uWM_experiment,2022.2.3,60.00376824
,,,,,,,,,,,,,,,,,,,,2,0,2,0,1,0,1,0,,,,,,,,,,,,,,,,,,,,,,,,,,,,,,,,,,,,,,,,,,,,,,,,,,,,,,,,,,,,,,,,,,,,,,0.015,,,,,,,,,,,,,,,,,,,,,,,,,,,,right,1,70,30,100,1,1392.921975,1392.921975,1392.921975,None,None,3,0,1.0330193,,,,,,,,,,,,,,,,,,,10,11,1,2024-10-25_14h10.47.405,uWM_experiment,2022.2.3,60.00376824
,,,,,,,,,,,,,,,,,,,,2,0,2,0,2,0,2,0,,,,,,,,,,,,,,,,,,,,,,,,,,,,,,,,,,,,,,,,,,,,,,,,,,,,,,,,,,,,,,,,,,,,,,0.005,,,,,,,,,,,,,,,,,,,,,,,,,,,,left,0,100,30,130,1,1399.972259,1399.972259,1399.972259,None,None,1,1,0.5185789,,,,,,,,,,,,,,,,,,,10,11,1,2024-10-25_14h10.47.405,uWM_experiment,2022.2.3,60.00376824
,,,,,,,,,,,,,,,,,,,,2,0,2,0,3,0,3,0,,,,,,,,,,,,,,,,,,,,,,,,,,,,,,,,,,,,,,,,,,,,,,,,,,,,,,,,,,,,,,,,,,,,,,0.1,,,,,,,,,,,,,,,,,,,,,,,,,,,,right,1,130,30,160,2,1411.089372,1411.089372,1411.089372,None,None,4,0,1.1854359,,,,,,,,,,,,,,,,,,,10,11,1,2024-10-25_14h10.47.405,uWM_experiment,2022.2.3,60.00376824
,,,,,,,,,,,,,,,,,,,,2,0,2,0,4,0,4,0,,,,,,,,,,,,,,,,,,,,,,,,,,,,,,,,,,,,,,,,,,,,,,,,,,,,,,,,,,,,,,,,,,,,,,0.015,,,,,,,,,,,,,,,,,,,,,,,,,,,,right,1,10,30,40,1,1419.523048,1419.523048,1419.523048,None,None,3,0,0.8876568,,,,,,,,,,,,,,,,,,,10,11,1,2024-10-25_14h10.47.405,uWM_experiment,2022.2.3,60.00376824
,,,,,,,,,,,,,,,,,,,,2,0,2,0,5,0,5,0,,,,,,,,,,,,,,,,,,,,,,,,,,,,,,,,,,,,,,,,,,,,,,,,,,,,,,,,,,,,,,,,,,,,,,0.005,,,,,,,,,,,,,,,,,,,,,,,,,,,,left,0,160,30,190,1,1426.323284,1426.323284,1426.323284,None,None,2,0,0.8635368,,,,,,,,,,,,,,,,,,,10,11,1,2024-10-25_14h10.47.405,uWM_experiment,2022.2.3,60.00376824
,,,,,,,,,,,,,,,,,,,,2,0,2,0,6,0,6,0,,,,,,,,,,,,,,,,,,,,,,,,,,,,,,,,,,,,,,,,,,,,,,,,,,,,,,,,,,,,,,,,,,,,,,0.005,,,,,,,,,,,,,,,,,,,,,,,,,,,,left,0,130,30,160,1,1433.07356,1433.07356,1433.07356,None,None,3,0,1.3611979,,,,,,,,,,,,,,,,,,,10,11,1,2024-10-25_14h10.47.405,uWM_experiment,2022.2.3,60.00376824
,,,,,,,,,,,,,,,,,,,,2,0,2,0,7,0,7,0,,,,,,,,,,,,,,,,,,,,,,,,,,,,,,,,,,,,,,,,,,,,,,,,,,,,,,,,,,,,,,,,,,,,,,0.005,,,,,,,,,,,,,,,,,,,,,,,,,,,,right,0,100,-30,70,1,1444.624015,1444.624015,1444.624015,None,None,2,0,1.2747301,,,,,,,,,,,,,,,,,,,10,11,1,2024-10-25_14h10.47.405,uWM_experiment,2022.2.3,60.00376824
,,,,,,,,,,,,,,,,,,,,2,0,2,0,8,0,8,0,,,,,,,,,,,,,,,,,,,,,,,,,,,,,,,,,,,,,,,,,,,,,,,,,,,,,,,,,,,,,,,,,,,,,,0,,,,,,,,,,,,,,,,,,,,,,,,,,,,right,1,160,30,190,0,1452.224303,1452.224303,1452.224303,None,None,1,1,1.5382274,,,,,,,,,,,,,,,,,,,10,11,1,2024-10-25_14h10.47.405,uWM_experiment,2022.2.3,60.00376824
,,,,,,,,,,,,,,,,,,,,2,0,2,0,9,0,9,0,,,,,,,,,,,,,,,,,,,,,,,,,,,,,,,,,,,,,,,,,,,,,,,,,,,,,,,,,,,,,,,,,,,,,,0.005,,,,,,,,,,,,,,,,,,,,,,,,,,,,right,0,160,-30,130,1,1462.724727,1462.724727,1462.724727,None,None,3,0,3.7257995,,,,,,,,,,,,,,,,,,,10,11,1,2024-10-25_14h10.47.405,uWM_experiment,2022.2.3,60.00376824
,,,,,,,,,,,,,,,,,,,,2,0,2,0,10,0,10,0,,,,,,,,,,,,,,,,,,,,,,,,,,,,,,,,,,,,,,,,,,,,,,,,,,,,,,,,,,,,,,,,,,,,,,0.005,,,,,,,,,,,,,,,,,,,,,,,,,,,,right,1,160,30,190,1,1474.625277,1474.625277,1474.625277,None,None,3,0,0.9932949,,,,,,,,,,,,,,,,,,,10,11,1,2024-10-25_14h10.47.405,uWM_experiment,2022.2.3,60.00376824
,,,,,,,,,,,,,,,,,,,,2,0,2,0,11,0,11,0,,,,,,,,,,,,,,,,,,,,,,,,,,,,,,,,,,,,,,,,,,,,,,,,,,,,,,,,,,,,,,,,,,,,,,0.005,,,,,,,,,,,,,,,,,,,,,,,,,,,,left,1,10,-30,-20,1,1481.558769,1481.558769,1481.558769,None,None,3,0,0.8917348,,,,,,,,,,,,,,,,,,,10,11,1,2024-10-25_14h10.47.405,uWM_experiment,2022.2.3,60.00376824
,,,,,,,,,,,,,,,,,,,,2,0,2,0,12,0,12,0,,,,,,,,,,,,,,,,,,,,,,,,,,,,,,,,,,,,,,,,,,,,,,,,,,,,,,,,,,,,,,,,,,,,,,0.005,,,,,,,,,,,,,,,,,,,,,,,,,,,,left,0,100,30,130,1,1488.009053,1488.009053,1488.009053,None,None,1,1,0.3934651,,,,,,,,,,,,,,,,,,,10,11,1,2024-10-25_14h10.47.405,uWM_experiment,2022.2.3,60.00376824
,,,,,,,,,,,,,,,,,,,,2,0,2,0,13,0,13,0,,,,,,,,,,,,,,,,,,,,,,,,,,,,,,,,,,,,,,,,,,,,,,,,,,,,,,,,,,,,,,,,,,,,,,0,,,,,,,,,,,,,,,,,,,,,,,,,,,,left,1,130,-30,100,0,1496.192718,1496.192718,1496.192718,None,None,1,1,0.4497173,,,,,,,,,,,,,,,,,,,10,11,1,2024-10-25_14h10.47.405,uWM_experiment,2022.2.3,60.00376824
,,,,,,,,,,,,,,,,,,,,2,0,2,0,14,0,14,0,,,,,,,,,,,,,,,,,,,,,,,,,,,,,,,,,,,,,,,,,,,,,,,,,,,,,,,,,,,,,,,,,,,,,,0.015,,,,,,,,,,,,,,,,,,,,,,,,,,,,left,0,40,30,70,1,1504.709732,1504.709732,1504.709732,None,None,3,0,0.7966567,,,,,,,,,,,,,,,,,,,10,11,1,2024-10-25_14h10.47.405,uWM_experiment,2022.2.3,60.00376824
,,,,,,,,,,,,,,,,,,,,2,0,2,0,15,0,15,0,,,,,,,,,,,,,,,,,,,,,,,,,,,,,,,,,,,,,,,,,,,,,,,,,,,,,,,,,,,,,,,,,,,,,,0.005,,,,,,,,,,,,,,,,,,,,,,,,,,,,right,1,70,30,100,1,1512.876676,1512.876676,1512.876676,None,None,3,0,1.0375838,,,,,,,,,,,,,,,,,,,10,11,1,2024-10-25_14h10.47.405,uWM_experiment,2022.2.3,60.00376824
,,,,,,,,,,,,,,,,,,,,2,0,2,0,16,0,16,0,,,,,,,,,,,,,,,,,,,,,,,,,,,,,,,,,,,,,,,,,,,,,,,,,,,,,,,,,,,,,,,,,,,,,,0.005,,,,,,,,,,,,,,,,,,,,,,,,,,,,left,1,70,-30,40,1,1522.660398,1522.660398,1522.660398,None,None,3,0,1.4777837,,,,,,,,,,,,,,,,,,,10,11,1,2024-10-25_14h10.47.405,uWM_experiment,2022.2.3,60.00376824
,,,,,,,,,,,,,,,,,,,,2,0,2,0,17,0,17,0,,,,,,,,,,,,,,,,,,,,,,,,,,,,,,,,,,,,,,,,,,,,,,,,,,,,,,,,,,,,,,,,,,,,,,0.005,,,,,,,,,,,,,,,,,,,,,,,,,,,,left,0,10,30,40,1,1530.444039,1530.444039,1530.444039,None,None,1,1,0.4700942,,,,,,,,,,,,,,,,,,,10,11,1,2024-10-25_14h10.47.405,uWM_experiment,2022.2.3,60.00376824
,,,,,,,,,,,,,,,,,,,,2,0,2,0,18,0,18,0,,,,,,,,,,,,,,,,,,,,,,,,,,,,,,,,,,,,,,,,,,,,,,,,,,,,,,,,,,,,,,,,,,,,,,0.015,,,,,,,,,,,,,,,,,,,,,,,,,,,,right,1,40,30,70,1,1537.060956,1537.060956,1537.060956,None,None,1,1,0.4212842,,,,,,,,,,,,,,,,,,,10,11,1,2024-10-25_14h10.47.405,uWM_experiment,2022.2.3,60.00376824
,,,,,,,,,,,,,,,,,,,,2,0,2,0,19,0,19,0,,,,,,,,,,,,,,,,,,,,,,,,,,,,,,,,,,,,,,,,,,,,,,,,,,,,,,,,,,,,,,,,,,,,,,0.025,,,,,,,,,,,,,,,,,,,,,,,,,,,,right,0,130,-30,100,1,1544.261268,1544.261268,1544.261268,None,None,2,0,0.4367875,,,,,,,,,,,,,,,,,,,10,11,1,2024-10-25_14h10.47.405,uWM_experiment,2022.2.3,60.00376824
,,,,,,,,,,,,,,,,,,,,2,0,2,0,20,0,20,0,,,,,,,,,,,,,,,,,,,,,,,,,,,,,,,,,,,,,,,,,,,,,,,,,,,,,,,,,,,,,,,,,,,,,,0,,,,,,,,,,,,,,,,,,,,,,,,,,,,right,0,100,-30,70,0,1550.561517,1550.561517,1550.561517,None,None,2,0,0.3765636,,,,,,,,,,,,,,,,,,,10,11,1,2024-10-25_14h10.47.405,uWM_experiment,2022.2.3,60.00376824
,,,,,,,,,,,,,,,,,,,,2,0,2,0,21,0,21,0,,,,,,,,,,,,,,,,,,,,,,,,,,,,,,,,,,,,,,,,,,,,,,,,,,,,,,,,,,,,,,,,,,,,,,0.015,,,,,,,,,,,,,,,,,,,,,,,,,,,,left,0,10,30,40,1,1556.961748,1556.961748,1556.961748,None,None,2,0,0.4883039,,,,,,,,,,,,,,,,,,,10,11,1,2024-10-25_14h10.47.405,uWM_experiment,2022.2.3,60.00376824
,,,,,,,,,,,,,,,,,,,,2,0,2,0,22,0,22,0,,,,,,,,,,,,,,,,,,,,,,,,,,,,,,,,,,,,,,,,,,,,,,,,,,,,,,,,,,,,,,,,,,,,,,0.005,,,,,,,,,,,,,,,,,,,,,,,,,,,,right,0,160,-30,130,1,1564.695389,1564.695389,1564.695389,None,None,1,1,0.7226284,,,,,,,,,,,,,,,,,,,10,11,1,2024-10-25_14h10.47.405,uWM_experiment,2022.2.3,60.00376824
,,,,,,,,,,,,,,,,,,,,2,0,2,0,23,0,23,0,,,,,,,,,,,,,,,,,,,,,,,,,,,,,,,,,,,,,,,,,,,,,,,,,,,,,,,,,,,,,,,,,,,,,,0,,,,,,,,,,,,,,,,,,,,,,,,,,,,left,1,100,-30,70,0,1572.245695,1572.245695,1572.245695,None,None,2,0,0.9163173,,,,,,,,,,,,,,,,,,,10,11,1,2024-10-25_14h10.47.405,uWM_experiment,2022.2.3,60.00376824
,,,,,,,,,,,,,,,,,,,,2,0,2,0,,,,,0,0,0,0,,,,,,,,,,,,,,,,,,,,,,,,,,,,,,,,,,,,,,,,,,,,,,,,,,,,,,,,,,,,,,,,,,,,,,,,,,,,,,,,,,,,,,,,,,,,,,,,,,,,,,,,,,,,1573.179037,1573.179037,space,56.1265749,space,None,,1629.331264,1629.331264,8.9744387,,,,,,,,,10,11,1,2024-10-25_14h10.47.405,uWM_experiment,2022.2.3,60.00376824
,,,,,,,,,,,,,,,,,,,,2,0,2,0,,,,,1,0,1,0,,,,,,,,,,,,,,,,,,,,,,,,,,,,,,,,,,,,,,,,,,,,,,,,,,,,,,,,,,,,,,,,,,,,,,,,,,,,,,,,,,,,,,,,,,,,,,,,,,,,,,,,,,,,,,,,,,,,,,,,,,,,,,10,11,1,2024-10-25_14h10.47.405,uWM_experiment,2022.2.3,60.00376824
,,,,,,,,,,,,,,,,,,,,2,0,2,0,,,,,2,0,2,0,,,,,,,,,,,,,,,,,,,,,,,,,,,,,,,,,,,,,,,,,,,,,,,,,,,,,,,,,,,,,,,,,,,,,,,,,,,,,,,,,,,,,,,,,,,,,,,,,,,,,,,,,,,,,,,,,,,,,,,,,,,,,,10,11,1,2024-10-25_14h10.47.405,uWM_experiment,2022.2.3,60.00376824
,,,,,,,,,,,,,,,,,,,,3,0,3,0,0,0,0,0,,,,,,,,,,,,,,,,,,,,,,,,,,,,,,,,,,,,,,,,,,,,,,,,,,,,,,,,,,,,,,,,,,,,,,0.015,,,,,,,,,,,,,,,,,,,,1638.331608,1639.031632,1639.331643,1640.031669,1640.331677,1641.031725,1641.031725,1641.348401,left,1,160,-30,130,1,1646.58195,1646.58195,1646.58195,None,None,3,0,1.8596269,,,,,,,None,,,,,,,,,,,,10,11,1,2024-10-25_14h10.47.405,uWM_experiment,2022.2.3,60.00376824
,,,,,,,,,,,,,,,,,,,,3,0,3,0,1,0,1,0,,,,,,,,,,,,,,,,,,,,,,,,,,,,,,,,,,,,,,,,,,,,,,,,,,,,,,,,,,,,,,,,,,,,,,0.005,,,,,,,,,,,,,,,,,,,,,,,,,,,,left,0,70,30,100,1,1654.465609,1654.465609,1654.465609,None,None,1,1,0.3759839,,,,,,,,,,,,,,,,,,,10,11,1,2024-10-25_14h10.47.405,uWM_experiment,2022.2.3,60.00376824
,,,,,,,,,,,,,,,,,,,,3,0,3,0,2,0,2,0,,,,,,,,,,,,,,,,,,,,,,,,,,,,,,,,,,,,,,,,,,,,,,,,,,,,,,,,,,,,,,,,,,,,,,0.015,,,,,,,,,,,,,,,,,,,,,,,,,,,,right,0,10,-30,-20,1,1660.71586,1660.71586,1660.71586,None,None,3,0,1.4695658,,,,,,,,,,,,,,,,,,,10,11,1,2024-10-25_14h10.47.405,uWM_experiment,2022.2.3,60.00376824
,,,,,,,,,,,,,,,,,,,,3,0,3,0,3,0,3,0,,,,,,,,,,,,,,,,,,,,,,,,,,,,,,,,,,,,,,,,,,,,,,,,,,,,,,,,,,,,,,,,,,,,,,0,,,,,,,,,,,,,,,,,,,,,,,,,,,,right,0,40,-30,10,0,1670.316224,1670.316224,1670.316224,None,None,2,0,0.7892866,,,,,,,,,,,,,,,,,,,10,11,1,2024-10-25_14h10.47.405,uWM_experiment,2022.2.3,60.00376824
,,,,,,,,,,,,,,,,,,,,3,0,3,0,4,0,4,0,,,,,,,,,,,,,,,,,,,,,,,,,,,,,,,,,,,,,,,,,,,,,,,,,,,,,,,,,,,,,,,,,,,,,,0.005,,,,,,,,,,,,,,,,,,,,,,,,,,,,left,1,10,-30,-20,1,1678.416543,1678.416543,1678.416543,None,None,2,0,1.6007765,,,,,,,,,,,,,,,,,,,10,11,1,2024-10-25_14h10.47.405,uWM_experiment,2022.2.3,60.00376824
,,,,,,,,,,,,,,,,,,,,3,0,3,0,5,0,5,0,,,,,,,,,,,,,,,,,,,,,,,,,,,,,,,,,,,,,,,,,,,,,,,,,,,,,,,,,,,,,,,,,,,,,,0.005,,,,,,,,,,,,,,,,,,,,,,,,,,,,right,1,70,30,100,1,1687.56688,1687.56688,1687.56688,None,None,2,0,0.3785456,,,,,,,,,,,,,,,,,,,10,11,1,2024-10-25_14h10.47.405,uWM_experiment,2022.2.3,60.00376824
,,,,,,,,,,,,,,,,,,,,3,0,3,0,6,0,6,0,,,,,,,,,,,,,,,,,,,,,,,,,,,,,,,,,,,,,,,,,,,,,,,,,,,,,,,,,,,,,,,,,,,,,,0.005,,,,,,,,,,,,,,,,,,,,,,,,,,,,left,0,40,30,70,1,1695.367205,1695.367205,1695.367205,None,None,2,0,0.7780699,,,,,,,,,,,,,,,,,,,10,11,1,2024-10-25_14h10.47.405,uWM_experiment,2022.2.3,60.00376824
,,,,,,,,,,,,,,,,,,,,3,0,3,0,7,0,7,0,,,,,,,,,,,,,,,,,,,,,,,,,,,,,,,,,,,,,,,,,,,,,,,,,,,,,,,,,,,,,,,,,,,,,,0,,,,,,,,,,,,,,,,,,,,,,,,,,,,left,0,40,30,70,0,1703.067502,1703.067502,1703.067502,None,None,2,0,1.8057474,,,,,,,,,,,,,,,,,,,10,11,1,2024-10-25_14h10.47.405,uWM_experiment,2022.2.3,60.00376824
,,,,,,,,,,,,,,,,,,,,3,0,3,0,8,0,8,0,,,,,,,,,,,,,,,,,,,,,,,,,,,,,,,,,,,,,,,,,,,,,,,,,,,,,,,,,,,,,,,,,,,,,,0.005,,,,,,,,,,,,,,,,,,,,,,,,,,,,right,1,40,30,70,1,1711.551192,1711.551192,1711.551192,None,None,2,0,1.2660052,,,,,,,,,,,,,,,,,,,10,11,1,2024-10-25_14h10.47.405,uWM_experiment,2022.2.3,60.00376824
,,,,,,,,,,,,,,,,,,,,3,0,3,0,9,0,9,0,,,,,,,,,,,,,,,,,,,,,,,,,,,,,,,,,,,,,,,,,,,,,,,,,,,,,,,,,,,,,,,,,,,,,,0.005,,,,,,,,,,,,,,,,,,,,,,,,,,,,right,0,70,-30,40,1,1718.684771,1718.684771,1718.684771,None,None,1,1,0.4444354,,,,,,,,,,,,,,,,,,,10,11,1,2024-10-25_14h10.47.405,uWM_experiment,2022.2.3,60.00376824
,,,,,,,,,,,,,,,,,,,,3,0,3,0,10,0,10,0,,,,,,,,,,,,,,,,,,,,,,,,,,,,,,,,,,,,,,,,,,,,,,,,,,,,,,,,,,,,,,,,,,,,,,0.015,,,,,,,,,,,,,,,,,,,,,,,,,,,,right,0,160,-30,130,1,1726.218395,1726.218395,1726.218395,None,None,1,1,0.6706823,,,,,,,,,,,,,,,,,,,10,11,1,2024-10-25_14h10.47.405,uWM_experiment,2022.2.3,60.00376824
,,,,,,,,,,,,,,,,,,,,3,0,3,0,11,0,11,0,,,,,,,,,,,,,,,,,,,,,,,,,,,,,,,,,,,,,,,,,,,,,,,,,,,,,,,,,,,,,,,,,,,,,,0.025,,,,,,,,,,,,,,,,,,,,,,,,,,,,left,0,160,30,190,1,1733.035348,1733.035348,1733.035348,None,None,1,1,0.6856928,,,,,,,,,,,,,,,,,,,10,11,1,2024-10-25_14h10.47.405,uWM_experiment,2022.2.3,60.00376824
,,,,,,,,,,,,,,,,,,,,3,0,3,0,12,0,12,0,,,,,,,,,,,,,,,,,,,,,,,,,,,,,,,,,,,,,,,,,,,,,,,,,,,,,,,,,,,,,,,,,,,,,,0.035,,,,,,,,,,,,,,,,,,,,,,,,,,,,right,1,70,30,100,1,1740.45231,1740.45231,1740.45231,None,None,2,0,1.5886712,,,,,,,,,,,,,,,,,,,10,11,1,2024-10-25_14h10.47.405,uWM_experiment,2022.2.3,60.00376824
,,,,,,,,,,,,,,,,,,,,3,0,3,0,13,0,13,0,,,,,,,,,,,,,,,,,,,,,,,,,,,,,,,,,,,,,,,,,,,,,,,,,,,,,,,,,,,,,,,,,,,,,,0,,,,,,,,,,,,,,,,,,,,,,,,,,,,right,1,130,30,160,0,1749.002643,1749.002643,1749.002643,None,None,2,0,1.222381,,,,,,,,,,,,,,,,,,,10,11,1,2024-10-25_14h10.47.405,uWM_experiment,2022.2.3,60.00376824
,,,,,,,,,,,,,,,,,,,,3,0,3,0,14,0,14,0,,,,,,,,,,,,,,,,,,,,,,,,,,,,,,,,,,,,,,,,,,,,,,,,,,,,,,,,,,,,,,,,,,,,,,0.025,,,,,,,,,,,,,,,,,,,,,,,,,,,,left,0,100,30,130,1,1757.152961,1757.152961,1757.152961,None,None,2,0,0.8401075,,,,,,,,,,,,,,,,,,,10,11,1,2024-10-25_14h10.47.405,uWM_experiment,2022.2.3,60.00376824
,,,,,,,,,,,,,,,,,,,,3,0,3,0,15,0,15,0,,,,,,,,,,,,,,,,,,,,,,,,,,,,,,,,,,,,,,,,,,,,,,,,,,,,,,,,,,,,,,,,,,,,,,0,,,,,,,,,,,,,,,,,,,,,,,,,,,,right,0,40,-30,10,0,1765.119933,1765.119933,1765.119933,None,None,2,0,3.2969713,,,,,,,,,,,,,,,,,,,10,11,1,2024-10-25_14h10.47.405,uWM_experiment,2022.2.3,60.00376824
,,,,,,,,,,,,,,,,,,,,3,0,3,0,16,0,16,0,,,,,,,,,,,,,,,,,,,,,,,,,,,,,,,,,,,,,,,,,,,,,,,,,,,,,,,,,,,,,,,,,,,,,,0,,,,,,,,,,,,,,,,,,,,,,,,,,,,left,1,130,-30,100,0,1775.520358,1775.520358,1775.520358,None,None,3,0,1.7124861,,,,,,,,,,,,,,,,,,,10,11,1,2024-10-25_14h10.47.405,uWM_experiment,2022.2.3,60.00376824
,,,,,,,,,,,,,,,,,,,,3,0,3,0,17,0,17,0,,,,,,,,,,,,,,,,,,,,,,,,,,,,,,,,,,,,,,,,,,,,,,,,,,,,,,,,,,,,,,,,,,,,,,0.015,,,,,,,,,,,,,,,,,,,,,,,,,,,,right,1,10,30,40,1,1783.67064,1783.67064,1783.67064,None,None,2,0,1.1381262,,,,,,,,,,,,,,,,,,,10,11,1,2024-10-25_14h10.47.405,uWM_experiment,2022.2.3,60.00376824
,,,,,,,,,,,,,,,,,,,,3,0,3,0,18,0,18,0,,,,,,,,,,,,,,,,,,,,,,,,,,,,,,,,,,,,,,,,,,,,,,,,,,,,,,,,,,,,,,,,,,,,,,0.005,,,,,,,,,,,,,,,,,,,,,,,,,,,,right,1,100,30,130,1,1791.187617,1791.187617,1791.187617,None,None,3,0,1.3491874,,,,,,,,,,,,,,,,,,,10,11,1,2024-10-25_14h10.47.405,uWM_experiment,2022.2.3,60.00376824
,,,,,,,,,,,,,,,,,,,,3,0,3,0,19,0,19,0,,,,,,,,,,,,,,,,,,,,,,,,,,,,,,,,,,,,,,,,,,,,,,,,,,,,,,,,,,,,,,,,,,,,,,0.005,,,,,,,,,,,,,,,,,,,,,,,,,,,,left,0,160,30,190,1,1798.921271,1798.921271,1798.921271,None,None,2,0,0.6554103,,,,,,,,,,,,,,,,,,,10,11,1,2024-10-25_14h10.47.405,uWM_experiment,2022.2.3,60.00376824
,,,,,,,,,,,,,,,,,,,,3,0,3,0,20,0,20,0,,,,,,,,,,,,,,,,,,,,,,,,,,,,,,,,,,,,,,,,,,,,,,,,,,,,,,,,,,,,,,,,,,,,,,0.1,,,,,,,,,,,,,,,,,,,,,,,,,,,,right,1,10,30,40,2,1810.455052,1810.455052,1810.455052,None,None,4,0,0.4656006,,,,,,,,,,,,,,,,,,,10,11,1,2024-10-25_14h10.47.405,uWM_experiment,2022.2.3,60.00376824
,,,,,,,,,,,,,,,,,,,,3,0,3,0,21,0,21,0,,,,,,,,,,,,,,,,,,,,,,,,,,,,,,,,,,,,,,,,,,,,,,,,,,,,,,,,,,,,,,,,,,,,,,0.005,,,,,,,,,,,,,,,,,,,,,,,,,,,,left,0,130,30,160,1,1818.455367,1818.455367,1818.455367,None,None,3,0,0.5212335,,,,,,,,,,,,,,,,,,,10,11,1,2024-10-25_14h10.47.405,uWM_experiment,2022.2.3,60.00376824
,,,,,,,,,,,,,,,,,,,,3,0,3,0,22,0,22,0,,,,,,,,,,,,,,,,,,,,,,,,,,,,,,,,,,,,,,,,,,,,,,,,,,,,,,,,,,,,,,,,,,,,,,0.1,,,,,,,,,,,,,,,,,,,,,,,,,,,,right,0,70,-30,40,2,1827.405734,1827.405734,1827.405734,None,None,4,0,0.8268923,,,,,,,,,,,,,,,,,,,10,11,1,2024-10-25_14h10.47.405,uWM_experiment,2022.2.3,60.00376824
,,,,,,,,,,,,,,,,,,,,3,0,3,0,23,0,23,0,,,,,,,,,,,,,,,,,,,,,,,,,,,,,,,,,,,,,,,,,,,,,,,,,,,,,,,,,,,,,,,,,,,,,,0.005,,,,,,,,,,,,,,,,,,,,,,,,,,,,right,1,100,30,130,1,1834.789328,1834.789328,1834.789328,None,None,3,0,0.6593452,,,,,,,,,,,,,,,,,,,10,11,1,2024-10-25_14h10.47.405,uWM_experiment,2022.2.3,60.00376824
,,,,,,,,,,,,,,,,,,,,3,0,3,0,,,,,0,0,0,0,,,,,,,,,,,,,,,,,,,,,,,,,,,,,,,,,,,,,,,,,,,,,,,,,,,,,,,,,,,,,,,,,,,,,,,,,,,,,,,,,,,,,,,,,,,,,,,,,,,,,,,,,,,,1835.47268,1835.47268,space,32.1517277,None,None,,,,,,,,,,,,,10,11,1,2024-10-25_14h10.47.405,uWM_experiment,2022.2.3,60.00376824
,,,,,,,,,,,,,,,,,,,,3,0,3,0,,,,,1,0,1,0,,,,,,,,,,,,,,,,,,,,,,,,,,,,,,,,,,,,,,,,,,,,,,,,,,,,,,,,,,,,,,,,,,,,,,,,,,,,,,,,,,,,,,,,,,,,,,,,,,,,,,,,,,,,,,,,,,,,,,,,,,,,,,10,11,1,2024-10-25_14h10.47.405,uWM_experiment,2022.2.3,60.00376824
,,,,,,,,,,,,,,,,,,,,3,0,3,0,,,,,2,0,2,0,,,,,,,,,,,,,,,,,,,,,,,,,,,,,,,,,,,,,,,,,,,,,,,,,,,,,,,,,,,,,,,,,,,,,,,,,,,,,,,,,,,,,,,,,,,,,,,,,,,,,,,,,,,,,,,,,,,,,,,,,,,,,,10,11,1,2024-10-25_14h10.47.405,uWM_experiment,2022.2.3,60.00376824
,,,,,,,,,,,,,,,,,,,,4,0,4,0,0,0,0,0,,,,,,,,,,,,,,,,,,,,,,,,,,,,,,,,,,,,,,,,,,,,,,,,,,,,,,,,,,,,,,,,,,,,,,0,,,,,,,,,,,,,,,,,,,,1867.657277,1868.357308,1868.657316,1869.35735,1869.657362,1870.357386,1870.357386,1870.67407,right,0,130,-30,100,0,1876.240995,1876.240995,1876.240995,None,None,2,0,0.9914434,,,,,,,None,,,,,,,,,,,,10,11,1,2024-10-25_14h10.47.405,uWM_experiment,2022.2.3,60.00376824
,,,,,,,,,,,,,,,,,,,,4,0,4,0,1,0,1,0,,,,,,,,,,,,,,,,,,,,,,,,,,,,,,,,,,,,,,,,,,,,,,,,,,,,,,,,,,,,,,,,,,,,,,0,,,,,,,,,,,,,,,,,,,,,,,,,,,,left,1,70,-30,40,0,1883.541242,1883.541242,1883.541242,None,None,2,0,0.635207,,,,,,,,,,,,,,,,,,,10,11,1,2024-10-25_14h10.47.405,uWM_experiment,2022.2.3,60.00376824
,,,,,,,,,,,,,,,,,,,,4,0,4,0,2,0,2,0,,,,,,,,,,,,,,,,,,,,,,,,,,,,,,,,,,,,,,,,,,,,,,,,,,,,,,,,,,,,,,,,,,,,,,0.005,,,,,,,,,,,,,,,,,,,,,,,,,,,,right,0,100,-30,70,1,1890.82487,1890.82487,1890.82487,None,None,2,0,1.3513066,,,,,,,,,,,,,,,,,,,10,11,1,2024-10-25_14h10.47.405,uWM_experiment,2022.2.3,60.00376824
,,,,,,,,,,,,,,,,,,,,4,0,4,0,3,0,3,0,,,,,,,,,,,,,,,,,,,,,,,,,,,,,,,,,,,,,,,,,,,,,,,,,,,,,,,,,,,,,,,,,,,,,,0,,,,,,,,,,,,,,,,,,,,,,,,,,,,right,0,40,-30,10,0,1899.525217,1899.525217,1899.525217,None,None,2,0,0.6990253,,,,,,,,,,,,,,,,,,,10,11,1,2024-10-25_14h10.47.405,uWM_experiment,2022.2.3,60.00376824
,,,,,,,,,,,,,,,,,,,,4,0,4,0,4,0,4,0,,,,,,,,,,,,,,,,,,,,,,,,,,,,,,,,,,,,,,,,,,,,,,,,,,,,,,,,,,,,,,,,,,,,,,0.005,,,,,,,,,,,,,,,,,,,,,,,,,,,,right,0,130,-30,100,1,1907.675536,1907.675536,1907.675536,None,None,3,0,1.7167108,,,,,,,,,,,,,,,,,,,10,11,1,2024-10-25_14h10.47.405,uWM_experiment,2022.2.3,60.00376824
,,,,,,,,,,,,,,,,,,,,4,0,4,0,5,0,5,0,,,,,,,,,,,,,,,,,,,,,,,,,,,,,,,,,,,,,,,,,,,,,,,,,,,,,,,,,,,,,,,,,,,,,,0.005,,,,,,,,,,,,,,,,,,,,,,,,,,,,left,0,160,30,190,1,1916.192575,1916.192575,1916.192575,None,None,3,0,2.4156258,,,,,,,,,,,,,,,,,,,10,11,1,2024-10-25_14h10.47.405,uWM_experiment,2022.2.3,60.00376824
,,,,,,,,,,,,,,,,,,,,4,0,4,0,6,0,6,0,,,,,,,,,,,,,,,,,,,,,,,,,,,,,,,,,,,,,,,,,,,,,,,,,,,,,,,,,,,,,,,,,,,,,,0.005,,,,,,,,,,,,,,,,,,,,,,,,,,,,right,0,130,-30,100,1,1926.509609,1926.509609,1926.509609,None,None,3,0,0.9703694,,,,,,,,,,,,,,,,,,,10,11,1,2024-10-25_14h10.47.405,uWM_experiment,2022.2.3,60.00376824
,,,,,,,,,,,,,,,,,,,,4,0,4,0,7,0,7,0,,,,,,,,,,,,,,,,,,,,,,,,,,,,,,,,,,,,,,,,,,,,,,,,,,,,,,,,,,,,,,,,,,,,,,0.005,,,,,,,,,,,,,,,,,,,,,,,,,,,,right,1,130,30,160,1,1935.109943,1935.109943,1935.109943,None,None,3,0,2.3300429,,,,,,,,,,,,,,,,,,,10,11,1,2024-10-25_14h10.47.405,uWM_experiment,2022.2.3,60.00376824
,,,,,,,,,,,,,,,,,,,,4,0,4,0,8,0,8,0,,,,,,,,,,,,,,,,,,,,,,,,,,,,,,,,,,,,,,,,,,,,,,,,,,,,,,,,,,,,,,,,,,,,,,0.005,,,,,,,,,,,,,,,,,,,,,,,,,,,,left,1,160,-30,130,1,1944.993673,1944.993673,1944.993673,None,None,3,0,1.7103164,,,,,,,,,,,,,,,,,,,10,11,1,2024-10-25_14h10.47.405,uWM_experiment,2022.2.3,60.00376824
,,,,,,,,,,,,,,,,,,,,4,0,4,0,9,0,9,0,,,,,,,,,,,,,,,,,,,,,,,,,,,,,,,,,,,,,,,,,,,,,,,,,,,,,,,,,,,,,,,,,,,,,,0.005,,,,,,,,,,,,,,,,,,,,,,,,,,,,right,1,130,30,160,1,1953.377331,1953.377331,1953.377331,None,None,2,0,1.1345163,,,,,,,,,,,,,,,,,,,10,11,1,2024-10-25_14h10.47.405,uWM_experiment,2022.2.3,60.00376824
,,,,,,,,,,,,,,,,,,,,4,0,4,0,10,0,10,0,,,,,,,,,,,,,,,,,,,,,,,,,,,,,,,,,,,,,,,,,,,,,,,,,,,,,,,,,,,,,,,,,,,,,,0.005,,,,,,,,,,,,,,,,,,,,,,,,,,,,left,0,130,30,160,1,1960.694283,1960.694283,1960.694283,None,None,3,0,0.5935626,,,,,,,,,,,,,,,,,,,10,11,1,2024-10-25_14h10.47.405,uWM_experiment,2022.2.3,60.00376824
,,,,,,,,,,,,,,,,,,,,4,0,4,0,11,0,11,0,,,,,,,,,,,,,,,,,,,,,,,,,,,,,,,,,,,,,,,,,,,,,,,,,,,,,,,,,,,,,,,,,,,,,,0,,,,,,,,,,,,,,,,,,,,,,,,,,,,right,0,10,-30,-20,0,1969.86133,1969.86133,1969.86133,None,None,3,0,1.362502,,,,,,,,,,,,,,,,,,,10,11,1,2024-10-25_14h10.47.405,uWM_experiment,2022.2.3,60.00376824
,,,,,,,,,,,,,,,,,,,,4,0,4,0,12,0,12,0,,,,,,,,,,,,,,,,,,,,,,,,,,,,,,,,,,,,,,,,,,,,,,,,,,,,,,,,,,,,,,,,,,,,,,0.005,,,,,,,,,,,,,,,,,,,,,,,,,,,,left,0,10,30,40,1,1977.411616,1977.411616,1977.411616,None,None,2,0,1.2201054,,,,,,,,,,,,,,,,,,,10,11,1,2024-10-25_14h10.47.405,uWM_experiment,2022.2.3,60.00376824
,,,,,,,,,,,,,,,,,,,,4,0,4,0,13,0,13,0,,,,,,,,,,,,,,,,,,,,,,,,,,,,,,,,,,,,,,,,,,,,,,,,,,,,,,,,,,,,,,,,,,,,,,0.005,,,,,,,,,,,,,,,,,,,,,,,,,,,,left,0,160,30,190,1,1985.011915,1985.011915,1985.011915,None,None,1,1,0.4598071,,,,,,,,,,,,,,,,,,,10,11,1,2024-10-25_14h10.47.405,uWM_experiment,2022.2.3,60.00376824
,,,,,,,,,,,,,,,,,,,,4,0,4,0,14,0,14,0,,,,,,,,,,,,,,,,,,,,,,,,,,,,,,,,,,,,,,,,,,,,,,,,,,,,,,,,,,,,,,,,,,,,,,0.015,,,,,,,,,,,,,,,,,,,,,,,,,,,,left,1,40,-30,10,1,1992.762203,1992.762203,1992.762203,None,None,2,0,0.4615207,,,,,,,,,,,,,,,,,,,10,11,1,2024-10-25_14h10.47.405,uWM_experiment,2022.2.3,60.00376824
,,,,,,,,,,,,,,,,,,,,4,0,4,0,15,0,15,0,,,,,,,,,,,,,,,,,,,,,,,,,,,,,,,,,,,,,,,,,,,,,,,,,,,,,,,,,,,,,,,,,,,,,,0,,,,,,,,,,,,,,,,,,,,,,,,,,,,left,0,160,30,190,0,1999.86249,1999.86249,1999.86249,None,None,3,0,1.1132111,,,,,,,,,,,,,,,,,,,10,11,1,2024-10-25_14h10.47.405,uWM_experiment,2022.2.3,60.00376824
,,,,,,,,,,,,,,,,,,,,4,0,4,0,16,0,16,0,,,,,,,,,,,,,,,,,,,,,,,,,,,,,,,,,,,,,,,,,,,,,,,,,,,,,,,,,,,,,,,,,,,,,,0,,,,,,,,,,,,,,,,,,,,,,,,,,,,right,1,160,30,190,0,2007.1461,2007.1461,2007.1461,None,None,2,0,0.7575171,,,,,,,,,,,,,,,,,,,10,11,1,2024-10-25_14h10.47.405,uWM_experiment,2022.2.3,60.00376824
,,,,,,,,,,,,,,,,,,,,4,0,4,0,17,0,17,0,,,,,,,,,,,,,,,,,,,,,,,,,,,,,,,,,,,,,,,,,,,,,,,,,,,,,,,,,,,,,,,,,,,,,,0.005,,,,,,,,,,,,,,,,,,,,,,,,,,,,left,0,130,30,160,1,2015.146427,2015.146427,2015.146427,None,None,4,0,0.5972277,,,,,,,,,,,,,,,,,,,10,11,1,2024-10-25_14h10.47.405,uWM_experiment,2022.2.3,60.00376824
,,,,,,,,,,,,,,,,,,,,4,0,4,0,18,0,18,0,,,,,,,,,,,,,,,,,,,,,,,,,,,,,,,,,,,,,,,,,,,,,,,,,,,,,,,,,,,,,,,,,,,,,,0.005,,,,,,,,,,,,,,,,,,,,,,,,,,,,right,0,70,-30,40,1,2024.680107,2024.680107,2024.680107,None,None,3,0,1.695376,,,,,,,,,,,,,,,,,,,10,11,1,2024-10-25_14h10.47.405,uWM_experiment,2022.2.3,60.00376824
,,,,,,,,,,,,,,,,,,,,4,0,4,0,19,0,19,0,,,,,,,,,,,,,,,,,,,,,,,,,,,,,,,,,,,,,,,,,,,,,,,,,,,,,,,,,,,,,,,,,,,,,,0.005,,,,,,,,,,,,,,,,,,,,,,,,,,,,left,1,100,-30,70,1,2035.330552,2035.330552,2035.330552,None,None,3,0,0.8768994,,,,,,,,,,,,,,,,,,,10,11,1,2024-10-25_14h10.47.405,uWM_experiment,2022.2.3,60.00376824
,,,,,,,,,,,,,,,,,,,,4,0,4,0,20,0,20,0,,,,,,,,,,,,,,,,,,,,,,,,,,,,,,,,,,,,,,,,,,,,,,,,,,,,,,,,,,,,,,,,,,,,,,0,,,,,,,,,,,,,,,,,,,,,,,,,,,,right,0,100,-30,70,0,2043.597537,2043.597537,2043.597537,None,None,3,0,0.825964,,,,,,,,,,,,,,,,,,,10,11,1,2024-10-25_14h10.47.405,uWM_experiment,2022.2.3,60.00376824
,,,,,,,,,,,,,,,,,,,,4,0,4,0,21,0,21,0,,,,,,,,,,,,,,,,,,,,,,,,,,,,,,,,,,,,,,,,,,,,,,,,,,,,,,,,,,,,,,,,,,,,,,0.005,,,,,,,,,,,,,,,,,,,,,,,,,,,,left,0,160,30,190,1,2050.831157,2050.831157,2050.831157,None,None,2,0,1.4963187,,,,,,,,,,,,,,,,,,,10,11,1,2024-10-25_14h10.47.405,uWM_experiment,2022.2.3,60.00376824
,,,,,,,,,,,,,,,,,,,,4,0,4,0,22,0,22,0,,,,,,,,,,,,,,,,,,,,,,,,,,,,,,,,,,,,,,,,,,,,,,,,,,,,,,,,,,,,,,,,,,,,,,0.005,,,,,,,,,,,,,,,,,,,,,,,,,,,,right,0,10,-30,-20,1,2059.94825,2059.94825,2059.94825,None,None,2,0,1.3631119,,,,,,,,,,,,,,,,,,,10,11,1,2024-10-25_14h10.47.405,uWM_experiment,2022.2.3,60.00376824
,,,,,,,,,,,,,,,,,,,,4,0,4,0,23,0,23,0,,,,,,,,,,,,,,,,,,,,,,,,,,,,,,,,,,,,,,,,,,,,,,,,,,,,,,,,,,,,,,,,,,,,,,0.005,,,,,,,,,,,,,,,,,,,,,,,,,,,,left,0,100,30,130,1,2068.398529,2068.398529,2068.398529,None,None,3,0,1.5608616,,,,,,,,,,,,,,,,,,,10,11,1,2024-10-25_14h10.47.405,uWM_experiment,2022.2.3,60.00376824
,,,,,,,,,,,,,,,,,,,,4,0,4,0,,,,,0,0,0,0,,,,,,,,,,,,,,,,,,,,,,,,,,,,,,,,,,,,,,,,,,,,,,,,,,,,,,,,,,,,,,,,,,,,,,,,,,,,,,,,,,,,,,,,,,,,,,,,,,,,,,,,,,,,2069.981909,2069.981909,space,42.7372406,None,None,,,,,,,,,,,,,10,11,1,2024-10-25_14h10.47.405,uWM_experiment,2022.2.3,60.00376824
,,,,,,,,,,,,,,,,,,,,4,0,4,0,,,,,1,0,1,0,,,,,,,,,,,,,,,,,,,,,,,,,,,,,,,,,,,,,,,,,,,,,,,,,,,,,,,,,,,,,,,,,,,,,,,,,,,,,,,,,,,,,,,,,,,,,,,,,,,,,,,,,,,,,,,,,,,,,,,,,,,,,,10,11,1,2024-10-25_14h10.47.405,uWM_experiment,2022.2.3,60.00376824
,,,,,,,,,,,,,,,,,,,,4,0,4,0,,,,,2,0,2,0,,,,,,,,,,,,,,,,,,,,,,,,,,,,,,,,,,,,,,,,,,,,,,,,,,,,,,,,,,,,,,,,,,,,,,,,,,,,,,,,,,,,,,,,,,,,,,,,,,,,,,,,,,,,,,,,,,,,,,,,,,,,,,10,11,1,2024-10-25_14h10.47.405,uWM_experiment,2022.2.3,60.00376824
,,,,,,,,,,,,,,,,,,,,5,0,5,0,0,0,0,0,,,,,,,,,,,,,,,,,,,,,,,,,,,,,,,,,,,,,,,,,,,,,,,,,,,,,,,,,,,,,,,,,,,,,,0.005,,,,,,,,,,,,,,,,,,,,2112.75025,2113.450278,2113.750307,2114.450314,2114.750321,2115.450347,2115.450347,2115.76704,left,1,160,-30,130,1,2120.650583,2120.650583,2120.650583,None,None,1,1,0.3804988,,,,,,,None,,,,,,,,,,,,10,11,1,2024-10-25_14h10.47.405,uWM_experiment,2022.2.3,60.00376824
,,,,,,,,,,,,,,,,,,,,5,0,5,0,1,0,1,0,,,,,,,,,,,,,,,,,,,,,,,,,,,,,,,,,,,,,,,,,,,,,,,,,,,,,,,,,,,,,,,,,,,,,,0.015,,,,,,,,,,,,,,,,,,,,,,,,,,,,left,1,160,-30,130,1,2127.584189,2127.584189,2127.584189,None,None,2,0,0.8387573,,,,,,,,,,,,,,,,,,,10,11,1,2024-10-25_14h10.47.405,uWM_experiment,2022.2.3,60.00376824
,,,,,,,,,,,,,,,,,,,,5,0,5,0,2,0,2,0,,,,,,,,,,,,,,,,,,,,,,,,,,,,,,,,,,,,,,,,,,,,,,,,,,,,,,,,,,,,,,,,,,,,,,0.005,,,,,,,,,,,,,,,,,,,,,,,,,,,,left,0,130,30,160,1,2134.601117,2134.601117,2134.601117,None,None,3,0,0.7017339,,,,,,,,,,,,,,,,,,,10,11,1,2024-10-25_14h10.47.405,uWM_experiment,2022.2.3,60.00376824
,,,,,,,,,,,,,,,,,,,,5,0,5,0,3,0,3,0,,,,,,,,,,,,,,,,,,,,,,,,,,,,,,,,,,,,,,,,,,,,,,,,,,,,,,,,,,,,,,,,,,,,,,0.005,,,,,,,,,,,,,,,,,,,,,,,,,,,,right,0,100,-30,70,1,2141.084726,2141.084726,2141.084726,None,None,3,0,0.6260865,,,,,,,,,,,,,,,,,,,10,11,1,2024-10-25_14h10.47.405,uWM_experiment,2022.2.3,60.00376824
,,,,,,,,,,,,,,,,,,,,5,0,5,0,4,0,4,0,,,,,,,,,,,,,,,,,,,,,,,,,,,,,,,,,,,,,,,,,,,,,,,,,,,,,,,,,,,,,,,,,,,,,,0.005,,,,,,,,,,,,,,,,,,,,,,,,,,,,right,0,70,-30,40,1,2148.851681,2148.851681,2148.851681,None,None,2,0,0.4752508,,,,,,,,,,,,,,,,,,,10,11,1,2024-10-25_14h10.47.405,uWM_experiment,2022.2.3,60.00376824
,,,,,,,,,,,,,,,,,,,,5,0,5,0,5,0,5,0,,,,,,,,,,,,,,,,,,,,,,,,,,,,,,,,,,,,,,,,,,,,,,,,,,,,,,,,,,,,,,,,,,,,,,0.005,,,,,,,,,,,,,,,,,,,,,,,,,,,,right,0,70,-30,40,1,2155.601959,2155.601959,2155.601959,None,None,3,0,0.4928816,,,,,,,,,,,,,,,,,,,10,11,1,2024-10-25_14h10.47.405,uWM_experiment,2022.2.3,60.00376824
,,,,,,,,,,,,,,,,,,,,5,0,5,0,6,0,6,0,,,,,,,,,,,,,,,,,,,,,,,,,,,,,,,,,,,,,,,,,,,,,,,,,,,,,,,,,,,,,,,,,,,,,,0.005,,,,,,,,,,,,,,,,,,,,,,,,,,,,right,1,160,30,190,1,2164.502285,2164.502285,2164.502285,None,None,3,0,2.8004989,,,,,,,,,,,,,,,,,,,10,11,1,2024-10-25_14h10.47.405,uWM_experiment,2022.2.3,60.00376824
,,,,,,,,,,,,,,,,,,,,5,0,5,0,7,0,7,0,,,,,,,,,,,,,,,,,,,,,,,,,,,,,,,,,,,,,,,,,,,,,,,,,,,,,,,,,,,,,,,,,,,,,,0,,,,,,,,,,,,,,,,,,,,,,,,,,,,left,1,100,-30,70,0,2175.16941,2175.16941,2175.16941,None,None,2,0,0.7653441,,,,,,,,,,,,,,,,,,,10,11,1,2024-10-25_14h10.47.405,uWM_experiment,2022.2.3,60.00376824
,,,,,,,,,,,,,,,,,,,,5,0,5,0,8,0,8,0,,,,,,,,,,,,,,,,,,,,,,,,,,,,,,,,,,,,,,,,,,,,,,,,,,,,,,,,,,,,,,,,,,,,,,0.005,,,,,,,,,,,,,,,,,,,,,,,,,,,,right,0,70,-30,40,1,2182.753026,2182.753026,2182.753026,None,None,3,0,1.8136903,,,,,,,,,,,,,,,,,,,10,11,1,2024-10-25_14h10.47.405,uWM_experiment,2022.2.3,60.00376824
,,,,,,,,,,,,,,,,,,,,5,0,5,0,9,0,9,0,,,,,,,,,,,,,,,,,,,,,,,,,,,,,,,,,,,,,,,,,,,,,,,,,,,,,,,,,,,,,,,,,,,,,,0.005,,,,,,,,,,,,,,,,,,,,,,,,,,,,right,0,40,-30,10,1,2190.970016,2190.970016,2190.970016,None,None,2,0,0.4365366,,,,,,,,,,,,,,,,,,,10,11,1,2024-10-25_14h10.47.405,uWM_experiment,2022.2.3,60.00376824
,,,,,,,,,,,,,,,,,,,,5,0,5,0,10,0,10,0,,,,,,,,,,,,,,,,,,,,,,,,,,,,,,,,,,,,,,,,,,,,,,,,,,,,,,,,,,,,,,,,,,,,,,0.005,,,,,,,,,,,,,,,,,,,,,,,,,,,,left,1,160,-30,130,1,2197.770294,2197.770294,2197.770294,None,None,2,0,0.8122334,,,,,,,,,,,,,,,,,,,10,11,1,2024-10-25_14h10.47.405,uWM_experiment,2022.2.3,60.00376824
,,,,,,,,,,,,,,,,,,,,5,0,5,0,11,0,11,0,,,,,,,,,,,,,,,,,,,,,,,,,,,,,,,,,,,,,,,,,,,,,,,,,,,,,,,,,,,,,,,,,,,,,,0.005,,,,,,,,,,,,,,,,,,,,,,,,,,,,left,1,130,-30,100,1,2206.353939,2206.353939,2206.353939,None,None,1,1,0.9086564,,,,,,,,,,,,,,,,,,,10,11,1,2024-10-25_14h10.47.405,uWM_experiment,2022.2.3,60.00376824
,,,,,,,,,,,,,,,,,,,,5,0,5,0,12,0,12,0,,,,,,,,,,,,,,,,,,,,,,,,,,,,,,,,,,,,,,,,,,,,,,,,,,,,,,,,,,,,,,,,,,,,,,0.015,,,,,,,,,,,,,,,,,,,,,,,,,,,,left,1,70,-30,40,1,2216.004338,2216.004338,2216.004338,None,None,2,0,1.2102275,,,,,,,,,,,,,,,,,,,10,11,1,2024-10-25_14h10.47.405,uWM_experiment,2022.2.3,60.00376824
,,,,,,,,,,,,,,,,,,,,5,0,5,0,13,0,13,0,,,,,,,,,,,,,,,,,,,,,,,,,,,,,,,,,,,,,,,,,,,,,,,,,,,,,,,,,,,,,,,,,,,,,,0.005,,,,,,,,,,,,,,,,,,,,,,,,,,,,left,1,130,-30,100,1,2225.421346,2225.421346,2225.421346,None,None,2,0,0.4491468,,,,,,,,,,,,,,,,,,,10,11,1,2024-10-25_14h10.47.405,uWM_experiment,2022.2.3,60.00376824
,,,,,,,,,,,,,,,,,,,,5,0,5,0,14,0,14,0,,,,,,,,,,,,,,,,,,,,,,,,,,,,,,,,,,,,,,,,,,,,,,,,,,,,,,,,,,,,,,,,,,,,,,0,,,,,,,,,,,,,,,,,,,,,,,,,,,,right,1,10,30,40,0,2233.655009,2233.655009,2233.655009,None,None,2,0,1.0074221,,,,,,,,,,,,,,,,,,,10,11,1,2024-10-25_14h10.47.405,uWM_experiment,2022.2.3,60.00376824
,,,,,,,,,,,,,,,,,,,,5,0,5,0,15,0,15,0,,,,,,,,,,,,,,,,,,,,,,,,,,,,,,,,,,,,,,,,,,,,,,,,,,,,,,,,,,,,,,,,,,,,,,0.005,,,,,,,,,,,,,,,,,,,,,,,,,,,,right,0,40,-30,10,1,2240.438614,2240.438614,2240.438614,None,None,1,1,0.4477768,,,,,,,,,,,,,,,,,,,10,11,1,2024-10-25_14h10.47.405,uWM_experiment,2022.2.3,60.00376824
,,,,,,,,,,,,,,,,,,,,5,0,5,0,16,0,16,0,,,,,,,,,,,,,,,,,,,,,,,,,,,,,,,,,,,,,,,,,,,,,,,,,,,,,,,,,,,,,,,,,,,,,,0.015,,,,,,,,,,,,,,,,,,,,,,,,,,,,right,0,130,-30,100,1,2247.005551,2247.005551,2247.005551,None,None,1,1,0.4807948,,,,,,,,,,,,,,,,,,,10,11,1,2024-10-25_14h10.47.405,uWM_experiment,2022.2.3,60.00376824
,,,,,,,,,,,,,,,,,,,,5,0,5,0,17,0,17,0,,,,,,,,,,,,,,,,,,,,,,,,,,,,,,,,,,,,,,,,,,,,,,,,,,,,,,,,,,,,,,,,,,,,,,0.1,,,,,,,,,,,,,,,,,,,,,,,,,,,,left,1,160,-30,130,2,2255.739202,2255.739202,2255.739202,None,None,4,0,0.7550485,,,,,,,,,,,,,,,,,,,10,11,1,2024-10-25_14h10.47.405,uWM_experiment,2022.2.3,60.00376824
,,,,,,,,,,,,,,,,,,,,5,0,5,0,18,0,18,0,,,,,,,,,,,,,,,,,,,,,,,,,,,,,,,,,,,,,,,,,,,,,,,,,,,,,,,,,,,,,,,,,,,,,,0.025,,,,,,,,,,,,,,,,,,,,,,,,,,,,right,0,40,-30,10,1,2264.272885,2264.272885,2264.272885,None,None,3,0,0.8693071,,,,,,,,,,,,,,,,,,,10,11,1,2024-10-25_14h10.47.405,uWM_experiment,2022.2.3,60.00376824
,,,,,,,,,,,,,,,,,,,,5,0,5,0,19,0,19,0,,,,,,,,,,,,,,,,,,,,,,,,,,,,,,,,,,,,,,,,,,,,,,,,,,,,,,,,,,,,,,,,,,,,,,0.015,,,,,,,,,,,,,,,,,,,,,,,,,,,,left,0,70,30,100,1,2273.539929,2273.539929,2273.539929,None,None,2,0,1.0662767,,,,,,,,,,,,,,,,,,,10,11,1,2024-10-25_14h10.47.405,uWM_experiment,2022.2.3,60.00376824
,,,,,,,,,,,,,,,,,,,,5,0,5,0,20,0,20,0,,,,,,,,,,,,,,,,,,,,,,,,,,,,,,,,,,,,,,,,,,,,,,,,,,,,,,,,,,,,,,,,,,,,,,0,,,,,,,,,,,,,,,,,,,,,,,,,,,,right,1,40,30,70,0,2280.740202,2280.740202,2280.740202,None,None,2,0,0.5218734,,,,,,,,,,,,,,,,,,,10,11,1,2024-10-25_14h10.47.405,uWM_experiment,2022.2.3,60.00376824
,,,,,,,,,,,,,,,,,,,,5,0,5,0,21,0,21,0,,,,,,,,,,,,,,,,,,,,,,,,,,,,,,,,,,,,,,,,,,,,,,,,,,,,,,,,,,,,,,,,,,,,,,0.005,,,,,,,,,,,,,,,,,,,,,,,,,,,,left,1,160,-30,130,1,2287.223783,2287.223783,2287.223783,None,None,1,1,0.398301,,,,,,,,,,,,,,,,,,,10,11,1,2024-10-25_14h10.47.405,uWM_experiment,2022.2.3,60.00376824
,,,,,,,,,,,,,,,,,,,,5,0,5,0,22,0,22,0,,,,,,,,,,,,,,,,,,,,,,,,,,,,,,,,,,,,,,,,,,,,,,,,,,,,,,,,,,,,,,,,,,,,,,0,,,,,,,,,,,,,,,,,,,,,,,,,,,,left,1,130,-30,100,0,2293.540694,2293.540694,2293.540694,None,None,2,0,0.9693903,,,,,,,,,,,,,,,,,,,10,11,1,2024-10-25_14h10.47.405,uWM_experiment,2022.2.3,60.00376824
,,,,,,,,,,,,,,,,,,,,5,0,5,0,23,0,23,0,,,,,,,,,,,,,,,,,,,,,,,,,,,,,,,,,,,,,,,,,,,,,,,,,,,,,,,,,,,,,,,,,,,,,,0.015,,,,,,,,,,,,,,,,,,,,,,,,,,,,right,1,100,30,130,1,2300.540972,2300.540972,2300.540972,None,None,3,0,0.5290893,,,,,,,,,,,,,,,,,,,10,11,1,2024-10-25_14h10.47.405,uWM_experiment,2022.2.3,60.00376824
,,,,,,,,,,,,,,,,,,,,5,0,5,0,,,,,0,0,0,0,,,,,,,,,,,,,,,,,,,,,,,,,,,,,,,,,,,,,,,,,,,,,,,,,,,,,,,,,,,,,,,,,,,,,,,,,,,,,,,,,,,,,,,,,,,,,,,,,,,,,,,,,,,,2301.090978,2301.090978,space,17.7549919,space,None,,2318.875038,2318.875038,12.5469138,,,,,,,,,10,11,1,2024-10-25_14h10.47.405,uWM_experiment,2022.2.3,60.00376824
,,,,,,,,,,,,,,,,,,,,5,0,5,0,,,,,1,0,1,0,,,,,,,,,,,,,,,,,,,,,,,,,,,,,,,,,,,,,,,,,,,,,,,,,,,,,,,,,,,,,,,,,,,,,,,,,,,,,,,,,,,,,,,,,,,,,,,,,,,,,,,,,,,,,,,,,,,,,,,,,,,,,,10,11,1,2024-10-25_14h10.47.405,uWM_experiment,2022.2.3,60.00376824
,,,,,,,,,,,,,,,,,,,,5,0,5,0,,,,,2,0,2,0,,,,,,,,,,,,,,,,,,,,,,,,,,,,,,,,,,,,,,,,,,,,,,,,,,,,,,,,,,,,,,,,,,,,,,,,,,,,,,,,,,,,,,,,,,,,,,,,,,,,,,,,,,,,,,,,,,,,,,,,,,,,,,10,11,1,2024-10-25_14h10.47.405,uWM_experiment,2022.2.3,60.00376824
,,,,,,,,,,,,,,,,,,,,6,0,6,0,0,0,0,0,,,,,,,,,,,,,,,,,,,,,,,,,,,,,,,,,,,,,,,,,,,,,,,,,,,,,,,,,,,,,,,,,,,,,,0.005,,,,,,,,,,,,,,,,,,,,2331.442182,2332.142208,2332.442233,2333.142256,2333.442258,2334.142307,2334.142307,2334.45898,right,0,40,-30,10,1,2339.409187,2339.409187,2339.409187,None,None,2,0,0.3885575,,,,,,,None,,,,,,,,,,,,10,11,1,2024-10-25_14h10.47.405,uWM_experiment,2022.2.3,60.00376824
,,,,,,,,,,,,,,,,,,,,6,0,6,0,1,0,1,0,,,,,,,,,,,,,,,,,,,,,,,,,,,,,,,,,,,,,,,,,,,,,,,,,,,,,,,,,,,,,,,,,,,,,,0.005,,,,,,,,,,,,,,,,,,,,,,,,,,,,left,1,160,-30,130,1,2345.542748,2345.542748,2345.542748,None,None,1,1,0.4709845,,,,,,,,,,,,,,,,,,,10,11,1,2024-10-25_14h10.47.405,uWM_experiment,2022.2.3,60.00376824
,,,,,,,,,,,,,,,,,,,,6,0,6,0,2,0,2,0,,,,,,,,,,,,,,,,,,,,,,,,,,,,,,,,,,,,,,,,,,,,,,,,,,,,,,,,,,,,,,,,,,,,,,0,,,,,,,,,,,,,,,,,,,,,,,,,,,,right,1,70,30,100,0,2352.876358,2352.876358,2352.876358,None,None,2,0,0.7614608,,,,,,,,,,,,,,,,,,,10,11,1,2024-10-25_14h10.47.405,uWM_experiment,2022.2.3,60.00376824
,,,,,,,,,,,,,,,,,,,,6,0,6,0,3,0,3,0,,,,,,,,,,,,,,,,,,,,,,,,,,,,,,,,,,,,,,,,,,,,,,,,,,,,,,,,,,,,,,,,,,,,,,0,,,,,,,,,,,,,,,,,,,,,,,,,,,,right,1,100,30,130,0,2359.493315,2359.493315,2359.493315,None,None,1,1,0.7763852,,,,,,,,,,,,,,,,,,,10,11,1,2024-10-25_14h10.47.405,uWM_experiment,2022.2.3,60.00376824
,,,,,,,,,,,,,,,,,,,,6,0,6,0,4,0,4,0,,,,,,,,,,,,,,,,,,,,,,,,,,,,,,,,,,,,,,,,,,,,,,,,,,,,,,,,,,,,,,,,,,,,,,0.015,,,,,,,,,,,,,,,,,,,,,,,,,,,,right,1,10,30,40,1,2366.693568,2366.693568,2366.693568,None,None,2,0,1.8161621,,,,,,,,,,,,,,,,,,,10,11,1,2024-10-25_14h10.47.405,uWM_experiment,2022.2.3,60.00376824
,,,,,,,,,,,,,,,,,,,,6,0,6,0,5,0,5,0,,,,,,,,,,,,,,,,,,,,,,,,,,,,,,,,,,,,,,,,,,,,,,,,,,,,,,,,,,,,,,,,,,,,,,0.005,,,,,,,,,,,,,,,,,,,,,,,,,,,,left,1,100,-30,70,1,2375.477248,2375.477248,2375.477248,None,None,1,1,0.752333,,,,,,,,,,,,,,,,,,,10,11,1,2024-10-25_14h10.47.405,uWM_experiment,2022.2.3,60.00376824
,,,,,,,,,,,,,,,,,,,,6,0,6,0,6,0,6,0,,,,,,,,,,,,,,,,,,,,,,,,,,,,,,,,,,,,,,,,,,,,,,,,,,,,,,,,,,,,,,,,,,,,,,0.015,,,,,,,,,,,,,,,,,,,,,,,,,,,,left,1,160,-30,130,1,2382.960909,2382.960909,2382.960909,None,None,2,0,1.6366183,,,,,,,,,,,,,,,,,,,10,11,1,2024-10-25_14h10.47.405,uWM_experiment,2022.2.3,60.00376824
,,,,,,,,,,,,,,,,,,,,6,0,6,0,7,0,7,0,,,,,,,,,,,,,,,,,,,,,,,,,,,,,,,,,,,,,,,,,,,,,,,,,,,,,,,,,,,,,,,,,,,,,,0.1,,,,,,,,,,,,,,,,,,,,,,,,,,,,right,1,40,30,70,2,2391.694541,2391.694541,2391.694541,None,None,4,0,0.4230638,,,,,,,,,,,,,,,,,,,10,11,1,2024-10-25_14h10.47.405,uWM_experiment,2022.2.3,60.00376824
,,,,,,,,,,,,,,,,,,,,6,0,6,0,8,0,8,0,,,,,,,,,,,,,,,,,,,,,,,,,,,,,,,,,,,,,,,,,,,,,,,,,,,,,,,,,,,,,,,,,,,,,,0.005,,,,,,,,,,,,,,,,,,,,,,,,,,,,right,1,100,30,130,1,2399.078178,2399.078178,2399.078178,None,None,2,0,1.2953476,,,,,,,,,,,,,,,,,,,10,11,1,2024-10-25_14h10.47.405,uWM_experiment,2022.2.3,60.00376824
,,,,,,,,,,,,,,,,,,,,6,0,6,0,9,0,9,0,,,,,,,,,,,,,,,,,,,,,,,,,,,,,,,,,,,,,,,,,,,,,,,,,,,,,,,,,,,,,,,,,,,,,,0,,,,,,,,,,,,,,,,,,,,,,,,,,,,right,0,130,-30,100,0,2406.945163,2406.945163,2406.945163,None,None,3,0,0.6602841,,,,,,,,,,,,,,,,,,,10,11,1,2024-10-25_14h10.47.405,uWM_experiment,2022.2.3,60.00376824
,,,,,,,,,,,,,,,,,,,,6,0,6,0,10,0,10,0,,,,,,,,,,,,,,,,,,,,,,,,,,,,,,,,,,,,,,,,,,,,,,,,,,,,,,,,,,,,,,,,,,,,,,0,,,,,,,,,,,,,,,,,,,,,,,,,,,,right,1,70,30,100,0,2413.945443,2413.945443,2413.945443,None,None,2,0,1.04404,,,,,,,,,,,,,,,,,,,10,11,1,2024-10-25_14h10.47.405,uWM_experiment,2022.2.3,60.00376824
,,,,,,,,,,,,,,,,,,,,6,0,6,0,11,0,11,0,,,,,,,,,,,,,,,,,,,,,,,,,,,,,,,,,,,,,,,,,,,,,,,,,,,,,,,,,,,,,,,,,,,,,,0,,,,,,,,,,,,,,,,,,,,,,,,,,,,left,0,10,30,40,0,2421.412382,2421.412382,2421.412382,None,None,2,0,1.2169973,,,,,,,,,,,,,,,,,,,10,11,1,2024-10-25_14h10.47.405,uWM_experiment,2022.2.3,60.00376824
,,,,,,,,,,,,,,,,,,,,6,0,6,0,12,0,12,0,,,,,,,,,,,,,,,,,,,,,,,,,,,,,,,,,,,,,,,,,,,,,,,,,,,,,,,,,,,,,,,,,,,,,,0,,,,,,,,,,,,,,,,,,,,,,,,,,,,right,0,130,-30,100,0,2429.47938,2429.47938,2429.47938,None,None,3,0,1.749948,,,,,,,,,,,,,,,,,,,10,11,1,2024-10-25_14h10.47.405,uWM_experiment,2022.2.3,60.00376824
,,,,,,,,,,,,,,,,,,,,6,0,6,0,13,0,13,0,,,,,,,,,,,,,,,,,,,,,,,,,,,,,,,,,,,,,,,,,,,,,,,,,,,,,,,,,,,,,,,,,,,,,,0.005,,,,,,,,,,,,,,,,,,,,,,,,,,,,left,0,70,30,100,1,2438.529751,2438.529751,2438.529751,None,None,3,0,0.8674736,,,,,,,,,,,,,,,,,,,10,11,1,2024-10-25_14h10.47.405,uWM_experiment,2022.2.3,60.00376824
,,,,,,,,,,,,,,,,,,,,6,0,6,0,14,0,14,0,,,,,,,,,,,,,,,,,,,,,,,,,,,,,,,,,,,,,,,,,,,,,,,,,,,,,,,,,,,,,,,,,,,,,,0.005,,,,,,,,,,,,,,,,,,,,,,,,,,,,left,1,10,-30,-20,1,2446.030033,2446.030033,2446.030033,None,None,1,1,0.3832707,,,,,,,,,,,,,,,,,,,10,11,1,2024-10-25_14h10.47.405,uWM_experiment,2022.2.3,60.00376824
,,,,,,,,,,,,,,,,,,,,6,0,6,0,15,0,15,0,,,,,,,,,,,,,,,,,,,,,,,,,,,,,,,,,,,,,,,,,,,,,,,,,,,,,,,,,,,,,,,,,,,,,,0.015,,,,,,,,,,,,,,,,,,,,,,,,,,,,left,0,10,30,40,1,2452.663613,2452.663613,2452.663613,None,None,2,0,1.1975725,,,,,,,,,,,,,,,,,,,10,11,1,2024-10-25_14h10.47.405,uWM_experiment,2022.2.3,60.00376824
,,,,,,,,,,,,,,,,,,,,6,0,6,0,16,0,16,0,,,,,,,,,,,,,,,,,,,,,,,,,,,,,,,,,,,,,,,,,,,,,,,,,,,,,,,,,,,,,,,,,,,,,,0,,,,,,,,,,,,,,,,,,,,,,,,,,,,left,1,160,-30,130,0,2460.21395,2460.21395,2460.21395,None,None,2,0,0.5112381,,,,,,,,,,,,,,,,,,,10,11,1,2024-10-25_14h10.47.405,uWM_experiment,2022.2.3,60.00376824
,,,,,,,,,,,,,,,,,,,,6,0,6,0,17,0,17,0,,,,,,,,,,,,,,,,,,,,,,,,,,,,,,,,,,,,,,,,,,,,,,,,,,,,,,,,,,,,,,,,,,,,,,0.005,,,,,,,,,,,,,,,,,,,,,,,,,,,,right,0,40,-30,10,1,2467.814224,2467.814224,2467.814224,None,None,1,1,0.4948755,,,,,,,,,,,,,,,,,,,10,11,1,2024-10-25_14h10.47.405,uWM_experiment,2022.2.3,60.00376824
,,,,,,,,,,,,,,,,,,,,6,0,6,0,18,0,18,0,,,,,,,,,,,,,,,,,,,,,,,,,,,,,,,,,,,,,,,,,,,,,,,,,,,,,,,,,,,,,,,,,,,,,,0,,,,,,,,,,,,,,,,,,,,,,,,,,,,left,1,10,-30,-20,0,2476.447862,2476.447862,2476.447862,None,None,2,0,0.6052711,,,,,,,,,,,,,,,,,,,10,11,1,2024-10-25_14h10.47.405,uWM_experiment,2022.2.3,60.00376824
,,,,,,,,,,,,,,,,,,,,6,0,6,0,19,0,19,0,,,,,,,,,,,,,,,,,,,,,,,,,,,,,,,,,,,,,,,,,,,,,,,,,,,,,,,,,,,,,,,,,,,,,,0.015,,,,,,,,,,,,,,,,,,,,,,,,,,,,right,1,100,30,130,1,2484.048219,2484.048219,2484.048219,None,None,2,0,0.7489002,,,,,,,,,,,,,,,,,,,10,11,1,2024-10-25_14h10.47.405,uWM_experiment,2022.2.3,60.00376824
,,,,,,,,,,,,,,,,,,,,6,0,6,0,20,0,20,0,,,,,,,,,,,,,,,,,,,,,,,,,,,,,,,,,,,,,,,,,,,,,,,,,,,,,,,,,,,,,,,,,,,,,,0.005,,,,,,,,,,,,,,,,,,,,,,,,,,,,left,0,10,30,40,1,2491.581811,2491.581811,2491.581811,None,None,2,0,1.2231862,,,,,,,,,,,,,,,,,,,10,11,1,2024-10-25_14h10.47.405,uWM_experiment,2022.2.3,60.00376824
,,,,,,,,,,,,,,,,,,,,6,0,6,0,21,0,21,0,,,,,,,,,,,,,,,,,,,,,,,,,,,,,,,,,,,,,,,,,,,,,,,,,,,,,,,,,,,,,,,,,,,,,,0,,,,,,,,,,,,,,,,,,,,,,,,,,,,right,0,100,-30,70,0,2499.498801,2499.498801,2499.498801,None,None,2,0,0.5700662,,,,,,,,,,,,,,,,,,,10,11,1,2024-10-25_14h10.47.405,uWM_experiment,2022.2.3,60.00376824
,,,,,,,,,,,,,,,,,,,,6,0,6,0,22,0,22,0,,,,,,,,,,,,,,,,,,,,,,,,,,,,,,,,,,,,,,,,,,,,,,,,,,,,,,,,,,,,,,,,,,,,,,0.005,,,,,,,,,,,,,,,,,,,,,,,,,,,,right,1,70,30,100,1,2507.11575,2507.11575,2507.11575,None,None,2,0,0.449173,,,,,,,,,,,,,,,,,,,10,11,1,2024-10-25_14h10.47.405,uWM_experiment,2022.2.3,60.00376824
,,,,,,,,,,,,,,,,,,,,6,0,6,0,23,0,23,0,,,,,,,,,,,,,,,,,,,,,,,,,,,,,,,,,,,,,,,,,,,,,,,,,,,,,,,,,,,,,,,,,,,,,,0.005,,,,,,,,,,,,,,,,,,,,,,,,,,,,right,1,10,30,40,1,2514.682734,2514.682734,2514.682734,None,None,2,0,0.9700924,,,,,,,,,,,,,,,,,,,10,11,1,2024-10-25_14h10.47.405,uWM_experiment,2022.2.3,60.00376824
,,,,,,,,,,,,,,,,,,,,6,0,6,0,,,,,0,0,0,0,,,,,,,,,,,,,,,,,,,,,,,,,,,,,,,,,,,,,,,,,,,,,,,,,,,,,,,,,,,,,,,,,,,,,,,,,,,,,,,,,,,,,,,,,,,,,,,,,,,,,,,,,,,,2515.682725,2515.682725,space,29.5139611,None,space,,,,,2545.217209,2545.217209,9.7954814,,,,,,10,11,1,2024-10-25_14h10.47.405,uWM_experiment,2022.2.3,60.00376824
,,,,,,,,,,,,,,,,,,,,6,0,6,0,,,,,1,0,1,0,,,,,,,,,,,,,,,,,,,,,,,,,,,,,,,,,,,,,,,,,,,,,,,,,,,,,,,,,,,,,,,,,,,,,,,,,,,,,,,,,,,,,,,,,,,,,,,,,,,,,,,,,,,,,,,,,,,,,,,,,,,,,,10,11,1,2024-10-25_14h10.47.405,uWM_experiment,2022.2.3,60.00376824
,,,,,,,,,,,,,,,,,,,,6,0,6,0,,,,,2,0,2,0,,,,,,,,,,,,,,,,,,,,,,,,,,,,,,,,,,,,,,,,,,,,,,,,,,,,,,,,,,,,,,,,,,,,,,,,,,,,,,,,,,,,,,,,,,,,,,,,,,,,,,,,,,,,,,,,,,,,,,,,,,,,,,10,11,1,2024-10-25_14h10.47.405,uWM_experiment,2022.2.3,60.00376824
,,,,,,,,,,,,,,,,,,,,7,0,7,0,0,0,0,0,,,,,,,,,,,,,,,,,,,,,,,,,,,,,,,,,,,,,,,,,,,,,,,,,,,,,,,,,,,,,,,,,,,,,,0.005,,,,,,,,,,,,,,,,,,,,2571.618274,2572.318303,2572.601652,2573.301665,2573.601687,2574.301713,2574.301713,2574.618426,right,1,40,30,70,1,2581.168677,2581.168677,2581.168677,None,None,2,0,0.6677748,,,,,,,space,,,,,,,2563.91798,2563.91798,7.6706153,,,10,11,1,2024-10-25_14h10.47.405,uWM_experiment,2022.2.3,60.00376824
,,,,,,,,,,,,,,,,,,,,7,0,7,0,1,0,1,0,,,,,,,,,,,,,,,,,,,,,,,,,,,,,,,,,,,,,,,,,,,,,,,,,,,,,,,,,,,,,,,,,,,,,,0.005,,,,,,,,,,,,,,,,,,,,,,,,,,,,right,1,40,30,70,1,2587.818936,2587.818936,2587.818936,None,None,2,0,0.5294614,,,,,,,,,,,,,,,,,,,10,11,1,2024-10-25_14h10.47.405,uWM_experiment,2022.2.3,60.00376824
,,,,,,,,,,,,,,,,,,,,7,0,7,0,2,0,2,0,,,,,,,,,,,,,,,,,,,,,,,,,,,,,,,,,,,,,,,,,,,,,,,,,,,,,,,,,,,,,,,,,,,,,,0.005,,,,,,,,,,,,,,,,,,,,,,,,,,,,right,1,40,30,70,1,2594.352565,2594.352565,2594.352565,None,None,2,0,0.3799078,,,,,,,,,,,,,,,,,,,10,11,1,2024-10-25_14h10.47.405,uWM_experiment,2022.2.3,60.00376824
,,,,,,,,,,,,,,,,,,,,7,0,7,0,3,0,3,0,,,,,,,,,,,,,,,,,,,,,,,,,,,,,,,,,,,,,,,,,,,,,,,,,,,,,,,,,,,,,,,,,,,,,,0.1,,,,,,,,,,,,,,,,,,,,,,,,,,,,left,1,130,-30,100,2,2602.48616,2602.48616,2602.48616,None,None,4,0,0.3822644,,,,,,,,,,,,,,,,,,,10,11,1,2024-10-25_14h10.47.405,uWM_experiment,2022.2.3,60.00376824
,,,,,,,,,,,,,,,,,,,,7,0,7,0,4,0,4,0,,,,,,,,,,,,,,,,,,,,,,,,,,,,,,,,,,,,,,,,,,,,,,,,,,,,,,,,,,,,,,,,,,,,,,0,,,,,,,,,,,,,,,,,,,,,,,,,,,,right,1,130,30,160,0,2609.169744,2609.169744,2609.169744,None,None,3,0,1.8025353,,,,,,,,,,,,,,,,,,,10,11,1,2024-10-25_14h10.47.405,uWM_experiment,2022.2.3,60.00376824
,,,,,,,,,,,,,,,,,,,,7,0,7,0,5,0,5,0,,,,,,,,,,,,,,,,,,,,,,,,,,,,,,,,,,,,,,,,,,,,,,,,,,,,,,,,,,,,,,,,,,,,,,0.005,,,,,,,,,,,,,,,,,,,,,,,,,,,,left,0,100,30,130,1,2616.90341,2616.90341,2616.90341,None,None,2,0,0.4528304,,,,,,,,,,,,,,,,,,,10,11,1,2024-10-25_14h10.47.405,uWM_experiment,2022.2.3,60.00376824
,,,,,,,,,,,,,,,,,,,,7,0,7,0,6,0,6,0,,,,,,,,,,,,,,,,,,,,,,,,,,,,,,,,,,,,,,,,,,,,,,,,,,,,,,,,,,,,,,,,,,,,,,0,,,,,,,,,,,,,,,,,,,,,,,,,,,,right,0,40,-30,10,0,2623.186965,2623.186965,2623.186965,None,None,1,1,0.3532803,,,,,,,,,,,,,,,,,,,10,11,1,2024-10-25_14h10.47.405,uWM_experiment,2022.2.3,60.00376824
,,,,,,,,,,,,,,,,,,,,7,0,7,0,7,0,7,0,,,,,,,,,,,,,,,,,,,,,,,,,,,,,,,,,,,,,,,,,,,,,,,,,,,,,,,,,,,,,,,,,,,,,,0,,,,,,,,,,,,,,,,,,,,,,,,,,,,left,1,130,-30,100,0,2629.353887,2629.353887,2629.353887,None,None,2,0,1.1624752,,,,,,,,,,,,,,,,,,,10,11,1,2024-10-25_14h10.47.405,uWM_experiment,2022.2.3,60.00376824
,,,,,,,,,,,,,,,,,,,,7,0,7,0,8,0,8,0,,,,,,,,,,,,,,,,,,,,,,,,,,,,,,,,,,,,,,,,,,,,,,,,,,,,,,,,,,,,,,,,,,,,,,0.005,,,,,,,,,,,,,,,,,,,,,,,,,,,,left,0,70,30,100,1,2636.654175,2636.654175,2636.654175,None,None,2,0,1.1179938,,,,,,,,,,,,,,,,,,,10,11,1,2024-10-25_14h10.47.405,uWM_experiment,2022.2.3,60.00376824
,,,,,,,,,,,,,,,,,,,,7,0,7,0,9,0,9,0,,,,,,,,,,,,,,,,,,,,,,,,,,,,,,,,,,,,,,,,,,,,,,,,,,,,,,,,,,,,,,,,,,,,,,0.005,,,,,,,,,,,,,,,,,,,,,,,,,,,,right,1,160,30,190,1,2645.904547,2645.904547,2645.904547,None,None,2,0,0.467537,,,,,,,,,,,,,,,,,,,10,11,1,2024-10-25_14h10.47.405,uWM_experiment,2022.2.3,60.00376824
,,,,,,,,,,,,,,,,,,,,7,0,7,0,10,0,10,0,,,,,,,,,,,,,,,,,,,,,,,,,,,,,,,,,,,,,,,,,,,,,,,,,,,,,,,,,,,,,,,,,,,,,,0.005,,,,,,,,,,,,,,,,,,,,,,,,,,,,right,1,10,30,40,1,2653.404836,2653.404836,2653.404836,None,None,1,1,0.4632556,,,,,,,,,,,,,,,,,,,10,11,1,2024-10-25_14h10.47.405,uWM_experiment,2022.2.3,60.00376824
,,,,,,,,,,,,,,,,,,,,7,0,7,0,11,0,11,0,,,,,,,,,,,,,,,,,,,,,,,,,,,,,,,,,,,,,,,,,,,,,,,,,,,,,,,,,,,,,,,,,,,,,,0,,,,,,,,,,,,,,,,,,,,,,,,,,,,right,0,40,-30,10,0,2660.388437,2660.388437,2660.388437,None,None,2,0,1.4157282,,,,,,,,,,,,,,,,,,,10,11,1,2024-10-25_14h10.47.405,uWM_experiment,2022.2.3,60.00376824
,,,,,,,,,,,,,,,,,,,,7,0,7,0,12,0,12,0,,,,,,,,,,,,,,,,,,,,,,,,,,,,,,,,,,,,,,,,,,,,,,,,,,,,,,,,,,,,,,,,,,,,,,0.015,,,,,,,,,,,,,,,,,,,,,,,,,,,,left,0,40,30,70,1,2669.472121,2669.472121,2669.472121,None,None,2,0,0.763964,,,,,,,,,,,,,,,,,,,10,11,1,2024-10-25_14h10.47.405,uWM_experiment,2022.2.3,60.00376824
,,,,,,,,,,,,,,,,,,,,7,0,7,0,13,0,13,0,,,,,,,,,,,,,,,,,,,,,,,,,,,,,,,,,,,,,,,,,,,,,,,,,,,,,,,,,,,,,,,,,,,,,,0,,,,,,,,,,,,,,,,,,,,,,,,,,,,left,0,40,30,70,0,2678.2058,2678.2058,2678.2058,None,None,2,0,0.6782915,,,,,,,,,,,,,,,,,,,10,11,1,2024-10-25_14h10.47.405,uWM_experiment,2022.2.3,60.00376824
,,,,,,,,,,,,,,,,,,,,7,0,7,0,14,0,14,0,,,,,,,,,,,,,,,,,,,,,,,,,,,,,,,,,,,,,,,,,,,,,,,,,,,,,,,,,,,,,,,,,,,,,,0.005,,,,,,,,,,,,,,,,,,,,,,,,,,,,left,1,10,-30,-20,1,2685.672776,2685.672776,2685.672776,None,None,2,0,0.5151663,,,,,,,,,,,,,,,,,,,10,11,1,2024-10-25_14h10.47.405,uWM_experiment,2022.2.3,60.00376824
,,,,,,,,,,,,,,,,,,,,7,0,7,0,15,0,15,0,,,,,,,,,,,,,,,,,,,,,,,,,,,,,,,,,,,,,,,,,,,,,,,,,,,,,,,,,,,,,,,,,,,,,,0,,,,,,,,,,,,,,,,,,,,,,,,,,,,left,0,40,30,70,0,2696.023157,2696.023157,2696.023157,None,None,2,0,0.7648098,,,,,,,,,,,,,,,,,,,10,11,1,2024-10-25_14h10.47.405,uWM_experiment,2022.2.3,60.00376824
,,,,,,,,,,,,,,,,,,,,7,0,7,0,16,0,16,0,,,,,,,,,,,,,,,,,,,,,,,,,,,,,,,,,,,,,,,,,,,,,,,,,,,,,,,,,,,,,,,,,,,,,,0.005,,,,,,,,,,,,,,,,,,,,,,,,,,,,right,0,160,-30,130,1,2704.073504,2704.073504,2704.073504,None,None,1,1,0.5862618,,,,,,,,,,,,,,,,,,,10,11,1,2024-10-25_14h10.47.405,uWM_experiment,2022.2.3,60.00376824
,,,,,,,,,,,,,,,,,,,,7,0,7,0,17,0,17,0,,,,,,,,,,,,,,,,,,,,,,,,,,,,,,,,,,,,,,,,,,,,,,,,,,,,,,,,,,,,,,,,,,,,,,0.015,,,,,,,,,,,,,,,,,,,,,,,,,,,,right,0,70,-30,40,1,2710.707079,2710.707079,2710.707079,None,None,2,0,1.2728051,,,,,,,,,,,,,,,,,,,10,11,1,2024-10-25_14h10.47.405,uWM_experiment,2022.2.3,60.00376824
,,,,,,,,,,,,,,,,,,,,7,0,7,0,18,0,18,0,,,,,,,,,,,,,,,,,,,,,,,,,,,,,,,,,,,,,,,,,,,,,,,,,,,,,,,,,,,,,,,,,,,,,,0,,,,,,,,,,,,,,,,,,,,,,,,,,,,right,1,130,30,160,0,2718.424114,2718.424114,2718.424114,None,None,2,0,0.5317345,,,,,,,,,,,,,,,,,,,10,11,1,2024-10-25_14h10.47.405,uWM_experiment,2022.2.3,60.00376824
,,,,,,,,,,,,,,,,,,,,7,0,7,0,19,0,19,0,,,,,,,,,,,,,,,,,,,,,,,,,,,,,,,,,,,,,,,,,,,,,,,,,,,,,,,,,,,,,,,,,,,,,,0.005,,,,,,,,,,,,,,,,,,,,,,,,,,,,right,0,160,-30,130,1,2726.774376,2726.774376,2726.774376,None,None,2,0,0.3253922,,,,,,,,,,,,,,,,,,,10,11,1,2024-10-25_14h10.47.405,uWM_experiment,2022.2.3,60.00376824
,,,,,,,,,,,,,,,,,,,,7,0,7,0,20,0,20,0,,,,,,,,,,,,,,,,,,,,,,,,,,,,,,,,,,,,,,,,,,,,,,,,,,,,,,,,,,,,,,,,,,,,,,0,,,,,,,,,,,,,,,,,,,,,,,,,,,,right,0,100,-30,70,0,2736.324747,2736.324747,2736.324747,None,None,2,0,0.7110152,,,,,,,,,,,,,,,,,,,10,11,1,2024-10-25_14h10.47.405,uWM_experiment,2022.2.3,60.00376824
,,,,,,,,,,,,,,,,,,,,7,0,7,0,21,0,21,0,,,,,,,,,,,,,,,,,,,,,,,,,,,,,,,,,,,,,,,,,,,,,,,,,,,,,,,,,,,,,,,,,,,,,,0,,,,,,,,,,,,,,,,,,,,,,,,,,,,left,1,100,-30,70,0,2742.975034,2742.975034,2742.975034,None,None,2,0,0.524687,,,,,,,,,,,,,,,,,,,10,11,1,2024-10-25_14h10.47.405,uWM_experiment,2022.2.3,60.00376824
,,,,,,,,,,,,,,,,,,,,7,0,7,0,22,0,22,0,,,,,,,,,,,,,,,,,,,,,,,,,,,,,,,,,,,,,,,,,,,,,,,,,,,,,,,,,,,,,,,,,,,,,,0,,,,,,,,,,,,,,,,,,,,,,,,,,,,left,0,70,30,100,0,2750.658676,2750.658676,2750.658676,None,None,1,1,0.5848437,,,,,,,,,,,,,,,,,,,10,11,1,2024-10-25_14h10.47.405,uWM_experiment,2022.2.3,60.00376824
,,,,,,,,,,,,,,,,,,,,7,0,7,0,23,0,23,0,,,,,,,,,,,,,,,,,,,,,,,,,,,,,,,,,,,,,,,,,,,,,,,,,,,,,,,,,,,,,,,,,,,,,,0,,,,,,,,,,,,,,,,,,,,,,,,,,,,left,1,70,-30,40,0,2759.025662,2759.025662,2759.025662,None,None,2,0,0.9458953,,,,,,,,,,,,,,,,,,,10,11,1,2024-10-25_14h10.47.405,uWM_experiment,2022.2.3,60.00376824
,,,,,,,,,,,,,,,,,,,,7,0,7,0,,,,,0,0,0,0,,,,,,,,,,,,,,,,,,,,,,,,,,,,,,,,,,,,,,,,,,,,,,,,,,,,,,,,,,,,,,,,,,,,,,,,,,,,,,,,,,,,,,,,,,,,,,,,,,,,,,,,,,,,2759.992329,2759.992329,space,21.3551141,None,None,,,,,,,,,,,,,10,11,1,2024-10-25_14h10.47.405,uWM_experiment,2022.2.3,60.00376824
,,,,,,,,,,,,,,,,,,,,7,0,7,0,,,,,1,0,1,0,,,,,,,,,,,,,,,,,,,,,,,,,,,,,,,,,,,,,,,,,,,,,,,,,,,,,,,,,,,,,,,,,,,,,,,,,,,,,,,,,,,,,,,,,,,,,,,,,,,,,,,,,,,,,,,,,,,,,,,,,,,,,,10,11,1,2024-10-25_14h10.47.405,uWM_experiment,2022.2.3,60.00376824
,,,,,,,,,,,,,,,,,,,,7,0,7,0,,,,,2,0,2,0,,,,,,,,,,,,,,,,,,,,,,,,,,,,,,,,,,,,,,,,,,,,,,,,,,,,,,,,,,,,,,,,,,,,,,,,,,,,,,,,,,,,,,,,,,,,,,,,,,,,,,,,,,,,,,,,,,,,,,,,,,,,,,10,11,1,2024-10-25_14h10.47.405,uWM_experiment,2022.2.3,60.00376824
,,,,,,,,,,,,,,,,,,,,8,0,8,0,0,0,0,0,,,,,,,,,,,,,,,,,,,,,,,,,,,,,,,,,,,,,,,,,,,,,,,,,,,,,,,,,,,,,,,,,,,,,,0.005,,,,,,,,,,,,,,,,,,,,2781.376516,2782.07654,2782.376554,2783.076608,2783.376591,2784.076621,2784.076621,2784.393331,right,1,70,30,100,1,2789.860201,2789.860201,2789.860201,None,None,2,0,0.4231899,,,,,,,None,,,,,,,,,,,,10,11,1,2024-10-25_14h10.47.405,uWM_experiment,2022.2.3,60.00376824
,,,,,,,,,,,,,,,,,,,,8,0,8,0,1,0,1,0,,,,,,,,,,,,,,,,,,,,,,,,,,,,,,,,,,,,,,,,,,,,,,,,,,,,,,,,,,,,,,,,,,,,,,0,,,,,,,,,,,,,,,,,,,,,,,,,,,,left,1,100,-30,70,0,2796.610448,2796.610448,2796.610448,None,None,2,0,0.3449934,,,,,,,,,,,,,,,,,,,10,11,1,2024-10-25_14h10.47.405,uWM_experiment,2022.2.3,60.00376824
,,,,,,,,,,,,,,,,,,,,8,0,8,0,2,0,2,0,,,,,,,,,,,,,,,,,,,,,,,,,,,,,,,,,,,,,,,,,,,,,,,,,,,,,,,,,,,,,,,,,,,,,,0.005,,,,,,,,,,,,,,,,,,,,,,,,,,,,left,1,40,-30,10,1,2803.077366,2803.077366,2803.077366,None,None,1,1,0.4138951,,,,,,,,,,,,,,,,,,,10,11,1,2024-10-25_14h10.47.405,uWM_experiment,2022.2.3,60.00376824
,,,,,,,,,,,,,,,,,,,,8,0,8,0,3,0,3,0,,,,,,,,,,,,,,,,,,,,,,,,,,,,,,,,,,,,,,,,,,,,,,,,,,,,,,,,,,,,,,,,,,,,,,0.015,,,,,,,,,,,,,,,,,,,,,,,,,,,,right,1,40,30,70,1,2809.027617,2809.027617,2809.027617,None,None,1,1,0.3596412,,,,,,,,,,,,,,,,,,,10,11,1,2024-10-25_14h10.47.405,uWM_experiment,2022.2.3,60.00376824
,,,,,,,,,,,,,,,,,,,,8,0,8,0,4,0,4,0,,,,,,,,,,,,,,,,,,,,,,,,,,,,,,,,,,,,,,,,,,,,,,,,,,,,,,,,,,,,,,,,,,,,,,0,,,,,,,,,,,,,,,,,,,,,,,,,,,,left,0,70,30,100,0,2815.077905,2815.077905,2815.077905,None,None,1,1,0.4454533,,,,,,,,,,,,,,,,,,,10,11,1,2024-10-25_14h10.47.405,uWM_experiment,2022.2.3,60.00376824
,,,,,,,,,,,,,,,,,,,,8,0,8,0,5,0,5,0,,,,,,,,,,,,,,,,,,,,,,,,,,,,,,,,,,,,,,,,,,,,,,,,,,,,,,,,,,,,,,,,,,,,,,0.025,,,,,,,,,,,,,,,,,,,,,,,,,,,,right,0,10,-30,-20,1,2821.278084,2821.278084,2821.278084,None,None,2,0,0.5331348,,,,,,,,,,,,,,,,,,,10,11,1,2024-10-25_14h10.47.405,uWM_experiment,2022.2.3,60.00376824
,,,,,,,,,,,,,,,,,,,,8,0,8,0,6,0,6,0,,,,,,,,,,,,,,,,,,,,,,,,,,,,,,,,,,,,,,,,,,,,,,,,,,,,,,,,,,,,,,,,,,,,,,0.015,,,,,,,,,,,,,,,,,,,,,,,,,,,,left,0,160,30,190,1,2829.478431,2829.478431,2829.478431,None,None,1,1,1.0607359,,,,,,,,,,,,,,,,,,,10,11,1,2024-10-25_14h10.47.405,uWM_experiment,2022.2.3,60.00376824
,,,,,,,,,,,,,,,,,,,,8,0,8,0,7,0,7,0,,,,,,,,,,,,,,,,,,,,,,,,,,,,,,,,,,,,,,,,,,,,,,,,,,,,,,,,,,,,,,,,,,,,,,0.025,,,,,,,,,,,,,,,,,,,,,,,,,,,,left,1,10,-30,-20,1,2837.062039,2837.062039,2837.062039,None,None,2,0,0.9010211,,,,,,,,,,,,,,,,,,,10,11,1,2024-10-25_14h10.47.405,uWM_experiment,2022.2.3,60.00376824
,,,,,,,,,,,,,,,,,,,,8,0,8,0,8,0,8,0,,,,,,,,,,,,,,,,,,,,,,,,,,,,,,,,,,,,,,,,,,,,,,,,,,,,,,,,,,,,,,,,,,,,,,0.1,,,,,,,,,,,,,,,,,,,,,,,,,,,,right,1,10,30,40,2,2844.128986,2844.128986,2844.128986,None,None,4,0,0.346109,,,,,,,,,,,,,,,,,,,10,11,1,2024-10-25_14h10.47.405,uWM_experiment,2022.2.3,60.00376824
,,,,,,,,,,,,,,,,,,,,8,0,8,0,9,0,9,0,,,,,,,,,,,,,,,,,,,,,,,,,,,,,,,,,,,,,,,,,,,,,,,,,,,,,,,,,,,,,,,,,,,,,,0.015,,,,,,,,,,,,,,,,,,,,,,,,,,,,left,1,100,-30,70,1,2852.745985,2852.745985,2852.745985,None,None,3,0,1.0650484,,,,,,,,,,,,,,,,,,,10,11,1,2024-10-25_14h10.47.405,uWM_experiment,2022.2.3,60.00376824
,,,,,,,,,,,,,,,,,,,,8,0,8,0,10,0,10,0,,,,,,,,,,,,,,,,,,,,,,,,,,,,,,,,,,,,,,,,,,,,,,,,,,,,,,,,,,,,,,,,,,,,,,0,,,,,,,,,,,,,,,,,,,,,,,,,,,,left,0,130,30,160,0,2859.962934,2859.962934,2859.962934,None,None,2,0,1.0880264,,,,,,,,,,,,,,,,,,,10,11,1,2024-10-25_14h10.47.405,uWM_experiment,2022.2.3,60.00376824
,,,,,,,,,,,,,,,,,,,,8,0,8,0,11,0,11,0,,,,,,,,,,,,,,,,,,,,,,,,,,,,,,,,,,,,,,,,,,,,,,,,,,,,,,,,,,,,,,,,,,,,,,0.005,,,,,,,,,,,,,,,,,,,,,,,,,,,,left,1,40,-30,10,1,2867.879933,2867.879933,2867.879933,None,None,2,0,0.3310075,,,,,,,,,,,,,,,,,,,10,11,1,2024-10-25_14h10.47.405,uWM_experiment,2022.2.3,60.00376824
,,,,,,,,,,,,,,,,,,,,8,0,8,0,12,0,12,0,,,,,,,,,,,,,,,,,,,,,,,,,,,,,,,,,,,,,,,,,,,,,,,,,,,,,,,,,,,,,,,,,,,,,,0.005,,,,,,,,,,,,,,,,,,,,,,,,,,,,right,1,160,30,190,1,2874.230164,2874.230164,2874.230164,None,None,2,0,0.5088105,,,,,,,,,,,,,,,,,,,10,11,1,2024-10-25_14h10.47.405,uWM_experiment,2022.2.3,60.00376824
,,,,,,,,,,,,,,,,,,,,8,0,8,0,13,0,13,0,,,,,,,,,,,,,,,,,,,,,,,,,,,,,,,,,,,,,,,,,,,,,,,,,,,,,,,,,,,,,,,,,,,,,,0.005,,,,,,,,,,,,,,,,,,,,,,,,,,,,left,1,10,-30,-20,1,2881.580462,2881.580462,2881.580462,None,None,2,0,0.3823752,,,,,,,,,,,,,,,,,,,10,11,1,2024-10-25_14h10.47.405,uWM_experiment,2022.2.3,60.00376824
,,,,,,,,,,,,,,,,,,,,8,0,8,0,14,0,14,0,,,,,,,,,,,,,,,,,,,,,,,,,,,,,,,,,,,,,,,,,,,,,,,,,,,,,,,,,,,,,,,,,,,,,,0.1,,,,,,,,,,,,,,,,,,,,,,,,,,,,right,1,130,30,160,2,2887.897358,2887.897358,2887.897358,None,None,4,0,0.3534703,,,,,,,,,,,,,,,,,,,10,11,1,2024-10-25_14h10.47.405,uWM_experiment,2022.2.3,60.00376824
,,,,,,,,,,,,,,,,,,,,8,0,8,0,15,0,15,0,,,,,,,,,,,,,,,,,,,,,,,,,,,,,,,,,,,,,,,,,,,,,,,,,,,,,,,,,,,,,,,,,,,,,,0.1,,,,,,,,,,,,,,,,,,,,,,,,,,,,right,1,40,30,70,2,2894.397646,2894.397646,2894.397646,None,None,4,0,0.3011236,,,,,,,,,,,,,,,,,,,10,11,1,2024-10-25_14h10.47.405,uWM_experiment,2022.2.3,60.00376824
,,,,,,,,,,,,,,,,,,,,8,0,8,0,16,0,16,0,,,,,,,,,,,,,,,,,,,,,,,,,,,,,,,,,,,,,,,,,,,,,,,,,,,,,,,,,,,,,,,,,,,,,,0.005,,,,,,,,,,,,,,,,,,,,,,,,,,,,left,0,100,30,130,1,2902.697968,2902.697968,2902.697968,None,None,2,0,0.4248541,,,,,,,,,,,,,,,,,,,10,11,1,2024-10-25_14h10.47.405,uWM_experiment,2022.2.3,60.00376824
,,,,,,,,,,,,,,,,,,,,8,0,8,0,17,0,17,0,,,,,,,,,,,,,,,,,,,,,,,,,,,,,,,,,,,,,,,,,,,,,,,,,,,,,,,,,,,,,,,,,,,,,,0.005,,,,,,,,,,,,,,,,,,,,,,,,,,,,left,1,70,-30,40,1,2908.731519,2908.731519,2908.731519,None,None,1,1,0.4152193,,,,,,,,,,,,,,,,,,,10,11,1,2024-10-25_14h10.47.405,uWM_experiment,2022.2.3,60.00376824
,,,,,,,,,,,,,,,,,,,,8,0,8,0,18,0,18,0,,,,,,,,,,,,,,,,,,,,,,,,,,,,,,,,,,,,,,,,,,,,,,,,,,,,,,,,,,,,,,,,,,,,,,0,,,,,,,,,,,,,,,,,,,,,,,,,,,,left,0,130,30,160,0,2918.315249,2918.315249,2918.315249,None,None,2,0,1.0634256,,,,,,,,,,,,,,,,,,,10,11,1,2024-10-25_14h10.47.405,uWM_experiment,2022.2.3,60.00376824
,,,,,,,,,,,,,,,,,,,,8,0,8,0,19,0,19,0,,,,,,,,,,,,,,,,,,,,,,,,,,,,,,,,,,,,,,,,,,,,,,,,,,,,,,,,,,,,,,,,,,,,,,0.015,,,,,,,,,,,,,,,,,,,,,,,,,,,,left,1,40,-30,10,1,2926.315551,2926.315551,2926.315551,None,None,1,1,0.3591968,,,,,,,,,,,,,,,,,,,10,11,1,2024-10-25_14h10.47.405,uWM_experiment,2022.2.3,60.00376824
,,,,,,,,,,,,,,,,,,,,8,0,8,0,20,0,20,0,,,,,,,,,,,,,,,,,,,,,,,,,,,,,,,,,,,,,,,,,,,,,,,,,,,,,,,,,,,,,,,,,,,,,,0.025,,,,,,,,,,,,,,,,,,,,,,,,,,,,right,1,70,30,100,1,2933.565833,2933.565833,2933.565833,None,None,2,0,0.7087887,,,,,,,,,,,,,,,,,,,10,11,1,2024-10-25_14h10.47.405,uWM_experiment,2022.2.3,60.00376824
,,,,,,,,,,,,,,,,,,,,8,0,8,0,21,0,21,0,,,,,,,,,,,,,,,,,,,,,,,,,,,,,,,,,,,,,,,,,,,,,,,,,,,,,,,,,,,,,,,,,,,,,,0.015,,,,,,,,,,,,,,,,,,,,,,,,,,,,left,1,70,-30,40,1,2940.049441,2940.049441,2940.049441,None,None,1,1,1.585094,,,,,,,,,,,,,,,,,,,10,11,1,2024-10-25_14h10.47.405,uWM_experiment,2022.2.3,60.00376824
,,,,,,,,,,,,,,,,,,,,8,0,8,0,22,0,22,0,,,,,,,,,,,,,,,,,,,,,,,,,,,,,,,,,,,,,,,,,,,,,,,,,,,,,,,,,,,,,,,,,,,,,,0,,,,,,,,,,,,,,,,,,,,,,,,,,,,left,1,100,-30,70,0,2949.86649,2949.86649,2949.86649,None,None,2,0,0.6559736,,,,,,,,,,,,,,,,,,,10,11,1,2024-10-25_14h10.47.405,uWM_experiment,2022.2.3,60.00376824
,,,,,,,,,,,,,,,,,,,,8,0,8,0,23,0,23,0,,,,,,,,,,,,,,,,,,,,,,,,,,,,,,,,,,,,,,,,,,,,,,,,,,,,,,,,,,,,,,,,,,,,,,0.025,,,,,,,,,,,,,,,,,,,,,,,,,,,,right,1,100,30,130,1,2957.666791,2957.666791,2957.666791,None,None,2,0,0.8957293,,,,,,,,,,,,,,,,,,,10,11,1,2024-10-25_14h10.47.405,uWM_experiment,2022.2.3,60.00376824
,,,,,,,,,,,,,,,,,,,,8,0,8,0,,,,,0,0,0,0,,,,,,,,,,,,,,,,,,,,,,,,,,,,,,,,,,,,,,,,,,,,,,,,,,,,,,,,,,,,,,,,,,,,,,,,,,,,,,,,,,,,,,,,,,,,,,,,,,,,,,,,,,,,2958.58347,2958.58347,space,6.6910359,space,None,,2965.300411,2965.300411,20.7739999,,,,,,,,,10,11,1,2024-10-25_14h10.47.405,uWM_experiment,2022.2.3,60.00376824
,,,,,,,,,,,,,,,,,,,,8,0,8,0,,,,,1,0,1,0,,,,,,,,,,,,,,,,,,,,,,,,,,,,,,,,,,,,,,,,,,,,,,,,,,,,,,,,,,,,,,,,,,,,,,,,,,,,,,,,,,,,,,,,,,,,,,,,,,,,,,,,,,,,,,,,,,,,,,,,,,,,,,10,11,1,2024-10-25_14h10.47.405,uWM_experiment,2022.2.3,60.00376824
,,,,,,,,,,,,,,,,,,,,8,0,8,0,,,,,2,0,2,0,,,,,,,,,,,,,,,,,,,,,,,,,,,,,,,,,,,,,,,,,,,,,,,,,,,,,,,,,,,,,,,,,,,,,,,,,,,,,,,,,,,,,,,,,,,,,,,,,,,,,,,,,,,,,,,,,,,,,,,,,,,,,,10,11,1,2024-10-25_14h10.47.405,uWM_experiment,2022.2.3,60.00376824
,,,,,,,,,,,,,,,,,,,,9,0,9,0,0,0,0,0,,,,,,,,,,,,,,,,,,,,,,,,,,,,,,,,,,,,,,,,,,,,,,,,,,,,,,,,,,,,,,,,,,,,,,0.015,,,,,,,,,,,,,,,,,,,,2986.101219,2986.801276,2987.101273,2987.801286,2988.101296,2988.801325,2988.801325,2989.118015,left,1,160,-30,130,1,2996.084947,2996.084947,2996.084947,None,None,2,0,0.3732993,,,,,,,None,,,,,,,,,,,,10,11,1,2024-10-25_14h10.47.405,uWM_experiment,2022.2.3,60.00376824
,,,,,,,,,,,,,,,,,,,,9,0,9,0,1,0,1,0,,,,,,,,,,,,,,,,,,,,,,,,,,,,,,,,,,,,,,,,,,,,,,,,,,,,,,,,,,,,,,,,,,,,,,0,,,,,,,,,,,,,,,,,,,,,,,,,,,,left,0,130,30,160,0,3002.585212,3002.585212,3002.585212,None,None,2,0,0.4409745,,,,,,,,,,,,,,,,,,,10,11,1,2024-10-25_14h10.47.405,uWM_experiment,2022.2.3,60.00376824
,,,,,,,,,,,,,,,,,,,,9,0,9,0,2,0,2,0,,,,,,,,,,,,,,,,,,,,,,,,,,,,,,,,,,,,,,,,,,,,,,,,,,,,,,,,,,,,,,,,,,,,,,0,,,,,,,,,,,,,,,,,,,,,,,,,,,,left,0,130,30,160,0,3011.668949,3011.668949,3011.668949,None,None,2,0,0.4931621,,,,,,,,,,,,,,,,,,,10,11,1,2024-10-25_14h10.47.405,uWM_experiment,2022.2.3,60.00376824
,,,,,,,,,,,,,,,,,,,,9,0,9,0,3,0,3,0,,,,,,,,,,,,,,,,,,,,,,,,,,,,,,,,,,,,,,,,,,,,,,,,,,,,,,,,,,,,,,,,,,,,,,0,,,,,,,,,,,,,,,,,,,,,,,,,,,,right,0,40,-30,10,0,3020.252579,3020.252579,3020.252579,None,None,3,0,0.3575233,,,,,,,,,,,,,,,,,,,10,11,1,2024-10-25_14h10.47.405,uWM_experiment,2022.2.3,60.00376824
,,,,,,,,,,,,,,,,,,,,9,0,9,0,4,0,4,0,,,,,,,,,,,,,,,,,,,,,,,,,,,,,,,,,,,,,,,,,,,,,,,,,,,,,,,,,,,,,,,,,,,,,,0.005,,,,,,,,,,,,,,,,,,,,,,,,,,,,left,1,10,-30,-20,1,3026.819504,3026.819504,3026.819504,None,None,1,1,0.310586,,,,,,,,,,,,,,,,,,,10,11,1,2024-10-25_14h10.47.405,uWM_experiment,2022.2.3,60.00376824
,,,,,,,,,,,,,,,,,,,,9,0,9,0,5,0,5,0,,,,,,,,,,,,,,,,,,,,,,,,,,,,,,,,,,,,,,,,,,,,,,,,,,,,,,,,,,,,,,,,,,,,,,0.015,,,,,,,,,,,,,,,,,,,,,,,,,,,,left,0,10,30,40,1,3034.436447,3034.436447,3034.436447,None,None,2,0,0.4456833,,,,,,,,,,,,,,,,,,,10,11,1,2024-10-25_14h10.47.405,uWM_experiment,2022.2.3,60.00376824
,,,,,,,,,,,,,,,,,,,,9,0,9,0,6,0,6,0,,,,,,,,,,,,,,,,,,,,,,,,,,,,,,,,,,,,,,,,,,,,,,,,,,,,,,,,,,,,,,,,,,,,,,0.005,,,,,,,,,,,,,,,,,,,,,,,,,,,,right,1,70,30,100,1,3041.470081,3041.470081,3041.470081,None,None,2,0,0.52396,,,,,,,,,,,,,,,,,,,10,11,1,2024-10-25_14h10.47.405,uWM_experiment,2022.2.3,60.00376824
,,,,,,,,,,,,,,,,,,,,9,0,9,0,7,0,7,0,,,,,,,,,,,,,,,,,,,,,,,,,,,,,,,,,,,,,,,,,,,,,,,,,,,,,,,,,,,,,,,,,,,,,,0.005,,,,,,,,,,,,,,,,,,,,,,,,,,,,left,0,130,30,160,1,3048.03699,3048.03699,3048.03699,None,None,2,0,0.5730115,,,,,,,,,,,,,,,,,,,10,11,1,2024-10-25_14h10.47.405,uWM_experiment,2022.2.3,60.00376824
,,,,,,,,,,,,,,,,,,,,9,0,9,0,8,0,8,0,,,,,,,,,,,,,,,,,,,,,,,,,,,,,,,,,,,,,,,,,,,,,,,,,,,,,,,,,,,,,,,,,,,,,,0.005,,,,,,,,,,,,,,,,,,,,,,,,,,,,left,0,40,30,70,1,3055.170633,3055.170633,3055.170633,None,None,2,0,0.4313135,,,,,,,,,,,,,,,,,,,10,11,1,2024-10-25_14h10.47.405,uWM_experiment,2022.2.3,60.00376824
,,,,,,,,,,,,,,,,,,,,9,0,9,0,9,0,9,0,,,,,,,,,,,,,,,,,,,,,,,,,,,,,,,,,,,,,,,,,,,,,,,,,,,,,,,,,,,,,,,,,,,,,,0,,,,,,,,,,,,,,,,,,,,,,,,,,,,left,1,10,-30,-20,0,3062.487543,3062.487543,3062.487543,None,None,2,0,0.8022825,,,,,,,,,,,,,,,,,,,10,11,1,2024-10-25_14h10.47.405,uWM_experiment,2022.2.3,60.00376824
,,,,,,,,,,,,,,,,,,,,9,0,9,0,10,0,10,0,,,,,,,,,,,,,,,,,,,,,,,,,,,,,,,,,,,,,,,,,,,,,,,,,,,,,,,,,,,,,,,,,,,,,,0.005,,,,,,,,,,,,,,,,,,,,,,,,,,,,right,1,130,30,160,1,3069.471161,3069.471161,3069.471161,None,None,2,0,0.522763,,,,,,,,,,,,,,,,,,,10,11,1,2024-10-25_14h10.47.405,uWM_experiment,2022.2.3,60.00376824
,,,,,,,,,,,,,,,,,,,,9,0,9,0,11,0,11,0,,,,,,,,,,,,,,,,,,,,,,,,,,,,,,,,,,,,,,,,,,,,,,,,,,,,,,,,,,,,,,,,,,,,,,0,,,,,,,,,,,,,,,,,,,,,,,,,,,,left,1,10,-30,-20,0,3077.471488,3077.471488,3077.471488,None,None,1,1,0.4823094,,,,,,,,,,,,,,,,,,,10,11,1,2024-10-25_14h10.47.405,uWM_experiment,2022.2.3,60.00376824
,,,,,,,,,,,,,,,,,,,,9,0,9,0,12,0,12,0,,,,,,,,,,,,,,,,,,,,,,,,,,,,,,,,,,,,,,,,,,,,,,,,,,,,,,,,,,,,,,,,,,,,,,0.005,,,,,,,,,,,,,,,,,,,,,,,,,,,,right,1,160,30,190,1,3085.488476,3085.488476,3085.488476,None,None,2,0,0.8732732,,,,,,,,,,,,,,,,,,,10,11,1,2024-10-25_14h10.47.405,uWM_experiment,2022.2.3,60.00376824
,,,,,,,,,,,,,,,,,,,,9,0,9,0,13,0,13,0,,,,,,,,,,,,,,,,,,,,,,,,,,,,,,,,,,,,,,,,,,,,,,,,,,,,,,,,,,,,,,,,,,,,,,0.005,,,,,,,,,,,,,,,,,,,,,,,,,,,,left,0,10,30,40,1,3093.005428,3093.005428,3093.005428,None,None,2,0,1.028307,,,,,,,,,,,,,,,,,,,10,11,1,2024-10-25_14h10.47.405,uWM_experiment,2022.2.3,60.00376824
,,,,,,,,,,,,,,,,,,,,9,0,9,0,14,0,14,0,,,,,,,,,,,,,,,,,,,,,,,,,,,,,,,,,,,,,,,,,,,,,,,,,,,,,,,,,,,,,,,,,,,,,,0.005,,,,,,,,,,,,,,,,,,,,,,,,,,,,left,0,160,30,190,1,3100.25572,3100.25572,3100.25572,None,None,2,0,1.2019341,,,,,,,,,,,,,,,,,,,10,11,1,2024-10-25_14h10.47.405,uWM_experiment,2022.2.3,60.00376824
,,,,,,,,,,,,,,,,,,,,9,0,9,0,15,0,15,0,,,,,,,,,,,,,,,,,,,,,,,,,,,,,,,,,,,,,,,,,,,,,,,,,,,,,,,,,,,,,,,,,,,,,,0,,,,,,,,,,,,,,,,,,,,,,,,,,,,right,1,70,30,100,0,3107.372649,3107.372649,3107.372649,None,None,2,0,0.8450975,,,,,,,,,,,,,,,,,,,10,11,1,2024-10-25_14h10.47.405,uWM_experiment,2022.2.3,60.00376824
,,,,,,,,,,,,,,,,,,,,9,0,9,0,16,0,16,0,,,,,,,,,,,,,,,,,,,,,,,,,,,,,,,,,,,,,,,,,,,,,,,,,,,,,,,,,,,,,,,,,,,,,,0.005,,,,,,,,,,,,,,,,,,,,,,,,,,,,left,0,10,30,40,1,3114.139597,3114.139597,3114.139597,None,None,1,1,0.390033,,,,,,,,,,,,,,,,,,,10,11,1,2024-10-25_14h10.47.405,uWM_experiment,2022.2.3,60.00376824
,,,,,,,,,,,,,,,,,,,,9,0,9,0,17,0,17,0,,,,,,,,,,,,,,,,,,,,,,,,,,,,,,,,,,,,,,,,,,,,,,,,,,,,,,,,,,,,,,,,,,,,,,0.015,,,,,,,,,,,,,,,,,,,,,,,,,,,,right,1,160,30,190,1,3120.339843,3120.339843,3120.339843,None,None,1,1,0.4617211,,,,,,,,,,,,,,,,,,,10,11,1,2024-10-25_14h10.47.405,uWM_experiment,2022.2.3,60.00376824
,,,,,,,,,,,,,,,,,,,,9,0,9,0,18,0,18,0,,,,,,,,,,,,,,,,,,,,,,,,,,,,,,,,,,,,,,,,,,,,,,,,,,,,,,,,,,,,,,,,,,,,,,0.025,,,,,,,,,,,,,,,,,,,,,,,,,,,,right,1,130,30,160,1,3127.423452,3127.423452,3127.423452,None,None,2,0,0.5700296,,,,,,,,,,,,,,,,,,,10,11,1,2024-10-25_14h10.47.405,uWM_experiment,2022.2.3,60.00376824
,,,,,,,,,,,,,,,,,,,,9,0,9,0,19,0,19,0,,,,,,,,,,,,,,,,,,,,,,,,,,,,,,,,,,,,,,,,,,,,,,,,,,,,,,,,,,,,,,,,,,,,,,0.015,,,,,,,,,,,,,,,,,,,,,,,,,,,,right,0,40,-30,10,1,3134.123701,3134.123701,3134.123701,None,None,2,0,0.6537434,,,,,,,,,,,,,,,,,,,10,11,1,2024-10-25_14h10.47.405,uWM_experiment,2022.2.3,60.00376824
,,,,,,,,,,,,,,,,,,,,9,0,9,0,20,0,20,0,,,,,,,,,,,,,,,,,,,,,,,,,,,,,,,,,,,,,,,,,,,,,,,,,,,,,,,,,,,,,,,,,,,,,,0,,,,,,,,,,,,,,,,,,,,,,,,,,,,left,0,130,30,160,0,3140.690628,3140.690628,3140.690628,None,None,1,1,0.430925,,,,,,,,,,,,,,,,,,,10,11,1,2024-10-25_14h10.47.405,uWM_experiment,2022.2.3,60.00376824
,,,,,,,,,,,,,,,,,,,,9,0,9,0,21,0,21,0,,,,,,,,,,,,,,,,,,,,,,,,,,,,,,,,,,,,,,,,,,,,,,,,,,,,,,,,,,,,,,,,,,,,,,0.005,,,,,,,,,,,,,,,,,,,,,,,,,,,,left,0,70,30,100,1,3146.857552,3146.857552,3146.857552,None,None,2,0,1.7919656,,,,,,,,,,,,,,,,,,,10,11,1,2024-10-25_14h10.47.405,uWM_experiment,2022.2.3,60.00376824
,,,,,,,,,,,,,,,,,,,,9,0,9,0,22,0,22,0,,,,,,,,,,,,,,,,,,,,,,,,,,,,,,,,,,,,,,,,,,,,,,,,,,,,,,,,,,,,,,,,,,,,,,0,,,,,,,,,,,,,,,,,,,,,,,,,,,,right,0,160,-30,130,0,3158.041298,3158.041298,3158.041298,None,None,2,0,1.1361079,,,,,,,,,,,,,,,,,,,10,11,1,2024-10-25_14h10.47.405,uWM_experiment,2022.2.3,60.00376824
,,,,,,,,,,,,,,,,,,,,9,0,9,0,23,0,23,0,,,,,,,,,,,,,,,,,,,,,,,,,,,,,,,,,,,,,,,,,,,,,,,,,,,,,,,,,,,,,,,,,,,,,,0,,,,,,,,,,,,,,,,,,,,,,,,,,,,right,1,70,30,100,0,3167.808373,3167.808373,3167.808373,None,None,3,0,1.7289411,,,,,,,,,,,,,,,,,,,10,11,1,2024-10-25_14h10.47.405,uWM_experiment,2022.2.3,60.00376824
