PreTrainingPAS4_loop.thisRepN,PreTrainingPAS4_loop.thisTrialN,PreTrainingPAS4_loop.thisN,PreTrainingPAS4_loop.thisIndex,PreTrainingPAS1_loop.thisRepN,PreTrainingPAS1_loop.thisTrialN,PreTrainingPAS1_loop.thisN,PreTrainingPAS1_loop.thisIndex,RepeatCV_loop.thisRepN,RepeatCV_loop.thisTrialN,RepeatCV_loop.thisN,RepeatCV_loop.thisIndex,TrainingCV_loop.thisRepN,TrainingCV_loop.thisTrialN,TrainingCV_loop.thisN,TrainingCV_loop.thisIndex,TrainingCAL_loop.thisRepN,TrainingCAL_loop.thisTrialN,TrainingCAL_loop.thisN,TrainingCAL_loop.thisIndex,blocks_loop.thisRepN,blocks_loop.thisTrialN,blocks_loop.thisN,blocks_loop.thisIndex,trials_loop.thisRepN,trials_loop.thisTrialN,trials_loop.thisN,trials_loop.thisIndex,TrainingPAS1_loop.thisRepN,TrainingPAS1_loop.thisTrialN,TrainingPAS1_loop.thisN,TrainingPAS1_loop.thisIndex,spacebarWelcome0.started,spacebarWelcome0.keys,spacebarWelcome0.rt,spacebarWelcome1.started,gaborWelcome1.started,maskWelcome1.started,textMaskWelcome1.started,spacebarWelcome1.keys,spacebarWelcome1.rt,spacebarWelcome2.started,spacebarWelcome2.keys,spacebarWelcome2.rt,textInst_PreTrainingPAS4.started,spacebarPreTrainingPAS4.started,spacebarPreTrainingPAS4.keys,spacebarPreTrainingPAS4.rt,textPreTrainingPAS1.started,spacebarPreTrainingPAS1.started,spacebarPreTrainingPAS1.keys,spacebarPreTrainingPAS1.rt,textQUEST0.started,spacebarQUEST0.started,spacebarQUEST0.keys,spacebarQUEST0.rt,spacebar0.started,spacebar0.keys,spacebar0.rt,spacebar1.started,spacebar1.keys,spacebar1.rt,textInstructions2.started,spacebar2.started,Gabor1Inst2.started,Gabor2Inst2.started,Gabor3Inst2.started,Gabor4Inst2.started,spacebar2.keys,spacebar2.rt,textInstructionsPAS.started,spacebarInstPAS.started,spacebarInstPAS.keys,spacebarInstPAS.rt,textInstructions3.started,spacebar3.started,spacebar3.keys,spacebar3.rt,WMresp_CV,WMresp_CV_acc,oriMemo_CV,gyre_CV,oriTest_CV,feedbackText.started,feedbackText.stopped,sliderCV.started,PAStextCV.started,PASkeyCV.started,sliderCV.response,sliderCV.rt,PASkeyCV.keys,PASkeyCV.corr,PASkeyCV.rt,TextInstructionsCAL.started,spacebarCAL.started,spacebarCAL.keys,spacebarCAL.rt,contrast,WMresp_CAL,WMresp_CAL_acc,oriMemo_CAL,gyre_CAL,oriTest_CAL,cue_CAL,sliderCAL.started,PAStextCAL.started,PASkeyCAL.started,sliderCAL.response,sliderCAL.rt,PASkeyCAL.keys,PASkeyCAL.corr,PASkeyCAL.rt,propUnseen_CAL,textStart.started,spacebar4.started,spacebar4.keys,spacebar4.rt,three.started,three.stopped,two.started,two.stopped,one.started,one.stopped,blank_countdown.started,blank_countdown.stopped,WMresp,WMresp_acc,oriMemo,gyre,oriTest,cue,slider.started,textPAS_firstGabor.started,PASkey.started,slider.response,slider.rt,PASkey.keys,PASkey.corr,PASkey.rt,spacebarContinue.started,textBreak.started,spacebarContinue.keys,spacebarContinue.rt,spacebar_reminder.keys,spacebar_TrainingPAS1.keys,spacebar_endpractice.keys,spacebar_reminder.started,textReminder.started,spacebar_reminder.rt,textInst_TrainingPAS1.started,spacebar_TrainingPAS1.started,spacebar_TrainingPAS1.rt,textend_practicePAS1.started,spacebar_endpractice.started,spacebar_endpractice.rt,textThanks.started,buttonURL.started,buttonURL.numClicks,buttonURL.timesOn,buttonURL.timesOff,laboratory,participant,session,date,expName,psychopyVersion,frameRate
,,,,,,,,,,,,,,,,,,,,,,,,,,,,,,,,139.3358067,space,15.038971,,,,,,,,,,,,,,,,,,,,,,,,,,,,,,,,,,,,,,,,,,,,,,,,,,,,,,,,,,,,,,,,,,,,,,,,,,,,,,,,,,,,,,,,,,,,,,,,,,,,,,,,,,,,,,,,,,,,,,,,,,,,,,10,11,2,2024-11-01_12h55.48.067,uWM_experiment,2022.2.3,59.99811606
,,,,,,,,,,,,,,,,,,,,,,,,,,,,,,,,,,,154.4194924,154.4194924,154.4194924,154.4194924,space,16.9471981,,,,,,,,,,,,,,,,,,,,,,,,,,,,,,,,,,,,,,,,,,,,,,,,,,,,,,,,,,,,,,,,,,,,,,,,,,,,,,,,,,,,,,,,,,,,,,,,,,,,,,,,,,,,,,,,,,,,,,,,10,11,2,2024-11-01_12h55.48.067,uWM_experiment,2022.2.3,59.99811606
,,,,,,,,,,,,,,,,,,,,,,,,,,,,,,,,,,,,,,,,,171.3868202,space,33.2116879,,,,,,,,,,,,,,,,,,,,,,,,,,,,,,,,,,,,,,,,,,,,,,,,,,,,,,,,,,,,,,,,,,,,,,,,,,,,,,,,,,,,,,,,,,,,,,,,,,,,,,,,,,,,,,,,,,,,,10,11,2,2024-11-01_12h55.48.067,uWM_experiment,2022.2.3,59.99811606
,,,,,,,,,,,,,,,,,,,,,,,,,,,,,,,,,,,,,,,,,,,,204.6214617,204.6214617,space,15.3290512,,,,,,,,,,,,,,,,,,,,,,,,,,,,,,,,,,,,,,,,,,,,,,,,,,,,,,,,,,,,,,,,,,,,,,,,,,,,,,,,,,,,,,,,,,,,,,,,,,,,,,,,,,,,,,,,,10,11,2,2024-11-01_12h55.48.067,uWM_experiment,2022.2.3,59.99811606
0,0,0,0,,,,,,,,,,,,,,,,,,,,,,,,,,,,,,,,,,,,,,,,,,,,,,,,,,,,,,,,,,,,,,,,,,,,,,,,,,,,,,,,,,,,,,,,,,,,,,,,,,,,,,,,,,,,,,,,,,,,,,,,,,,,,,,,,,,,,,,,,,,,,,,,,,,,,,,,,,,,,10,11,2,2024-11-01_12h55.48.067,uWM_experiment,2022.2.3,59.99811606
1,0,1,0,,,,,,,,,,,,,,,,,,,,,,,,,,,,,,,,,,,,,,,,,,,,,,,,,,,,,,,,,,,,,,,,,,,,,,,,,,,,,,,,,,,,,,,,,,,,,,,,,,,,,,,,,,,,,,,,,,,,,,,,,,,,,,,,,,,,,,,,,,,,,,,,,,,,,,,,,,,,,10,11,2,2024-11-01_12h55.48.067,uWM_experiment,2022.2.3,59.99811606
2,0,2,0,,,,,,,,,,,,,,,,,,,,,,,,,,,,,,,,,,,,,,,,,,,,,,,,,,,,,,,,,,,,,,,,,,,,,,,,,,,,,,,,,,,,,,,,,,,,,,,,,,,,,,,,,,,,,,,,,,,,,,,,,,,,,,,,,,,,,,,,,,,,,,,,,,,,,,,,,,,,,10,11,2,2024-11-01_12h55.48.067,uWM_experiment,2022.2.3,59.99811606
,,,,,,,,,,,,,,,,,,,,,,,,,,,,,,,,,,,,,,,,,,,,,,,,234.6393707,234.6393707,space,22.159027,,,,,,,,,,,,,,,,,,,,,,,,,,,,,,,,,,,,,,,,,,,,,,,,,,,,,,,,,,,,,,,,,,,,,,,,,,,,,,,,,,,,,,,,,,,,,,,,,,,,,,,,,,,,,10,11,2,2024-11-01_12h55.48.067,uWM_experiment,2022.2.3,59.99811606
,,,,0,0,0,0,,,,,,,,,,,,,,,,,,,,,,,,,,,,,,,,,,,,,,,,,,,,,,,,,,,,,,,,,,,,,,,,,,,,,,,,,,,,,,,,,,,,,,,,,,,,,,,,,,,,,,,,,,,,,,,,,,,,,,,,,,,,,,,,,,,,,,,,,,,,,,,,,,,,,,,,,10,11,2,2024-11-01_12h55.48.067,uWM_experiment,2022.2.3,59.99811606
,,,,1,0,1,0,,,,,,,,,,,,,,,,,,,,,,,,,,,,,,,,,,,,,,,,,,,,,,,,,,,,,,,,,,,,,,,,,,,,,,,,,,,,,,,,,,,,,,,,,,,,,,,,,,,,,,,,,,,,,,,,,,,,,,,,,,,,,,,,,,,,,,,,,,,,,,,,,,,,,,,,,10,11,2,2024-11-01_12h55.48.067,uWM_experiment,2022.2.3,59.99811606
,,,,2,0,2,0,,,,,,,,,,,,,,,,,,,,,,,,,,,,,,,,,,,,,,,,,,,,,,,,,,,,,,,,,,,,,,,,,,,,,,,,,,,,,,,,,,,,,,,,,,,,,,,,,,,,,,,,,,,,,,,,,,,,,,,,,,,,,,,,,,,,,,,,,,,,,,,,,,,,,,,,,10,11,2,2024-11-01_12h55.48.067,uWM_experiment,2022.2.3,59.99811606
,,,,,,,,,,,,,,,,,,,,,,,,,,,,,,,,,,,,,,,,,,,,,,,,,,,,268.1740523,268.1740523,space,5.8721758,,,,,,,,,,,,,,,,,,,,,,,,,,,,,,,,,,,,,,,,,,,,,,,,,,,,,,,,,,,,,,,,,,,,,,,,,,,,,,,,,,,,,,,,,,,,,,,,,,,,,,,,,10,11,2,2024-11-01_12h55.48.067,uWM_experiment,2022.2.3,59.99811606
,,,,,,,,,,,,,,,,,,,,,,,,,,,,,,,,,,,,,,,,,,,,,,,,,,,,,,,,428.2638122,space,10.517894,,,,,,,,,,,,,,,,,,,,,,,,,,,,,,,,,,,,,,,,,,,,,,,,,,,,,,,,,,,,,,,,,,,,,,,,,,,,,,,,,,,,,,,,,,,,,,,,,,,,,,10,11,2,2024-11-01_12h55.48.067,uWM_experiment,2022.2.3,59.99811606
,,,,,,,,,,,,,,,,,,,,,,,,,,,,,,,,,,,,,,,,,,,,,,,,,,,,,,,,,,,438.8142582,space,45.9833191,,,,,,,,,,,,,,,,,,,,,,,,,,,,,,,,,,,,,,,,,,,,,,,,,,,,,,,,,,,,,,,,,,,,,,,,,,,,,,,,,,,,,,,,,,,,,,,,,,,10,11,2,2024-11-01_12h55.48.067,uWM_experiment,2022.2.3,59.99811606
,,,,,,,,,,,,,,,,,,,,,,,,,,,,,,,,,,,,,,,,,,,,,,,,,,,,,,,,,,,,,,484.8161205,484.8161205,484.8161205,484.8161205,484.8161205,484.8161205,space,18.4213269,,,,,,,,,,,,,,,,,,,,,,,,,,,,,,,,,,,,,,,,,,,,,,,,,,,,,,,,,,,,,,,,,,,,,,,,,,,,,,,,,,,,,,,,,,,10,11,2,2024-11-01_12h55.48.067,uWM_experiment,2022.2.3,59.99811606
,,,,,,,,,,,,,,,,,,,,,,,,,,,,,,,,,,,,,,,,,,,,,,,,,,,,,,,,,,,,,,,,,,,,,,503.2668554,503.2668554,space,16.0023663,,,,,,,,,,,,,,,,,,,,,,,,,,,,,,,,,,,,,,,,,,,,,,,,,,,,,,,,,,,,,,,,,,,,,,,,,,,,,,,,,,,,,,,10,11,2,2024-11-01_12h55.48.067,uWM_experiment,2022.2.3,59.99811606
,,,,,,,,,,,,,,,,,,,,,,,,,,,,,,,,,,,,,,,,,,,,,,,,,,,,,,,,,,,,,,,,,,,,,,,,,,519.3008245,519.3008245,space,16.2165559,,,,,,,,,,,,,,,,,,,,,,,,,,,,,,,,,,,,,,,,,,,,,,,,,,,,,,,,,,,,,,,,,,,,,,,,,,,,,,,,,,,10,11,2,2024-11-01_12h55.48.067,uWM_experiment,2022.2.3,59.99811606
,,,,,,,,0,0,0,0,0,0,0,0,,,,,,,,,,,,,,,,,,,,,,,,,,,,,,,,,,,,,,,,,,,,,,,,,,,,,,,,,,,,,,,right,0,100,-30,70,542.201778,543.2017991,543.2017991,543.2017991,543.2017991,None,None,4,0,4.5074244,,,,,,,,,,,,,,,,,,,,,,,,,,,,,,,,,,,,,,,,,,,,,,,,,,,,,,,,,,,,,,,,,,,,10,11,2,2024-11-01_12h55.48.067,uWM_experiment,2022.2.3,59.99811606
,,,,,,,,0,0,0,0,1,0,1,0,,,,,,,,,,,,,,,,,,,,,,,,,,,,,,,,,,,,,,,,,,,,,,,,,,,,,,,,,,,,,,,left,1,70,-30,40,553.8355811,,554.8356063,554.8356063,554.8356063,None,None,4,0,0.9456227,,,,,,,,,,,,,,,,,,,,,,,,,,,,,,,,,,,,,,,,,,,,,,,,,,,,,,,,,,,,,,,,,,,,10,11,2,2024-11-01_12h55.48.067,uWM_experiment,2022.2.3,59.99811606
,,,,,,,,0,0,0,0,2,0,2,0,,,,,,,,,,,,,,,,,,,,,,,,,,,,,,,,,,,,,,,,,,,,,,,,,,,,,,,,,,,,,,,right,1,160,30,190,561.8692131,562.8692609,562.8692609,562.8692609,562.8692609,None,None,4,0,0.6958971,,,,,,,,,,,,,,,,,,,,,,,,,,,,,,,,,,,,,,,,,,,,,,,,,,,,,,,,,,,,,,,,,,,,10,11,2,2024-11-01_12h55.48.067,uWM_experiment,2022.2.3,59.99811606
,,,,,,,,0,0,0,0,3,0,3,0,,,,,,,,,,,,,,,,,,,,,,,,,,,,,,,,,,,,,,,,,,,,,,,,,,,,,,,,,,,,,,,right,1,70,30,100,569.7861833,570.7862398,570.7862398,570.7862398,570.7862398,None,None,4,0,0.906833,,,,,,,,,,,,,,,,,,,,,,,,,,,,,,,,,,,,,,,,,,,,,,,,,,,,,,,,,,,,,,,,,,,,10,11,2,2024-11-01_12h55.48.067,uWM_experiment,2022.2.3,59.99811606
,,,,,,,,0,0,0,0,4,0,4,0,,,,,,,,,,,,,,,,,,,,,,,,,,,,,,,,,,,,,,,,,,,,,,,,,,,,,,,,,,,,,,,right,1,100,30,130,578.3032246,579.3032539,579.3032539,579.3032539,579.3032539,None,None,4,0,0.9418483,,,,,,,,,,,,,,,,,,,,,,,,,,,,,,,,,,,,,,,,,,,,,,,,,,,,,,,,,,,,,,,,,,,,10,11,2,2024-11-01_12h55.48.067,uWM_experiment,2022.2.3,59.99811606
,,,,,,,,0,0,0,0,5,0,5,0,,,,,,,,,,,,,,,,,,,,,,,,,,,,,,,,,,,,,,,,,,,,,,,,,,,,,,,,,,,,,,,left,1,40,-30,10,586.5701911,587.5702478,587.5702478,587.5702478,587.5702478,None,None,4,0,0.5627897,,,,,,,,,,,,,,,,,,,,,,,,,,,,,,,,,,,,,,,,,,,,,,,,,,,,,,,,,,,,,,,,,,,,10,11,2,2024-11-01_12h55.48.067,uWM_experiment,2022.2.3,59.99811606
,,,,,,,,0,0,0,0,,,,,,,,,,,,,,,,,,,,,,,,,,,,,,,,,,,,,,,,,,,,,,,,,,,,,,,,,,,,,,,,,,,,,,,,,,,,,,,,,,,,,,,,,,,,,,,,,,,,,,,,,,,,,,,,,,,,,,,,,,,,,,,,,,,,,,,,,,,,,,,,,,,,,10,11,2,2024-11-01_12h55.48.067,uWM_experiment,2022.2.3,59.99811606
,,,,,,,,1,0,1,0,0,0,0,0,,,,,,,,,,,,,,,,,,,,,,,,,,,,,,,,,,,,,,,,,,,,,,,,,,,,,,,,,,,,,,,right,1,130,30,160,601.3708574,602.3708518,602.3708518,602.3708518,602.3708518,None,None,4,0,0.7701036,,,,,,,,,,,,,,,,,,,,,,,,,,,,,,,,,,,,,,,,,,,,,,,,,,,,,,,,,,,,,,,,,,,,10,11,2,2024-11-01_12h55.48.067,uWM_experiment,2022.2.3,59.99811606
,,,,,,,,1,0,1,0,1,0,1,0,,,,,,,,,,,,,,,,,,,,,,,,,,,,,,,,,,,,,,,,,,,,,,,,,,,,,,,,,,,,,,,right,1,40,30,70,609.3877945,610.3878358,610.3878358,610.3878358,610.3878358,None,None,4,0,0.5370336,,,,,,,,,,,,,,,,,,,,,,,,,,,,,,,,,,,,,,,,,,,,,,,,,,,,,,,,,,,,,,,,,,,,10,11,2,2024-11-01_12h55.48.067,uWM_experiment,2022.2.3,59.99811606
,,,,,,,,1,0,1,0,2,0,2,0,,,,,,,,,,,,,,,,,,,,,,,,,,,,,,,,,,,,,,,,,,,,,,,,,,,,,,,,,,,,,,,left,1,160,-30,130,616.9047489,617.904811,617.904811,617.904811,617.904811,None,None,4,0,0.7880389,,,,,,,,,,,,,,,,,,,,,,,,,,,,,,,,,,,,,,,,,,,,,,,,,,,,,,,,,,,,,,,,,,,,10,11,2,2024-11-01_12h55.48.067,uWM_experiment,2022.2.3,59.99811606
,,,,,,,,1,0,1,0,3,0,3,0,,,,,,,,,,,,,,,,,,,,,,,,,,,,,,,,,,,,,,,,,,,,,,,,,,,,,,,,,,,,,,,left,1,10,-30,-20,624.7384201,625.7384552,625.7384552,625.7384552,625.7384552,None,None,4,0,0.4504366,,,,,,,,,,,,,,,,,,,,,,,,,,,,,,,,,,,,,,,,,,,,,,,,,,,,,,,,,,,,,,,,,,,,10,11,2,2024-11-01_12h55.48.067,uWM_experiment,2022.2.3,59.99811606
,,,,,,,,1,0,1,0,4,0,4,0,,,,,,,,,,,,,,,,,,,,,,,,,,,,,,,,,,,,,,,,,,,,,,,,,,,,,,,,,,,,,,,left,1,130,-30,100,632.9887473,633.9888158,633.9888158,633.9888158,633.9888158,None,None,4,0,0.5839482,,,,,,,,,,,,,,,,,,,,,,,,,,,,,,,,,,,,,,,,,,,,,,,,,,,,,,,,,,,,,,,,,,,,10,11,2,2024-11-01_12h55.48.067,uWM_experiment,2022.2.3,59.99811606
,,,,,,,,1,0,1,0,5,0,5,0,,,,,,,,,,,,,,,,,,,,,,,,,,,,,,,,,,,,,,,,,,,,,,,,,,,,,,,,,,,,,,,right,1,10,30,40,641.1391018,642.1391087,642.1391087,642.1391087,642.1391087,None,None,4,0,0.8016947,,,,,,,,,,,,,,,,,,,,,,,,,,,,,,,,,,,,,,,,,,,,,,,,,,,,,,,,,,,,,,,,,,,,10,11,2,2024-11-01_12h55.48.067,uWM_experiment,2022.2.3,59.99811606
,,,,,,,,1,0,1,0,,,,,,,,,,,,,,,,,,,,,,,,,,,,,,,,,,,,,,,,,,,,,,,,,,,,,,,,,,,,,,,,,,,,,,,,,,,,,,,,,,,,,,,,,,,,,,,,,,,,,,,,,,,,,,,,,,,,,,,,,,,,,,,,,,,,,,,,,,,,,,,,,,,,,10,11,2,2024-11-01_12h55.48.067,uWM_experiment,2022.2.3,59.99811606
,,,,,,,,,,,,,,,,,,,,,,,,,,,,,,,,,,,,,,,,,,,,,,,,,,,,,,,,,,,,,,,,,,,,,,,,,,,,,,,,,,,,,,,,,,,,,642.9724811,642.9724811,space,8.7363903,,,,,,,,,,,,,,,,,,,,,,,,,,,,,,,,,,,,,,,,,,,,,,,,,,,,,,,,,,,,,,,,10,11,2,2024-11-01_12h55.48.067,uWM_experiment,2022.2.3,59.99811606
,,,,,,,,,,,,,,,,0,0,0,0,,,,,,,,,,,,,,,,,,,,,,,,,,,,,,,,,,,,,,,,,,,,,,,,,,,,,,,,,,,,,,,,,,,,,,,,,,,,,,0.052815693,left,1,70,-30,40,1,657.6397505,657.6397505,657.6397505,None,None,4,0,2.2049274,,,,,,,,,,,,,,,,,,,,,,,,,,,,,,,,,,,,,,,,,,,,,,,,,10,11,2,2024-11-01_12h55.48.067,uWM_experiment,2022.2.3,59.99811606
,,,,,,,,,,,,,,,,1,0,1,0,,,,,,,,,,,,,,,,,,,,,,,,,,,,,,,,,,,,,,,,,,,,,,,,,,,,,,,,,,,,,,,,,,,,,,,,,,,,,,0.042815693,right,1,100,30,130,1,665.8567445,665.8567445,665.8567445,None,None,3,0,1.3719218,0,,,,,,,,,,,,,,,,,,,,,,,,,,,,,,,,,,,,,,,,,,,,,,,,10,11,2,2024-11-01_12h55.48.067,uWM_experiment,2022.2.3,59.99811606
,,,,,,,,,,,,,,,,2,0,2,0,,,,,,,,,,,,,,,,,,,,,,,,,,,,,,,,,,,,,,,,,,,,,,,,,,,,,,,,,,,,,,,,,,,,,,,,,,,,,,0.032815693,left,1,40,-30,10,1,673.323721,673.323721,673.323721,None,None,3,0,1.4329558,0,,,,,,,,,,,,,,,,,,,,,,,,,,,,,,,,,,,,,,,,,,,,,,,,10,11,2,2024-11-01_12h55.48.067,uWM_experiment,2022.2.3,59.99811606
,,,,,,,,,,,,,,,,3,0,3,0,,,,,,,,,,,,,,,,,,,,,,,,,,,,,,,,,,,,,,,,,,,,,,,,,,,,,,,,,,,,,,,,,,,,,,,,,,,,,,0.1,left,1,10,-30,-20,2,680.8073572,680.8073572,680.8073572,None,None,4,0,0.5493991,0,,,,,,,,,,,,,,,,,,,,,,,,,,,,,,,,,,,,,,,,,,,,,,,,10,11,2,2024-11-01_12h55.48.067,uWM_experiment,2022.2.3,59.99811606
,,,,,,,,,,,,,,,,4,0,4,0,,,,,,,,,,,,,,,,,,,,,,,,,,,,,,,,,,,,,,,,,,,,,,,,,,,,,,,,,,,,,,,,,,,,,,,,,,,,,,0.1,right,1,130,30,160,2,687.3242768,687.3242768,687.3242768,None,None,4,0,0.5042734,0,,,,,,,,,,,,,,,,,,,,,,,,,,,,,,,,,,,,,,,,,,,,,,,,10,11,2,2024-11-01_12h55.48.067,uWM_experiment,2022.2.3,59.99811606
,,,,,,,,,,,,,,,,5,0,5,0,,,,,,,,,,,,,,,,,,,,,,,,,,,,,,,,,,,,,,,,,,,,,,,,,,,,,,,,,,,,,,,,,,,,,,,,,,,,,,0.1,right,1,160,30,190,2,693.7412372,693.7412372,693.7412372,None,None,4,0,0.5193132,0,,,,,,,,,,,,,,,,,,,,,,,,,,,,,,,,,,,,,,,,,,,,,,,,10,11,2,2024-11-01_12h55.48.067,uWM_experiment,2022.2.3,59.99811606
,,,,,,,,,,,,,,,,,,,,,,,,,,,,,,,,,,,,,,,,,,,,,,,,,,,,,,,,,,,,,,,,,,,,,,,,,,,,,,,,,,,,,,,,,,,,,,,,,,,,,,,,,,,,,,,,,694.2912092,695.2745813,space,20.3860725,,,,,,,,,,,,,,,,,,,,,,,,,,,,,,,,,,,,,,,,,,,,10,11,2,2024-11-01_12h55.48.067,uWM_experiment,2022.2.3,59.99811606
,,,,,,,,,,,,,,,,,,,,0,0,0,0,0,0,0,0,,,,,,,,,,,,,,,,,,,,,,,,,,,,,,,,,,,,,,,,,,,,,,,,,,,,,,,,,,,,,,,,,,,,,,0.032815693,,,,,,,,,,,,,,,,,,,,715.6920781,716.3921039,716.6754518,717.3754622,717.6754942,718.3755579,718.3755579,718.7255391,right,1,100,30,130,1,723.6590738,723.6590738,723.6590738,None,None,4,0,1.1693513,,,,,,,,,,,,,,,,,,,,,,10,11,2,2024-11-01_12h55.48.067,uWM_experiment,2022.2.3,59.99811606
,,,,,,,,,,,,,,,,,,,,0,0,0,0,1,0,1,0,,,,,,,,,,,,,,,,,,,,,,,,,,,,,,,,,,,,,,,,,,,,,,,,,,,,,,,,,,,,,,,,,,,,,,0,,,,,,,,,,,,,,,,,,,,,,,,,,,,left,1,10,-30,-20,0,730.6260394,730.6260394,730.6260394,None,None,2,0,0.4425695,,,,,,,,,,,,,,,,,,,,,,10,11,2,2024-11-01_12h55.48.067,uWM_experiment,2022.2.3,59.99811606
,,,,,,,,,,,,,,,,,,,,0,0,0,0,2,0,2,0,,,,,,,,,,,,,,,,,,,,,,,,,,,,,,,,,,,,,,,,,,,,,,,,,,,,,,,,,,,,,,,,,,,,,,0.022815693,,,,,,,,,,,,,,,,,,,,,,,,,,,,right,1,160,30,190,1,738.0429833,738.0429833,738.0429833,None,None,2,0,0.5054206,,,,,,,,,,,,,,,,,,,,,,10,11,2,2024-11-01_12h55.48.067,uWM_experiment,2022.2.3,59.99811606
,,,,,,,,,,,,,,,,,,,,0,0,0,0,3,0,3,0,,,,,,,,,,,,,,,,,,,,,,,,,,,,,,,,,,,,,,,,,,,,,,,,,,,,,,,,,,,,,,,,,,,,,,0.012815693,,,,,,,,,,,,,,,,,,,,,,,,,,,,left,0,100,30,130,1,746.6599804,746.6599804,746.6599804,None,None,3,0,1.0165516,,,,,,,,,,,,,,,,,,,,,,10,11,2,2024-11-01_12h55.48.067,uWM_experiment,2022.2.3,59.99811606
,,,,,,,,,,,,,,,,,,,,0,0,0,0,4,0,4,0,,,,,,,,,,,,,,,,,,,,,,,,,,,,,,,,,,,,,,,,,,,,,,,,,,,,,,,,,,,,,,,,,,,,,,0.005,,,,,,,,,,,,,,,,,,,,,,,,,,,,left,1,160,-30,130,1,754.6103289,754.6103289,754.6103289,None,None,1,1,0.4501433,,,,,,,,,,,,,,,,,,,,,,10,11,2,2024-11-01_12h55.48.067,uWM_experiment,2022.2.3,59.99811606
,,,,,,,,,,,,,,,,,,,,0,0,0,0,5,0,5,0,,,,,,,,,,,,,,,,,,,,,,,,,,,,,,,,,,,,,,,,,,,,,,,,,,,,,,,,,,,,,,,,,,,,,,0.015,,,,,,,,,,,,,,,,,,,,,,,,,,,,left,1,70,-30,40,1,762.4273014,762.4273014,762.4273014,None,None,2,0,0.4971624,,,,,,,,,,,,,,,,,,,,,,10,11,2,2024-11-01_12h55.48.067,uWM_experiment,2022.2.3,59.99811606
,,,,,,,,,,,,,,,,,,,,0,0,0,0,6,0,6,0,,,,,,,,,,,,,,,,,,,,,,,,,,,,,,,,,,,,,,,,,,,,,,,,,,,,,,,,,,,,,,,,,,,,,,0.005,,,,,,,,,,,,,,,,,,,,,,,,,,,,right,1,40,30,70,1,769.060901,769.060901,769.060901,None,None,3,0,1.9513714,,,,,,,,,,,,,,,,,,,,,,10,11,2,2024-11-01_12h55.48.067,uWM_experiment,2022.2.3,59.99811606
,,,,,,,,,,,,,,,,,,,,0,0,0,0,7,0,7,0,,,,,,,,,,,,,,,,,,,,,,,,,,,,,,,,,,,,,,,,,,,,,,,,,,,,,,,,,,,,,,,,,,,,,,0,,,,,,,,,,,,,,,,,,,,,,,,,,,,left,1,40,-30,10,0,777.4612529,777.4612529,777.4612529,None,None,2,0,1.7030053,,,,,,,,,,,,,,,,,,,,,,10,11,2,2024-11-01_12h55.48.067,uWM_experiment,2022.2.3,59.99811606
,,,,,,,,,,,,,,,,,,,,0,0,0,0,8,0,8,0,,,,,,,,,,,,,,,,,,,,,,,,,,,,,,,,,,,,,,,,,,,,,,,,,,,,,,,,,,,,,,,,,,,,,,0,,,,,,,,,,,,,,,,,,,,,,,,,,,,left,0,130,30,160,0,785.1115763,785.1115763,785.1115763,None,None,2,0,0.7648063,,,,,,,,,,,,,,,,,,,,,,10,11,2,2024-11-01_12h55.48.067,uWM_experiment,2022.2.3,59.99811606
,,,,,,,,,,,,,,,,,,,,0,0,0,0,9,0,9,0,,,,,,,,,,,,,,,,,,,,,,,,,,,,,,,,,,,,,,,,,,,,,,,,,,,,,,,,,,,,,,,,,,,,,,0.005,,,,,,,,,,,,,,,,,,,,,,,,,,,,left,0,10,30,40,1,792.7618657,792.7618657,792.7618657,None,None,1,1,0.5543138,,,,,,,,,,,,,,,,,,,,,,10,11,2,2024-11-01_12h55.48.067,uWM_experiment,2022.2.3,59.99811606
,,,,,,,,,,,,,,,,,,,,0,0,0,0,10,0,10,0,,,,,,,,,,,,,,,,,,,,,,,,,,,,,,,,,,,,,,,,,,,,,,,,,,,,,,,,,,,,,,,,,,,,,,0,,,,,,,,,,,,,,,,,,,,,,,,,,,,left,1,40,-30,10,0,799.1621071,799.1621071,799.1621071,None,None,2,0,0.554055,,,,,,,,,,,,,,,,,,,,,,10,11,2,2024-11-01_12h55.48.067,uWM_experiment,2022.2.3,59.99811606
,,,,,,,,,,,,,,,,,,,,0,0,0,0,11,0,11,0,,,,,,,,,,,,,,,,,,,,,,,,,,,,,,,,,,,,,,,,,,,,,,,,,,,,,,,,,,,,,,,,,,,,,,0,,,,,,,,,,,,,,,,,,,,,,,,,,,,left,0,130,30,160,0,806.0457355,806.0457355,806.0457355,None,None,2,0,0.7265119,,,,,,,,,,,,,,,,,,,,,,10,11,2,2024-11-01_12h55.48.067,uWM_experiment,2022.2.3,59.99811606
,,,,,,,,,,,,,,,,,,,,0,0,0,0,12,0,12,0,,,,,,,,,,,,,,,,,,,,,,,,,,,,,,,,,,,,,,,,,,,,,,,,,,,,,,,,,,,,,,,,,,,,,,0.015,,,,,,,,,,,,,,,,,,,,,,,,,,,,right,1,70,30,100,1,813.5627056,813.5627056,813.5627056,None,None,3,0,1.4255447,,,,,,,,,,,,,,,,,,,,,,10,11,2,2024-11-01_12h55.48.067,uWM_experiment,2022.2.3,59.99811606
,,,,,,,,,,,,,,,,,,,,0,0,0,0,13,0,13,0,,,,,,,,,,,,,,,,,,,,,,,,,,,,,,,,,,,,,,,,,,,,,,,,,,,,,,,,,,,,,,,,,,,,,,0.005,,,,,,,,,,,,,,,,,,,,,,,,,,,,right,1,100,30,130,1,821.4630069,821.4630069,821.4630069,None,None,2,0,0.3972055,,,,,,,,,,,,,,,,,,,,,,10,11,2,2024-11-01_12h55.48.067,uWM_experiment,2022.2.3,59.99811606
,,,,,,,,,,,,,,,,,,,,0,0,0,0,14,0,14,0,,,,,,,,,,,,,,,,,,,,,,,,,,,,,,,,,,,,,,,,,,,,,,,,,,,,,,,,,,,,,,,,,,,,,,0.005,,,,,,,,,,,,,,,,,,,,,,,,,,,,right,0,70,-30,40,1,828.3299713,828.3299713,828.3299713,None,None,2,0,0.5782191,,,,,,,,,,,,,,,,,,,,,,10,11,2,2024-11-01_12h55.48.067,uWM_experiment,2022.2.3,59.99811606
,,,,,,,,,,,,,,,,,,,,0,0,0,0,15,0,15,0,,,,,,,,,,,,,,,,,,,,,,,,,,,,,,,,,,,,,,,,,,,,,,,,,,,,,,,,,,,,,,,,,,,,,,0,,,,,,,,,,,,,,,,,,,,,,,,,,,,left,1,160,-30,130,0,835.3302137,835.3302137,835.3302137,None,None,1,1,0.4018063,,,,,,,,,,,,,,,,,,,,,,10,11,2,2024-11-01_12h55.48.067,uWM_experiment,2022.2.3,59.99811606
,,,,,,,,,,,,,,,,,,,,0,0,0,0,16,0,16,0,,,,,,,,,,,,,,,,,,,,,,,,,,,,,,,,,,,,,,,,,,,,,,,,,,,,,,,,,,,,,,,,,,,,,,0.005,,,,,,,,,,,,,,,,,,,,,,,,,,,,right,0,130,-30,100,1,841.9305087,841.9305087,841.9305087,None,None,2,0,1.777569,,,,,,,,,,,,,,,,,,,,,,10,11,2,2024-11-01_12h55.48.067,uWM_experiment,2022.2.3,59.99811606
,,,,,,,,,,,,,,,,,,,,0,0,0,0,17,0,17,0,,,,,,,,,,,,,,,,,,,,,,,,,,,,,,,,,,,,,,,,,,,,,,,,,,,,,,,,,,,,,,,,,,,,,,0.005,,,,,,,,,,,,,,,,,,,,,,,,,,,,left,1,100,-30,70,1,851.6142063,851.6142063,851.6142063,None,None,1,1,0.6857431,,,,,,,,,,,,,,,,,,,,,,10,11,2,2024-11-01_12h55.48.067,uWM_experiment,2022.2.3,59.99811606
,,,,,,,,,,,,,,,,,,,,0,0,0,0,18,0,18,0,,,,,,,,,,,,,,,,,,,,,,,,,,,,,,,,,,,,,,,,,,,,,,,,,,,,,,,,,,,,,,,,,,,,,,0.015,,,,,,,,,,,,,,,,,,,,,,,,,,,,left,1,10,-30,-20,1,859.2145281,859.2145281,859.2145281,None,None,1,1,0.469413,,,,,,,,,,,,,,,,,,,,,,10,11,2,2024-11-01_12h55.48.067,uWM_experiment,2022.2.3,59.99811606
,,,,,,,,,,,,,,,,,,,,0,0,0,0,19,0,19,0,,,,,,,,,,,,,,,,,,,,,,,,,,,,,,,,,,,,,,,,,,,,,,,,,,,,,,,,,,,,,,,,,,,,,,0.025,,,,,,,,,,,,,,,,,,,,,,,,,,,,right,1,70,30,100,1,865.8314462,865.8314462,865.8314462,None,None,3,0,0.4926059,,,,,,,,,,,,,,,,,,,,,,10,11,2,2024-11-01_12h55.48.067,uWM_experiment,2022.2.3,59.99811606
,,,,,,,,,,,,,,,,,,,,0,0,0,0,20,0,20,0,,,,,,,,,,,,,,,,,,,,,,,,,,,,,,,,,,,,,,,,,,,,,,,,,,,,,,,,,,,,,,,,,,,,,,0.015,,,,,,,,,,,,,,,,,,,,,,,,,,,,left,1,100,-30,70,1,874.9651712,874.9651712,874.9651712,None,None,2,0,2.2546968,,,,,,,,,,,,,,,,,,,,,,10,11,2,2024-11-01_12h55.48.067,uWM_experiment,2022.2.3,59.99811606
,,,,,,,,,,,,,,,,,,,,0,0,0,0,21,0,21,0,,,,,,,,,,,,,,,,,,,,,,,,,,,,,,,,,,,,,,,,,,,,,,,,,,,,,,,,,,,,,,,,,,,,,,0,,,,,,,,,,,,,,,,,,,,,,,,,,,,left,1,160,-30,130,0,883.9155585,883.9155585,883.9155585,None,None,1,1,0.4243671,,,,,,,,,,,,,,,,,,,,,,10,11,2,2024-11-01_12h55.48.067,uWM_experiment,2022.2.3,59.99811606
,,,,,,,,,,,,,,,,,,,,0,0,0,0,22,0,22,0,,,,,,,,,,,,,,,,,,,,,,,,,,,,,,,,,,,,,,,,,,,,,,,,,,,,,,,,,,,,,,,,,,,,,,0.005,,,,,,,,,,,,,,,,,,,,,,,,,,,,left,1,10,-30,-20,1,890.4157853,890.4157853,890.4157853,None,None,1,1,0.3561437,,,,,,,,,,,,,,,,,,,,,,10,11,2,2024-11-01_12h55.48.067,uWM_experiment,2022.2.3,59.99811606
,,,,,,,,,,,,,,,,,,,,0,0,0,0,23,0,23,0,,,,,,,,,,,,,,,,,,,,,,,,,,,,,,,,,,,,,,,,,,,,,,,,,,,,,,,,,,,,,,,,,,,,,,0,,,,,,,,,,,,,,,,,,,,,,,,,,,,right,0,10,-30,-20,0,898.082763,898.082763,898.082763,None,None,1,1,0.417179,,,,,,,,,,,,,,,,,,,,,,10,11,2,2024-11-01_12h55.48.067,uWM_experiment,2022.2.3,59.99811606
,,,,,,,,,,,,,,,,,,,,0,0,0,0,,,,,0,0,0,0,,,,,,,,,,,,,,,,,,,,,,,,,,,,,,,,,,,,,,,,,,,,,,,,,,,,,,,,,,,,,,,,,,,,,,,,,,,,,,,,,,,,,,,,,,,,,,,,,,,,,,,,,,,,898.5327596,898.5327596,space,28.6629663,None,None,,,,,,,,,,,,,,,,10,11,2,2024-11-01_12h55.48.067,uWM_experiment,2022.2.3,59.99811606
,,,,,,,,,,,,,,,,,,,,0,0,0,0,,,,,1,0,1,0,,,,,,,,,,,,,,,,,,,,,,,,,,,,,,,,,,,,,,,,,,,,,,,,,,,,,,,,,,,,,,,,,,,,,,,,,,,,,,,,,,,,,,,,,,,,,,,,,,,,,,,,,,,,,,,,,,,,,,,,,,,,,,,,,10,11,2,2024-11-01_12h55.48.067,uWM_experiment,2022.2.3,59.99811606
,,,,,,,,,,,,,,,,,,,,0,0,0,0,,,,,2,0,2,0,,,,,,,,,,,,,,,,,,,,,,,,,,,,,,,,,,,,,,,,,,,,,,,,,,,,,,,,,,,,,,,,,,,,,,,,,,,,,,,,,,,,,,,,,,,,,,,,,,,,,,,,,,,,,,,,,,,,,,,,,,,,,,,,,10,11,2,2024-11-01_12h55.48.067,uWM_experiment,2022.2.3,59.99811606
,,,,,,,,,,,,,,,,,,,,1,0,1,0,0,0,0,0,,,,,,,,,,,,,,,,,,,,,,,,,,,,,,,,,,,,,,,,,,,,,,,,,,,,,,,,,,,,,,,,,,,,,,0.015,,,,,,,,,,,,,,,,,,,,927.2172477,927.9172789,928.2173128,928.9173195,929.2173321,929.9173613,929.9173613,930.2340475,left,0,10,30,40,1,935.3508968,935.3508968,935.3508968,None,None,1,1,0.404731,,,,,,,None,,,,,,,,,,,,,,,10,11,2,2024-11-01_12h55.48.067,uWM_experiment,2022.2.3,59.99811606
,,,,,,,,,,,,,,,,,,,,1,0,1,0,1,0,1,0,,,,,,,,,,,,,,,,,,,,,,,,,,,,,,,,,,,,,,,,,,,,,,,,,,,,,,,,,,,,,,,,,,,,,,0,,,,,,,,,,,,,,,,,,,,,,,,,,,,left,1,10,-30,-20,0,943.0179083,943.0179083,943.0179083,None,None,2,0,0.9058023,,,,,,,,,,,,,,,,,,,,,,10,11,2,2024-11-01_12h55.48.067,uWM_experiment,2022.2.3,59.99811606
,,,,,,,,,,,,,,,,,,,,1,0,1,0,2,0,2,0,,,,,,,,,,,,,,,,,,,,,,,,,,,,,,,,,,,,,,,,,,,,,,,,,,,,,,,,,,,,,,,,,,,,,,0,,,,,,,,,,,,,,,,,,,,,,,,,,,,right,0,130,-30,100,0,950.2015253,950.2015253,950.2015253,None,None,1,1,0.4262209,,,,,,,,,,,,,,,,,,,,,,10,11,2,2024-11-01_12h55.48.067,uWM_experiment,2022.2.3,59.99811606
,,,,,,,,,,,,,,,,,,,,1,0,1,0,3,0,3,0,,,,,,,,,,,,,,,,,,,,,,,,,,,,,,,,,,,,,,,,,,,,,,,,,,,,,,,,,,,,,,,,,,,,,,0.025,,,,,,,,,,,,,,,,,,,,,,,,,,,,right,0,130,-30,100,1,958.5185564,958.5185564,958.5185564,None,None,2,0,3.0209823,,,,,,,,,,,,,,,,,,,,,,10,11,2,2024-11-01_12h55.48.067,uWM_experiment,2022.2.3,59.99811606
,,,,,,,,,,,,,,,,,,,,1,0,1,0,4,0,4,0,,,,,,,,,,,,,,,,,,,,,,,,,,,,,,,,,,,,,,,,,,,,,,,,,,,,,,,,,,,,,,,,,,,,,,0.015,,,,,,,,,,,,,,,,,,,,,,,,,,,,left,1,100,-30,70,1,970.0023244,970.0023244,970.0023244,None,None,2,0,0.7531793,,,,,,,,,,,,,,,,,,,,,,10,11,2,2024-11-01_12h55.48.067,uWM_experiment,2022.2.3,59.99811606
,,,,,,,,,,,,,,,,,,,,1,0,1,0,5,0,5,0,,,,,,,,,,,,,,,,,,,,,,,,,,,,,,,,,,,,,,,,,,,,,,,,,,,,,,,,,,,,,,,,,,,,,,0,,,,,,,,,,,,,,,,,,,,,,,,,,,,left,0,130,30,160,0,976.6859284,976.6859284,976.6859284,None,None,1,1,0.4056625,,,,,,,,,,,,,,,,,,,,,,10,11,2,2024-11-01_12h55.48.067,uWM_experiment,2022.2.3,59.99811606
,,,,,,,,,,,,,,,,,,,,1,0,1,0,6,0,6,0,,,,,,,,,,,,,,,,,,,,,,,,,,,,,,,,,,,,,,,,,,,,,,,,,,,,,,,,,,,,,,,,,,,,,,0.005,,,,,,,,,,,,,,,,,,,,,,,,,,,,right,0,100,-30,70,1,983.4361885,983.4361885,983.4361885,None,None,2,0,0.9833148,,,,,,,,,,,,,,,,,,,,,,10,11,2,2024-11-01_12h55.48.067,uWM_experiment,2022.2.3,59.99811606
,,,,,,,,,,,,,,,,,,,,1,0,1,0,7,0,7,0,,,,,,,,,,,,,,,,,,,,,,,,,,,,,,,,,,,,,,,,,,,,,,,,,,,,,,,,,,,,,,,,,,,,,,0.005,,,,,,,,,,,,,,,,,,,,,,,,,,,,left,1,40,-30,10,1,990.7698123,990.7698123,990.7698123,None,None,2,0,0.4097519,,,,,,,,,,,,,,,,,,,,,,10,11,2,2024-11-01_12h55.48.067,uWM_experiment,2022.2.3,59.99811606
,,,,,,,,,,,,,,,,,,,,1,0,1,0,8,0,8,0,,,,,,,,,,,,,,,,,,,,,,,,,,,,,,,,,,,,,,,,,,,,,,,,,,,,,,,,,,,,,,,,,,,,,,0.005,,,,,,,,,,,,,,,,,,,,,,,,,,,,left,0,130,30,160,1,997.0534108,997.0534108,997.0534108,None,None,1,1,0.4860626,,,,,,,,,,,,,,,,,,,,,,10,11,2,2024-11-01_12h55.48.067,uWM_experiment,2022.2.3,59.99811606
,,,,,,,,,,,,,,,,,,,,1,0,1,0,9,0,9,0,,,,,,,,,,,,,,,,,,,,,,,,,,,,,,,,,,,,,,,,,,,,,,,,,,,,,,,,,,,,,,,,,,,,,,0,,,,,,,,,,,,,,,,,,,,,,,,,,,,left,1,160,-30,130,0,1003.436975,1003.436975,1003.436975,None,None,1,1,0.4625446,,,,,,,,,,,,,,,,,,,,,,10,11,2,2024-11-01_12h55.48.067,uWM_experiment,2022.2.3,59.99811606
,,,,,,,,,,,,,,,,,,,,1,0,1,0,10,0,10,0,,,,,,,,,,,,,,,,,,,,,,,,,,,,,,,,,,,,,,,,,,,,,,,,,,,,,,,,,,,,,,,,,,,,,,0,,,,,,,,,,,,,,,,,,,,,,,,,,,,right,0,160,-30,130,0,1010.27062,1010.27062,1010.27062,None,None,1,1,0.6367397,,,,,,,,,,,,,,,,,,,,,,10,11,2,2024-11-01_12h55.48.067,uWM_experiment,2022.2.3,59.99811606
,,,,,,,,,,,,,,,,,,,,1,0,1,0,11,0,11,0,,,,,,,,,,,,,,,,,,,,,,,,,,,,,,,,,,,,,,,,,,,,,,,,,,,,,,,,,,,,,,,,,,,,,,0.015,,,,,,,,,,,,,,,,,,,,,,,,,,,,right,1,10,30,40,1,1016.770859,1016.770859,1016.770859,None,None,1,1,0.4725225,,,,,,,,,,,,,,,,,,,,,,10,11,2,2024-11-01_12h55.48.067,uWM_experiment,2022.2.3,59.99811606
,,,,,,,,,,,,,,,,,,,,1,0,1,0,12,0,12,0,,,,,,,,,,,,,,,,,,,,,,,,,,,,,,,,,,,,,,,,,,,,,,,,,,,,,,,,,,,,,,,,,,,,,,0.025,,,,,,,,,,,,,,,,,,,,,,,,,,,,left,1,40,-30,10,1,1023.687802,1023.687802,1023.687802,None,None,1,1,0.4596611,,,,,,,,,,,,,,,,,,,,,,10,11,2,2024-11-01_12h55.48.067,uWM_experiment,2022.2.3,59.99811606
,,,,,,,,,,,,,,,,,,,,1,0,1,0,13,0,13,0,,,,,,,,,,,,,,,,,,,,,,,,,,,,,,,,,,,,,,,,,,,,,,,,,,,,,,,,,,,,,,,,,,,,,,0.035,,,,,,,,,,,,,,,,,,,,,,,,,,,,left,1,40,-30,10,1,1030.038056,1030.038056,1030.038056,None,None,1,1,0.5093091,,,,,,,,,,,,,,,,,,,,,,10,11,2,2024-11-01_12h55.48.067,uWM_experiment,2022.2.3,59.99811606
,,,,,,,,,,,,,,,,,,,,1,0,1,0,14,0,14,0,,,,,,,,,,,,,,,,,,,,,,,,,,,,,,,,,,,,,,,,,,,,,,,,,,,,,,,,,,,,,,,,,,,,,,0,,,,,,,,,,,,,,,,,,,,,,,,,,,,right,1,10,30,40,0,1036.488297,1036.488297,1036.488297,None,None,2,0,0.779026,,,,,,,,,,,,,,,,,,,,,,10,11,2,2024-11-01_12h55.48.067,uWM_experiment,2022.2.3,59.99811606
,,,,,,,,,,,,,,,,,,,,1,0,1,0,15,0,15,0,,,,,,,,,,,,,,,,,,,,,,,,,,,,,,,,,,,,,,,,,,,,,,,,,,,,,,,,,,,,,,,,,,,,,,0.045,,,,,,,,,,,,,,,,,,,,,,,,,,,,left,1,10,-30,-20,1,1043.271932,1043.271932,1043.271932,None,None,2,0,0.7153994,,,,,,,,,,,,,,,,,,,,,,10,11,2,2024-11-01_12h55.48.067,uWM_experiment,2022.2.3,59.99811606
,,,,,,,,,,,,,,,,,,,,1,0,1,0,16,0,16,0,,,,,,,,,,,,,,,,,,,,,,,,,,,,,,,,,,,,,,,,,,,,,,,,,,,,,,,,,,,,,,,,,,,,,,0.035,,,,,,,,,,,,,,,,,,,,,,,,,,,,left,1,70,-30,40,1,1050.088861,1050.088861,1050.088861,None,None,3,0,0.8183793,,,,,,,,,,,,,,,,,,,,,,10,11,2,2024-11-01_12h55.48.067,uWM_experiment,2022.2.3,59.99811606
,,,,,,,,,,,,,,,,,,,,1,0,1,0,17,0,17,0,,,,,,,,,,,,,,,,,,,,,,,,,,,,,,,,,,,,,,,,,,,,,,,,,,,,,,,,,,,,,,,,,,,,,,0,,,,,,,,,,,,,,,,,,,,,,,,,,,,right,1,40,30,70,0,1057.022482,1057.022482,1057.022482,None,None,1,1,0.4686872,,,,,,,,,,,,,,,,,,,,,,10,11,2,2024-11-01_12h55.48.067,uWM_experiment,2022.2.3,59.99811606
,,,,,,,,,,,,,,,,,,,,1,0,1,0,18,0,18,0,,,,,,,,,,,,,,,,,,,,,,,,,,,,,,,,,,,,,,,,,,,,,,,,,,,,,,,,,,,,,,,,,,,,,,0.025,,,,,,,,,,,,,,,,,,,,,,,,,,,,left,1,160,-30,130,1,1067.606239,1067.606239,1067.606239,None,None,2,0,0.6929852,,,,,,,,,,,,,,,,,,,,,,10,11,2,2024-11-01_12h55.48.067,uWM_experiment,2022.2.3,59.99811606
,,,,,,,,,,,,,,,,,,,,1,0,1,0,19,0,19,0,,,,,,,,,,,,,,,,,,,,,,,,,,,,,,,,,,,,,,,,,,,,,,,,,,,,,,,,,,,,,,,,,,,,,,0.015,,,,,,,,,,,,,,,,,,,,,,,,,,,,right,1,100,30,130,1,1075.439887,1075.439887,1075.439887,None,None,2,0,1.0593889,,,,,,,,,,,,,,,,,,,,,,10,11,2,2024-11-01_12h55.48.067,uWM_experiment,2022.2.3,59.99811606
,,,,,,,,,,,,,,,,,,,,1,0,1,0,20,0,20,0,,,,,,,,,,,,,,,,,,,,,,,,,,,,,,,,,,,,,,,,,,,,,,,,,,,,,,,,,,,,,,,,,,,,,,0.005,,,,,,,,,,,,,,,,,,,,,,,,,,,,left,0,100,30,130,1,1084.073552,1084.073552,1084.073552,None,None,1,1,1.7215114,,,,,,,,,,,,,,,,,,,,,,10,11,2,2024-11-01_12h55.48.067,uWM_experiment,2022.2.3,59.99811606
,,,,,,,,,,,,,,,,,,,,1,0,1,0,21,0,21,0,,,,,,,,,,,,,,,,,,,,,,,,,,,,,,,,,,,,,,,,,,,,,,,,,,,,,,,,,,,,,,,,,,,,,,0.015,,,,,,,,,,,,,,,,,,,,,,,,,,,,left,0,70,30,100,1,1092.140535,1092.140535,1092.140535,None,None,2,0,0.4466381,,,,,,,,,,,,,,,,,,,,,,10,11,2,2024-11-01_12h55.48.067,uWM_experiment,2022.2.3,59.99811606
,,,,,,,,,,,,,,,,,,,,1,0,1,0,22,0,22,0,,,,,,,,,,,,,,,,,,,,,,,,,,,,,,,,,,,,,,,,,,,,,,,,,,,,,,,,,,,,,,,,,,,,,,0.1,,,,,,,,,,,,,,,,,,,,,,,,,,,,right,1,40,30,70,2,1098.907478,1098.907478,1098.907478,None,None,4,0,0.4075751,,,,,,,,,,,,,,,,,,,,,,10,11,2,2024-11-01_12h55.48.067,uWM_experiment,2022.2.3,59.99811606
,,,,,,,,,,,,,,,,,,,,1,0,1,0,23,0,23,0,,,,,,,,,,,,,,,,,,,,,,,,,,,,,,,,,,,,,,,,,,,,,,,,,,,,,,,,,,,,,,,,,,,,,,0.005,,,,,,,,,,,,,,,,,,,,,,,,,,,,left,0,160,30,190,1,1105.6744,1105.6744,1105.6744,None,None,2,0,0.4168139,,,,,,,,,,,,,,,,,,,,,,10,11,2,2024-11-01_12h55.48.067,uWM_experiment,2022.2.3,59.99811606
,,,,,,,,,,,,,,,,,,,,1,0,1,0,,,,,0,0,0,0,,,,,,,,,,,,,,,,,,,,,,,,,,,,,,,,,,,,,,,,,,,,,,,,,,,,,,,,,,,,,,,,,,,,,,,,,,,,,,,,,,,,,,,,,,,,,,,,,,,,,,,,,,,,1106.124411,1106.124411,space,48.4065732,None,None,,,,,,,,,,,,,,,,10,11,2,2024-11-01_12h55.48.067,uWM_experiment,2022.2.3,59.99811606
,,,,,,,,,,,,,,,,,,,,1,0,1,0,,,,,1,0,1,0,,,,,,,,,,,,,,,,,,,,,,,,,,,,,,,,,,,,,,,,,,,,,,,,,,,,,,,,,,,,,,,,,,,,,,,,,,,,,,,,,,,,,,,,,,,,,,,,,,,,,,,,,,,,,,,,,,,,,,,,,,,,,,,,,10,11,2,2024-11-01_12h55.48.067,uWM_experiment,2022.2.3,59.99811606
,,,,,,,,,,,,,,,,,,,,1,0,1,0,,,,,2,0,2,0,,,,,,,,,,,,,,,,,,,,,,,,,,,,,,,,,,,,,,,,,,,,,,,,,,,,,,,,,,,,,,,,,,,,,,,,,,,,,,,,,,,,,,,,,,,,,,,,,,,,,,,,,,,,,,,,,,,,,,,,,,,,,,,,,10,11,2,2024-11-01_12h55.48.067,uWM_experiment,2022.2.3,59.99811606
,,,,,,,,,,,,,,,,,,,,2,0,2,0,0,0,0,0,,,,,,,,,,,,,,,,,,,,,,,,,,,,,,,,,,,,,,,,,,,,,,,,,,,,,,,,,,,,,,,,,,,,,,0.005,,,,,,,,,,,,,,,,,,,,1154.559711,1155.259734,1155.559749,1156.259778,1156.559786,1157.259814,1157.259814,1157.5765,right,1,70,30,100,1,1162.34335,1162.34335,1162.34335,None,None,1,1,0.5315082,,,,,,,None,,,,,,,,,,,,,,,10,11,2,2024-11-01_12h55.48.067,uWM_experiment,2022.2.3,59.99811606
,,,,,,,,,,,,,,,,,,,,2,0,2,0,1,0,1,0,,,,,,,,,,,,,,,,,,,,,,,,,,,,,,,,,,,,,,,,,,,,,,,,,,,,,,,,,,,,,,,,,,,,,,0,,,,,,,,,,,,,,,,,,,,,,,,,,,,left,0,10,30,40,0,1169.543662,1169.543662,1169.543662,None,None,1,1,0.4831447,,,,,,,,,,,,,,,,,,,,,,10,11,2,2024-11-01_12h55.48.067,uWM_experiment,2022.2.3,59.99811606
,,,,,,,,,,,,,,,,,,,,2,0,2,0,2,0,2,0,,,,,,,,,,,,,,,,,,,,,,,,,,,,,,,,,,,,,,,,,,,,,,,,,,,,,,,,,,,,,,,,,,,,,,0.015,,,,,,,,,,,,,,,,,,,,,,,,,,,,left,1,130,-30,100,1,1176.927269,1176.927269,1176.927269,None,None,1,1,0.6115937,,,,,,,,,,,,,,,,,,,,,,10,11,2,2024-11-01_12h55.48.067,uWM_experiment,2022.2.3,59.99811606
,,,,,,,,,,,,,,,,,,,,2,0,2,0,3,0,3,0,,,,,,,,,,,,,,,,,,,,,,,,,,,,,,,,,,,,,,,,,,,,,,,,,,,,,,,,,,,,,,,,,,,,,,0,,,,,,,,,,,,,,,,,,,,,,,,,,,,right,0,130,-30,100,0,1185.644289,1185.644289,1185.644289,None,None,1,1,0.4543922,,,,,,,,,,,,,,,,,,,,,,10,11,2,2024-11-01_12h55.48.067,uWM_experiment,2022.2.3,59.99811606
,,,,,,,,,,,,,,,,,,,,2,0,2,0,4,0,4,0,,,,,,,,,,,,,,,,,,,,,,,,,,,,,,,,,,,,,,,,,,,,,,,,,,,,,,,,,,,,,,,,,,,,,,0.025,,,,,,,,,,,,,,,,,,,,,,,,,,,,right,1,70,30,100,1,1193.994633,1193.994633,1193.994633,None,None,2,0,0.6081605,,,,,,,,,,,,,,,,,,,,,,10,11,2,2024-11-01_12h55.48.067,uWM_experiment,2022.2.3,59.99811606
,,,,,,,,,,,,,,,,,,,,2,0,2,0,5,0,5,0,,,,,,,,,,,,,,,,,,,,,,,,,,,,,,,,,,,,,,,,,,,,,,,,,,,,,,,,,,,,,,,,,,,,,,0,,,,,,,,,,,,,,,,,,,,,,,,,,,,right,0,160,-30,130,0,1200.944918,1200.944918,1200.944918,None,None,1,1,0.5778028,,,,,,,,,,,,,,,,,,,,,,10,11,2,2024-11-01_12h55.48.067,uWM_experiment,2022.2.3,59.99811606
,,,,,,,,,,,,,,,,,,,,2,0,2,0,6,0,6,0,,,,,,,,,,,,,,,,,,,,,,,,,,,,,,,,,,,,,,,,,,,,,,,,,,,,,,,,,,,,,,,,,,,,,,0.015,,,,,,,,,,,,,,,,,,,,,,,,,,,,right,1,160,30,190,1,1210.011945,1210.011945,1210.011945,None,None,1,1,0.9427904,,,,,,,,,,,,,,,,,,,,,,10,11,2,2024-11-01_12h55.48.067,uWM_experiment,2022.2.3,59.99811606
,,,,,,,,,,,,,,,,,,,,2,0,2,0,7,0,7,0,,,,,,,,,,,,,,,,,,,,,,,,,,,,,,,,,,,,,,,,,,,,,,,,,,,,,,,,,,,,,,,,,,,,,,0,,,,,,,,,,,,,,,,,,,,,,,,,,,,left,1,130,-30,100,0,1216.962204,1216.962204,1216.962204,None,None,1,1,0.6804651,,,,,,,,,,,,,,,,,,,,,,10,11,2,2024-11-01_12h55.48.067,uWM_experiment,2022.2.3,59.99811606
,,,,,,,,,,,,,,,,,,,,2,0,2,0,8,0,8,0,,,,,,,,,,,,,,,,,,,,,,,,,,,,,,,,,,,,,,,,,,,,,,,,,,,,,,,,,,,,,,,,,,,,,,0.025,,,,,,,,,,,,,,,,,,,,,,,,,,,,left,0,100,30,130,1,1223.862495,1223.862495,1223.862495,None,None,2,0,0.6680802,,,,,,,,,,,,,,,,,,,,,,10,11,2,2024-11-01_12h55.48.067,uWM_experiment,2022.2.3,59.99811606
,,,,,,,,,,,,,,,,,,,,2,0,2,0,9,0,9,0,,,,,,,,,,,,,,,,,,,,,,,,,,,,,,,,,,,,,,,,,,,,,,,,,,,,,,,,,,,,,,,,,,,,,,0.015,,,,,,,,,,,,,,,,,,,,,,,,,,,,right,1,130,30,160,1,1230.729436,1230.729436,1230.729436,None,None,1,1,0.5530935,,,,,,,,,,,,,,,,,,,,,,10,11,2,2024-11-01_12h55.48.067,uWM_experiment,2022.2.3,59.99811606
,,,,,,,,,,,,,,,,,,,,2,0,2,0,10,0,10,0,,,,,,,,,,,,,,,,,,,,,,,,,,,,,,,,,,,,,,,,,,,,,,,,,,,,,,,,,,,,,,,,,,,,,,0.025,,,,,,,,,,,,,,,,,,,,,,,,,,,,right,1,160,30,190,1,1239.096475,1239.096475,1239.096475,None,None,2,0,0.626072,,,,,,,,,,,,,,,,,,,,,,10,11,2,2024-11-01_12h55.48.067,uWM_experiment,2022.2.3,59.99811606
,,,,,,,,,,,,,,,,,,,,2,0,2,0,11,0,11,0,,,,,,,,,,,,,,,,,,,,,,,,,,,,,,,,,,,,,,,,,,,,,,,,,,,,,,,,,,,,,,,,,,,,,,0.015,,,,,,,,,,,,,,,,,,,,,,,,,,,,right,1,160,30,190,1,1246.713424,1246.713424,1246.713424,None,None,2,0,0.4250979,,,,,,,,,,,,,,,,,,,,,,10,11,2,2024-11-01_12h55.48.067,uWM_experiment,2022.2.3,59.99811606
,,,,,,,,,,,,,,,,,,,,2,0,2,0,12,0,12,0,,,,,,,,,,,,,,,,,,,,,,,,,,,,,,,,,,,,,,,,,,,,,,,,,,,,,,,,,,,,,,,,,,,,,,0.005,,,,,,,,,,,,,,,,,,,,,,,,,,,,left,0,160,30,190,1,1256.880514,1256.880514,1256.880514,None,None,2,0,0.5218917,,,,,,,,,,,,,,,,,,,,,,10,11,2,2024-11-01_12h55.48.067,uWM_experiment,2022.2.3,59.99811606
,,,,,,,,,,,,,,,,,,,,2,0,2,0,13,0,13,0,,,,,,,,,,,,,,,,,,,,,,,,,,,,,,,,,,,,,,,,,,,,,,,,,,,,,,,,,,,,,,,,,,,,,,0.005,,,,,,,,,,,,,,,,,,,,,,,,,,,,left,0,100,30,130,1,1264.714155,1264.714155,1264.714155,None,None,1,1,0.4882186,,,,,,,,,,,,,,,,,,,,,,10,11,2,2024-11-01_12h55.48.067,uWM_experiment,2022.2.3,59.99811606
,,,,,,,,,,,,,,,,,,,,2,0,2,0,14,0,14,0,,,,,,,,,,,,,,,,,,,,,,,,,,,,,,,,,,,,,,,,,,,,,,,,,,,,,,,,,,,,,,,,,,,,,,0.015,,,,,,,,,,,,,,,,,,,,,,,,,,,,right,0,160,-30,130,1,1271.697815,1271.697815,1271.697815,None,None,1,1,0.3845689,,,,,,,,,,,,,,,,,,,,,,10,11,2,2024-11-01_12h55.48.067,uWM_experiment,2022.2.3,59.99811606
,,,,,,,,,,,,,,,,,,,,2,0,2,0,15,0,15,0,,,,,,,,,,,,,,,,,,,,,,,,,,,,,,,,,,,,,,,,,,,,,,,,,,,,,,,,,,,,,,,,,,,,,,0,,,,,,,,,,,,,,,,,,,,,,,,,,,,left,1,130,-30,100,0,1278.714694,1278.714694,1278.714694,None,None,1,1,0.3597933,,,,,,,,,,,,,,,,,,,,,,10,11,2,2024-11-01_12h55.48.067,uWM_experiment,2022.2.3,59.99811606
,,,,,,,,,,,,,,,,,,,,2,0,2,0,16,0,16,0,,,,,,,,,,,,,,,,,,,,,,,,,,,,,,,,,,,,,,,,,,,,,,,,,,,,,,,,,,,,,,,,,,,,,,0.025,,,,,,,,,,,,,,,,,,,,,,,,,,,,right,1,160,30,190,1,1286.131681,1286.131681,1286.131681,None,None,1,1,1.1267672,,,,,,,,,,,,,,,,,,,,,,10,11,2,2024-11-01_12h55.48.067,uWM_experiment,2022.2.3,59.99811606
,,,,,,,,,,,,,,,,,,,,2,0,2,0,17,0,17,0,,,,,,,,,,,,,,,,,,,,,,,,,,,,,,,,,,,,,,,,,,,,,,,,,,,,,,,,,,,,,,,,,,,,,,0.035,,,,,,,,,,,,,,,,,,,,,,,,,,,,left,1,160,-30,130,1,1293.498649,1293.498649,1293.498649,None,None,3,0,1.9836605,,,,,,,,,,,,,,,,,,,,,,10,11,2,2024-11-01_12h55.48.067,uWM_experiment,2022.2.3,59.99811606
,,,,,,,,,,,,,,,,,,,,2,0,2,0,18,0,18,0,,,,,,,,,,,,,,,,,,,,,,,,,,,,,,,,,,,,,,,,,,,,,,,,,,,,,,,,,,,,,,,,,,,,,,0.025,,,,,,,,,,,,,,,,,,,,,,,,,,,,left,0,40,30,70,1,1302.765665,1302.765665,1302.765665,None,None,2,0,0.364638,,,,,,,,,,,,,,,,,,,,,,10,11,2,2024-11-01_12h55.48.067,uWM_experiment,2022.2.3,59.99811606
,,,,,,,,,,,,,,,,,,,,2,0,2,0,19,0,19,0,,,,,,,,,,,,,,,,,,,,,,,,,,,,,,,,,,,,,,,,,,,,,,,,,,,,,,,,,,,,,,,,,,,,,,0.015,,,,,,,,,,,,,,,,,,,,,,,,,,,,right,1,70,30,100,1,1309.749309,1309.749309,1309.749309,None,None,2,0,0.5970391,,,,,,,,,,,,,,,,,,,,,,10,11,2,2024-11-01_12h55.48.067,uWM_experiment,2022.2.3,59.99811606
,,,,,,,,,,,,,,,,,,,,2,0,2,0,20,0,20,0,,,,,,,,,,,,,,,,,,,,,,,,,,,,,,,,,,,,,,,,,,,,,,,,,,,,,,,,,,,,,,,,,,,,,,0.005,,,,,,,,,,,,,,,,,,,,,,,,,,,,right,1,40,30,70,1,1317.28294,1317.28294,1317.28294,None,None,2,0,0.4793222,,,,,,,,,,,,,,,,,,,,,,10,11,2,2024-11-01_12h55.48.067,uWM_experiment,2022.2.3,59.99811606
,,,,,,,,,,,,,,,,,,,,2,0,2,0,21,0,21,0,,,,,,,,,,,,,,,,,,,,,,,,,,,,,,,,,,,,,,,,,,,,,,,,,,,,,,,,,,,,,,,,,,,,,,0.1,,,,,,,,,,,,,,,,,,,,,,,,,,,,right,1,130,30,160,2,1324.749893,1324.749893,1324.749893,None,None,4,0,0.5084404,,,,,,,,,,,,,,,,,,,,,,10,11,2,2024-11-01_12h55.48.067,uWM_experiment,2022.2.3,59.99811606
,,,,,,,,,,,,,,,,,,,,2,0,2,0,22,0,22,0,,,,,,,,,,,,,,,,,,,,,,,,,,,,,,,,,,,,,,,,,,,,,,,,,,,,,,,,,,,,,,,,,,,,,,0.005,,,,,,,,,,,,,,,,,,,,,,,,,,,,right,1,40,30,70,1,1333.100226,1333.100226,1333.100226,None,None,2,0,0.9420396,,,,,,,,,,,,,,,,,,,,,,10,11,2,2024-11-01_12h55.48.067,uWM_experiment,2022.2.3,59.99811606
,,,,,,,,,,,,,,,,,,,,2,0,2,0,23,0,23,0,,,,,,,,,,,,,,,,,,,,,,,,,,,,,,,,,,,,,,,,,,,,,,,,,,,,,,,,,,,,,,,,,,,,,,0.005,,,,,,,,,,,,,,,,,,,,,,,,,,,,left,1,70,-30,40,1,1339.917162,1339.917162,1339.917162,None,None,1,1,0.4770208,,,,,,,,,,,,,,,,,,,,,,10,11,2,2024-11-01_12h55.48.067,uWM_experiment,2022.2.3,59.99811606
,,,,,,,,,,,,,,,,,,,,2,0,2,0,,,,,0,0,0,0,,,,,,,,,,,,,,,,,,,,,,,,,,,,,,,,,,,,,,,,,,,,,,,,,,,,,,,,,,,,,,,,,,,,,,,,,,,,,,,,,,,,,,,,,,,,,,,,,,,,,,,,,,,,1340.417198,1340.417198,space,42.2807989,space,None,,1382.718888,1382.718888,10.1631543,,,,,,,,,,,,10,11,2,2024-11-01_12h55.48.067,uWM_experiment,2022.2.3,59.99811606
,,,,,,,,,,,,,,,,,,,,2,0,2,0,,,,,1,0,1,0,,,,,,,,,,,,,,,,,,,,,,,,,,,,,,,,,,,,,,,,,,,,,,,,,,,,,,,,,,,,,,,,,,,,,,,,,,,,,,,,,,,,,,,,,,,,,,,,,,,,,,,,,,,,,,,,,,,,,,,,,,,,,,,,,10,11,2,2024-11-01_12h55.48.067,uWM_experiment,2022.2.3,59.99811606
,,,,,,,,,,,,,,,,,,,,2,0,2,0,,,,,2,0,2,0,,,,,,,,,,,,,,,,,,,,,,,,,,,,,,,,,,,,,,,,,,,,,,,,,,,,,,,,,,,,,,,,,,,,,,,,,,,,,,,,,,,,,,,,,,,,,,,,,,,,,,,,,,,,,,,,,,,,,,,,,,,,,,,,,10,11,2,2024-11-01_12h55.48.067,uWM_experiment,2022.2.3,59.99811606
,,,,,,,,,,,,,,,,,,,,3,0,3,0,0,0,0,0,,,,,,,,,,,,,,,,,,,,,,,,,,,,,,,,,,,,,,,,,,,,,,,,,,,,,,,,,,,,,,,,,,,,,,0.015,,,,,,,,,,,,,,,,,,,,1392.902627,1393.602643,1393.902683,1394.602695,1394.902707,1395.602736,1395.602736,1395.919429,right,1,70,30,100,1,1401.653003,1401.653003,1401.653003,None,None,2,0,0.9249179,,,,,,,None,,,,,,,,,,,,,,,10,11,2,2024-11-01_12h55.48.067,uWM_experiment,2022.2.3,59.99811606
,,,,,,,,,,,,,,,,,,,,3,0,3,0,1,0,1,0,,,,,,,,,,,,,,,,,,,,,,,,,,,,,,,,,,,,,,,,,,,,,,,,,,,,,,,,,,,,,,,,,,,,,,0,,,,,,,,,,,,,,,,,,,,,,,,,,,,left,1,130,-30,100,0,1410.370022,1410.370022,1410.370022,None,None,1,1,0.4718281,,,,,,,,,,,,,,,,,,,,,,10,11,2,2024-11-01_12h55.48.067,uWM_experiment,2022.2.3,59.99811606
,,,,,,,,,,,,,,,,,,,,3,0,3,0,2,0,2,0,,,,,,,,,,,,,,,,,,,,,,,,,,,,,,,,,,,,,,,,,,,,,,,,,,,,,,,,,,,,,,,,,,,,,,0.005,,,,,,,,,,,,,,,,,,,,,,,,,,,,left,0,100,30,130,1,1418.653651,1418.653651,1418.653651,None,None,1,1,0.3721585,,,,,,,,,,,,,,,,,,,,,,10,11,2,2024-11-01_12h55.48.067,uWM_experiment,2022.2.3,59.99811606
,,,,,,,,,,,,,,,,,,,,3,0,3,0,3,0,3,0,,,,,,,,,,,,,,,,,,,,,,,,,,,,,,,,,,,,,,,,,,,,,,,,,,,,,,,,,,,,,,,,,,,,,,0,,,,,,,,,,,,,,,,,,,,,,,,,,,,right,0,100,-30,70,0,1425.320623,1425.320623,1425.320623,None,None,1,1,0.417137,,,,,,,,,,,,,,,,,,,,,,10,11,2,2024-11-01_12h55.48.067,uWM_experiment,2022.2.3,59.99811606
,,,,,,,,,,,,,,,,,,,,3,0,3,0,4,0,4,0,,,,,,,,,,,,,,,,,,,,,,,,,,,,,,,,,,,,,,,,,,,,,,,,,,,,,,,,,,,,,,,,,,,,,,0,,,,,,,,,,,,,,,,,,,,,,,,,,,,right,0,70,-30,40,0,1431.820865,1431.820865,1431.820865,None,None,1,1,0.5170207,,,,,,,,,,,,,,,,,,,,,,10,11,2,2024-11-01_12h55.48.067,uWM_experiment,2022.2.3,59.99811606
,,,,,,,,,,,,,,,,,,,,3,0,3,0,5,0,5,0,,,,,,,,,,,,,,,,,,,,,,,,,,,,,,,,,,,,,,,,,,,,,,,,,,,,,,,,,,,,,,,,,,,,,,0.015,,,,,,,,,,,,,,,,,,,,,,,,,,,,left,1,10,-30,-20,1,1438.337789,1438.337789,1438.337789,None,None,3,0,2.1120708,,,,,,,,,,,,,,,,,,,,,,10,11,2,2024-11-01_12h55.48.067,uWM_experiment,2022.2.3,59.99811606
,,,,,,,,,,,,,,,,,,,,3,0,3,0,6,0,6,0,,,,,,,,,,,,,,,,,,,,,,,,,,,,,,,,,,,,,,,,,,,,,,,,,,,,,,,,,,,,,,,,,,,,,,0.005,,,,,,,,,,,,,,,,,,,,,,,,,,,,left,1,100,-30,70,1,1447.971512,1447.971512,1447.971512,None,None,2,0,0.6303045,,,,,,,,,,,,,,,,,,,,,,10,11,2,2024-11-01_12h55.48.067,uWM_experiment,2022.2.3,59.99811606
,,,,,,,,,,,,,,,,,,,,3,0,3,0,7,0,7,0,,,,,,,,,,,,,,,,,,,,,,,,,,,,,,,,,,,,,,,,,,,,,,,,,,,,,,,,,,,,,,,,,,,,,,0.005,,,,,,,,,,,,,,,,,,,,,,,,,,,,right,0,70,-30,40,1,1454.938443,1454.938443,1454.938443,None,None,2,0,0.6952538,,,,,,,,,,,,,,,,,,,,,,10,11,2,2024-11-01_12h55.48.067,uWM_experiment,2022.2.3,59.99811606
,,,,,,,,,,,,,,,,,,,,3,0,3,0,8,0,8,0,,,,,,,,,,,,,,,,,,,,,,,,,,,,,,,,,,,,,,,,,,,,,,,,,,,,,,,,,,,,,,,,,,,,,,0.005,,,,,,,,,,,,,,,,,,,,,,,,,,,,left,0,10,30,40,1,1461.638735,1461.638735,1461.638735,None,None,3,0,1.5949229,,,,,,,,,,,,,,,,,,,,,,10,11,2,2024-11-01_12h55.48.067,uWM_experiment,2022.2.3,59.99811606
,,,,,,,,,,,,,,,,,,,,3,0,3,0,9,0,9,0,,,,,,,,,,,,,,,,,,,,,,,,,,,,,,,,,,,,,,,,,,,,,,,,,,,,,,,,,,,,,,,,,,,,,,0,,,,,,,,,,,,,,,,,,,,,,,,,,,,left,0,130,30,160,0,1469.255717,1469.255717,1469.255717,None,None,3,0,0.9780272,,,,,,,,,,,,,,,,,,,,,,10,11,2,2024-11-01_12h55.48.067,uWM_experiment,2022.2.3,59.99811606
,,,,,,,,,,,,,,,,,,,,3,0,3,0,10,0,10,0,,,,,,,,,,,,,,,,,,,,,,,,,,,,,,,,,,,,,,,,,,,,,,,,,,,,,,,,,,,,,,,,,,,,,,0.1,,,,,,,,,,,,,,,,,,,,,,,,,,,,left,1,40,-30,10,2,1476.322652,1476.322652,1476.322652,None,None,4,0,0.3910002,,,,,,,,,,,,,,,,,,,,,,10,11,2,2024-11-01_12h55.48.067,uWM_experiment,2022.2.3,59.99811606
,,,,,,,,,,,,,,,,,,,,3,0,3,0,11,0,11,0,,,,,,,,,,,,,,,,,,,,,,,,,,,,,,,,,,,,,,,,,,,,,,,,,,,,,,,,,,,,,,,,,,,,,,0.005,,,,,,,,,,,,,,,,,,,,,,,,,,,,left,1,10,-30,-20,1,1482.606235,1482.606235,1482.606235,None,None,2,0,0.3234275,,,,,,,,,,,,,,,,,,,,,,10,11,2,2024-11-01_12h55.48.067,uWM_experiment,2022.2.3,59.99811606
,,,,,,,,,,,,,,,,,,,,3,0,3,0,12,0,12,0,,,,,,,,,,,,,,,,,,,,,,,,,,,,,,,,,,,,,,,,,,,,,,,,,,,,,,,,,,,,,,,,,,,,,,0.005,,,,,,,,,,,,,,,,,,,,,,,,,,,,right,1,100,30,130,1,1490.139864,1490.139864,1490.139864,None,None,2,0,0.6056555,,,,,,,,,,,,,,,,,,,,,,10,11,2,2024-11-01_12h55.48.067,uWM_experiment,2022.2.3,59.99811606
,,,,,,,,,,,,,,,,,,,,3,0,3,0,13,0,13,0,,,,,,,,,,,,,,,,,,,,,,,,,,,,,,,,,,,,,,,,,,,,,,,,,,,,,,,,,,,,,,,,,,,,,,0.005,,,,,,,,,,,,,,,,,,,,,,,,,,,,right,1,130,30,160,1,1496.373468,1496.373468,1496.373468,None,None,3,0,0.9002778,,,,,,,,,,,,,,,,,,,,,,10,11,2,2024-11-01_12h55.48.067,uWM_experiment,2022.2.3,59.99811606
,,,,,,,,,,,,,,,,,,,,3,0,3,0,14,0,14,0,,,,,,,,,,,,,,,,,,,,,,,,,,,,,,,,,,,,,,,,,,,,,,,,,,,,,,,,,,,,,,,,,,,,,,0.005,,,,,,,,,,,,,,,,,,,,,,,,,,,,left,0,10,30,40,1,1503.673751,1503.673751,1503.673751,None,None,2,0,1.4318837,,,,,,,,,,,,,,,,,,,,,,10,11,2,2024-11-01_12h55.48.067,uWM_experiment,2022.2.3,59.99811606
,,,,,,,,,,,,,,,,,,,,3,0,3,0,15,0,15,0,,,,,,,,,,,,,,,,,,,,,,,,,,,,,,,,,,,,,,,,,,,,,,,,,,,,,,,,,,,,,,,,,,,,,,0.005,,,,,,,,,,,,,,,,,,,,,,,,,,,,right,0,100,-30,70,1,1511.407398,1511.407398,1511.407398,None,None,2,0,1.7220749,,,,,,,,,,,,,,,,,,,,,,10,11,2,2024-11-01_12h55.48.067,uWM_experiment,2022.2.3,59.99811606
,,,,,,,,,,,,,,,,,,,,3,0,3,0,16,0,16,0,,,,,,,,,,,,,,,,,,,,,,,,,,,,,,,,,,,,,,,,,,,,,,,,,,,,,,,,,,,,,,,,,,,,,,0.005,,,,,,,,,,,,,,,,,,,,,,,,,,,,right,0,130,-30,100,1,1519.64105,1519.64105,1519.64105,None,None,1,1,0.4084713,,,,,,,,,,,,,,,,,,,,,,10,11,2,2024-11-01_12h55.48.067,uWM_experiment,2022.2.3,59.99811606
,,,,,,,,,,,,,,,,,,,,3,0,3,0,17,0,17,0,,,,,,,,,,,,,,,,,,,,,,,,,,,,,,,,,,,,,,,,,,,,,,,,,,,,,,,,,,,,,,,,,,,,,,0.015,,,,,,,,,,,,,,,,,,,,,,,,,,,,left,1,40,-30,10,1,1526.10806,1526.10806,1526.10806,None,None,1,1,0.8213395,,,,,,,,,,,,,,,,,,,,,,10,11,2,2024-11-01_12h55.48.067,uWM_experiment,2022.2.3,59.99811606
,,,,,,,,,,,,,,,,,,,,3,0,3,0,18,0,18,0,,,,,,,,,,,,,,,,,,,,,,,,,,,,,,,,,,,,,,,,,,,,,,,,,,,,,,,,,,,,,,,,,,,,,,0.025,,,,,,,,,,,,,,,,,,,,,,,,,,,,right,0,130,-30,100,1,1534.825035,1534.825035,1534.825035,None,None,1,1,0.5363301,,,,,,,,,,,,,,,,,,,,,,10,11,2,2024-11-01_12h55.48.067,uWM_experiment,2022.2.3,59.99811606
,,,,,,,,,,,,,,,,,,,,3,0,3,0,19,0,19,0,,,,,,,,,,,,,,,,,,,,,,,,,,,,,,,,,,,,,,,,,,,,,,,,,,,,,,,,,,,,,,,,,,,,,,0.035,,,,,,,,,,,,,,,,,,,,,,,,,,,,left,1,100,-30,70,1,1541.875286,1541.875286,1541.875286,None,None,2,0,2.1821485,,,,,,,,,,,,,,,,,,,,,,10,11,2,2024-11-01_12h55.48.067,uWM_experiment,2022.2.3,59.99811606
,,,,,,,,,,,,,,,,,,,,3,0,3,0,20,0,20,0,,,,,,,,,,,,,,,,,,,,,,,,,,,,,,,,,,,,,,,,,,,,,,,,,,,,,,,,,,,,,,,,,,,,,,0.025,,,,,,,,,,,,,,,,,,,,,,,,,,,,left,1,130,-30,100,1,1553.359106,1553.359106,1553.359106,None,None,2,0,0.5782779,,,,,,,,,,,,,,,,,,,,,,10,11,2,2024-11-01_12h55.48.067,uWM_experiment,2022.2.3,59.99811606
,,,,,,,,,,,,,,,,,,,,3,0,3,0,21,0,21,0,,,,,,,,,,,,,,,,,,,,,,,,,,,,,,,,,,,,,,,,,,,,,,,,,,,,,,,,,,,,,,,,,,,,,,0.1,,,,,,,,,,,,,,,,,,,,,,,,,,,,right,1,100,30,130,2,1560.459356,1560.459356,1560.459356,None,None,4,0,0.7820323,,,,,,,,,,,,,,,,,,,,,,10,11,2,2024-11-01_12h55.48.067,uWM_experiment,2022.2.3,59.99811606
,,,,,,,,,,,,,,,,,,,,3,0,3,0,22,0,22,0,,,,,,,,,,,,,,,,,,,,,,,,,,,,,,,,,,,,,,,,,,,,,,,,,,,,,,,,,,,,,,,,,,,,,,0,,,,,,,,,,,,,,,,,,,,,,,,,,,,right,1,40,30,70,0,1569.959744,1569.959744,1569.959744,None,None,2,0,2.0174626,,,,,,,,,,,,,,,,,,,,,,10,11,2,2024-11-01_12h55.48.067,uWM_experiment,2022.2.3,59.99811606
,,,,,,,,,,,,,,,,,,,,3,0,3,0,23,0,23,0,,,,,,,,,,,,,,,,,,,,,,,,,,,,,,,,,,,,,,,,,,,,,,,,,,,,,,,,,,,,,,,,,,,,,,0.015,,,,,,,,,,,,,,,,,,,,,,,,,,,,left,0,100,30,130,1,1577.843401,1577.843401,1577.843401,None,None,2,0,0.7177713,,,,,,,,,,,,,,,,,,,,,,10,11,2,2024-11-01_12h55.48.067,uWM_experiment,2022.2.3,59.99811606
,,,,,,,,,,,,,,,,,,,,3,0,3,0,,,,,0,0,0,0,,,,,,,,,,,,,,,,,,,,,,,,,,,,,,,,,,,,,,,,,,,,,,,,,,,,,,,,,,,,,,,,,,,,,,,,,,,,,,,,,,,,,,,,,,,,,,,,,,,,,,,,,,,,1578.593408,1578.593408,space,43.0478432,None,None,,,,,,,,,,,,,,,,10,11,2,2024-11-01_12h55.48.067,uWM_experiment,2022.2.3,59.99811606
,,,,,,,,,,,,,,,,,,,,3,0,3,0,,,,,1,0,1,0,,,,,,,,,,,,,,,,,,,,,,,,,,,,,,,,,,,,,,,,,,,,,,,,,,,,,,,,,,,,,,,,,,,,,,,,,,,,,,,,,,,,,,,,,,,,,,,,,,,,,,,,,,,,,,,,,,,,,,,,,,,,,,,,,10,11,2,2024-11-01_12h55.48.067,uWM_experiment,2022.2.3,59.99811606
,,,,,,,,,,,,,,,,,,,,3,0,3,0,,,,,2,0,2,0,,,,,,,,,,,,,,,,,,,,,,,,,,,,,,,,,,,,,,,,,,,,,,,,,,,,,,,,,,,,,,,,,,,,,,,,,,,,,,,,,,,,,,,,,,,,,,,,,,,,,,,,,,,,,,,,,,,,,,,,,,,,,,,,,10,11,2,2024-11-01_12h55.48.067,uWM_experiment,2022.2.3,59.99811606
,,,,,,,,,,,,,,,,,,,,4,0,4,0,0,0,0,0,,,,,,,,,,,,,,,,,,,,,,,,,,,,,,,,,,,,,,,,,,,,,,,,,,,,,,,,,,,,,,,,,,,,,,0.005,,,,,,,,,,,,,,,,,,,,1621.661833,1622.361843,1622.66184,1623.361883,1623.661897,1624.361917,1624.361917,1624.678622,right,0,40,-30,10,1,1629.16213,1629.16213,1629.16213,None,None,1,1,0.5028641,,,,,,,None,,,,,,,,,,,,,,,10,11,2,2024-11-01_12h55.48.067,uWM_experiment,2022.2.3,59.99811606
,,,,,,,,,,,,,,,,,,,,4,0,4,0,1,0,1,0,,,,,,,,,,,,,,,,,,,,,,,,,,,,,,,,,,,,,,,,,,,,,,,,,,,,,,,,,,,,,,,,,,,,,,0.015,,,,,,,,,,,,,,,,,,,,,,,,,,,,left,0,160,30,190,1,1636.529098,1636.529098,1636.529098,None,None,1,1,1.1120024,,,,,,,,,,,,,,,,,,,,,,10,11,2,2024-11-01_12h55.48.067,uWM_experiment,2022.2.3,59.99811606
,,,,,,,,,,,,,,,,,,,,4,0,4,0,2,0,2,0,,,,,,,,,,,,,,,,,,,,,,,,,,,,,,,,,,,,,,,,,,,,,,,,,,,,,,,,,,,,,,,,,,,,,,0,,,,,,,,,,,,,,,,,,,,,,,,,,,,left,0,160,30,190,0,1643.846051,1643.846051,1643.846051,None,None,2,0,0.4269528,,,,,,,,,,,,,,,,,,,,,,10,11,2,2024-11-01_12h55.48.067,uWM_experiment,2022.2.3,59.99811606
,,,,,,,,,,,,,,,,,,,,4,0,4,0,3,0,3,0,,,,,,,,,,,,,,,,,,,,,,,,,,,,,,,,,,,,,,,,,,,,,,,,,,,,,,,,,,,,,,,,,,,,,,0.025,,,,,,,,,,,,,,,,,,,,,,,,,,,,left,0,130,30,160,1,1650.196301,1650.196301,1650.196301,None,None,2,0,0.6127544,,,,,,,,,,,,,,,,,,,,,,10,11,2,2024-11-01_12h55.48.067,uWM_experiment,2022.2.3,59.99811606
,,,,,,,,,,,,,,,,,,,,4,0,4,0,4,0,4,0,,,,,,,,,,,,,,,,,,,,,,,,,,,,,,,,,,,,,,,,,,,,,,,,,,,,,,,,,,,,,,,,,,,,,,0.015,,,,,,,,,,,,,,,,,,,,,,,,,,,,right,1,100,30,130,1,1657.629934,1657.629934,1657.629934,None,None,2,0,0.9549701,,,,,,,,,,,,,,,,,,,,,,10,11,2,2024-11-01_12h55.48.067,uWM_experiment,2022.2.3,59.99811606
,,,,,,,,,,,,,,,,,,,,4,0,4,0,5,0,5,0,,,,,,,,,,,,,,,,,,,,,,,,,,,,,,,,,,,,,,,,,,,,,,,,,,,,,,,,,,,,,,,,,,,,,,0,,,,,,,,,,,,,,,,,,,,,,,,,,,,left,0,130,30,160,0,1664.463541,1664.463541,1664.463541,None,None,1,1,0.5294826,,,,,,,,,,,,,,,,,,,,,,10,11,2,2024-11-01_12h55.48.067,uWM_experiment,2022.2.3,59.99811606
,,,,,,,,,,,,,,,,,,,,4,0,4,0,6,0,6,0,,,,,,,,,,,,,,,,,,,,,,,,,,,,,,,,,,,,,,,,,,,,,,,,,,,,,,,,,,,,,,,,,,,,,,0.005,,,,,,,,,,,,,,,,,,,,,,,,,,,,right,1,160,30,190,1,1671.563847,1671.563847,1671.563847,None,None,1,1,0.9091223,,,,,,,,,,,,,,,,,,,,,,10,11,2,2024-11-01_12h55.48.067,uWM_experiment,2022.2.3,59.99811606
,,,,,,,,,,,,,,,,,,,,4,0,4,0,7,0,7,0,,,,,,,,,,,,,,,,,,,,,,,,,,,,,,,,,,,,,,,,,,,,,,,,,,,,,,,,,,,,,,,,,,,,,,0.015,,,,,,,,,,,,,,,,,,,,,,,,,,,,right,0,100,-30,70,1,1678.530837,1678.530837,1678.530837,None,None,2,0,1.5102567,,,,,,,,,,,,,,,,,,,,,,10,11,2,2024-11-01_12h55.48.067,uWM_experiment,2022.2.3,59.99811606
,,,,,,,,,,,,,,,,,,,,4,0,4,0,8,0,8,0,,,,,,,,,,,,,,,,,,,,,,,,,,,,,,,,,,,,,,,,,,,,,,,,,,,,,,,,,,,,,,,,,,,,,,0,,,,,,,,,,,,,,,,,,,,,,,,,,,,left,1,70,-30,40,0,1686.447781,1686.447781,1686.447781,None,None,2,0,0.417047,,,,,,,,,,,,,,,,,,,,,,10,11,2,2024-11-01_12h55.48.067,uWM_experiment,2022.2.3,59.99811606
,,,,,,,,,,,,,,,,,,,,4,0,4,0,9,0,9,0,,,,,,,,,,,,,,,,,,,,,,,,,,,,,,,,,,,,,,,,,,,,,,,,,,,,,,,,,,,,,,,,,,,,,,0.005,,,,,,,,,,,,,,,,,,,,,,,,,,,,right,0,100,-30,70,1,1692.914705,1692.914705,1692.914705,None,None,2,0,1.2462085,,,,,,,,,,,,,,,,,,,,,,10,11,2,2024-11-01_12h55.48.067,uWM_experiment,2022.2.3,59.99811606
,,,,,,,,,,,,,,,,,,,,4,0,4,0,10,0,10,0,,,,,,,,,,,,,,,,,,,,,,,,,,,,,,,,,,,,,,,,,,,,,,,,,,,,,,,,,,,,,,,,,,,,,,0.005,,,,,,,,,,,,,,,,,,,,,,,,,,,,left,1,70,-30,40,1,1700.748342,1700.748342,1700.748342,None,None,1,1,0.8925123,,,,,,,,,,,,,,,,,,,,,,10,11,2,2024-11-01_12h55.48.067,uWM_experiment,2022.2.3,59.99811606
,,,,,,,,,,,,,,,,,,,,4,0,4,0,11,0,11,0,,,,,,,,,,,,,,,,,,,,,,,,,,,,,,,,,,,,,,,,,,,,,,,,,,,,,,,,,,,,,,,,,,,,,,0.015,,,,,,,,,,,,,,,,,,,,,,,,,,,,left,0,160,30,190,1,1708.631983,1708.631983,1708.631983,None,None,1,1,0.9448504,,,,,,,,,,,,,,,,,,,,,,10,11,2,2024-11-01_12h55.48.067,uWM_experiment,2022.2.3,59.99811606
,,,,,,,,,,,,,,,,,,,,4,0,4,0,12,0,12,0,,,,,,,,,,,,,,,,,,,,,,,,,,,,,,,,,,,,,,,,,,,,,,,,,,,,,,,,,,,,,,,,,,,,,,0,,,,,,,,,,,,,,,,,,,,,,,,,,,,right,0,40,-30,10,0,1715.998942,1715.998942,1715.998942,None,None,1,1,1.1618614,,,,,,,,,,,,,,,,,,,,,,10,11,2,2024-11-01_12h55.48.067,uWM_experiment,2022.2.3,59.99811606
,,,,,,,,,,,,,,,,,,,,4,0,4,0,13,0,13,0,,,,,,,,,,,,,,,,,,,,,,,,,,,,,,,,,,,,,,,,,,,,,,,,,,,,,,,,,,,,,,,,,,,,,,0.025,,,,,,,,,,,,,,,,,,,,,,,,,,,,left,0,160,30,190,1,1723.015952,1723.015952,1723.015952,None,None,1,1,1.4327463,,,,,,,,,,,,,,,,,,,,,,10,11,2,2024-11-01_12h55.48.067,uWM_experiment,2022.2.3,59.99811606
,,,,,,,,,,,,,,,,,,,,4,0,4,0,14,0,14,0,,,,,,,,,,,,,,,,,,,,,,,,,,,,,,,,,,,,,,,,,,,,,,,,,,,,,,,,,,,,,,,,,,,,,,0.1,,,,,,,,,,,,,,,,,,,,,,,,,,,,right,1,40,30,70,2,1730.499507,1730.499507,1730.499507,None,None,4,0,0.4131358,,,,,,,,,,,,,,,,,,,,,,10,11,2,2024-11-01_12h55.48.067,uWM_experiment,2022.2.3,59.99811606
,,,,,,,,,,,,,,,,,,,,4,0,4,0,15,0,15,0,,,,,,,,,,,,,,,,,,,,,,,,,,,,,,,,,,,,,,,,,,,,,,,,,,,,,,,,,,,,,,,,,,,,,,0,,,,,,,,,,,,,,,,,,,,,,,,,,,,right,1,40,30,70,0,1737.133112,1737.133112,1737.133112,None,None,2,0,0.907587,,,,,,,,,,,,,,,,,,,,,,10,11,2,2024-11-01_12h55.48.067,uWM_experiment,2022.2.3,59.99811606
,,,,,,,,,,,,,,,,,,,,4,0,4,0,16,0,16,0,,,,,,,,,,,,,,,,,,,,,,,,,,,,,,,,,,,,,,,,,,,,,,,,,,,,,,,,,,,,,,,,,,,,,,0,,,,,,,,,,,,,,,,,,,,,,,,,,,,left,0,40,30,70,0,1744.816779,1744.816779,1744.816779,None,None,2,0,0.4958114,,,,,,,,,,,,,,,,,,,,,,10,11,2,2024-11-01_12h55.48.067,uWM_experiment,2022.2.3,59.99811606
,,,,,,,,,,,,,,,,,,,,4,0,4,0,17,0,17,0,,,,,,,,,,,,,,,,,,,,,,,,,,,,,,,,,,,,,,,,,,,,,,,,,,,,,,,,,,,,,,,,,,,,,,0.035,,,,,,,,,,,,,,,,,,,,,,,,,,,,left,1,160,-30,130,1,1751.600357,1751.600357,1751.600357,None,None,3,0,0.9923092,,,,,,,,,,,,,,,,,,,,,,10,11,2,2024-11-01_12h55.48.067,uWM_experiment,2022.2.3,59.99811606
,,,,,,,,,,,,,,,,,,,,4,0,4,0,18,0,18,0,,,,,,,,,,,,,,,,,,,,,,,,,,,,,,,,,,,,,,,,,,,,,,,,,,,,,,,,,,,,,,,,,,,,,,0.025,,,,,,,,,,,,,,,,,,,,,,,,,,,,left,1,130,-30,100,1,1760.250716,1760.250716,1760.250716,None,None,1,1,0.4299347,,,,,,,,,,,,,,,,,,,,,,10,11,2,2024-11-01_12h55.48.067,uWM_experiment,2022.2.3,59.99811606
,,,,,,,,,,,,,,,,,,,,4,0,4,0,19,0,19,0,,,,,,,,,,,,,,,,,,,,,,,,,,,,,,,,,,,,,,,,,,,,,,,,,,,,,,,,,,,,,,,,,,,,,,0,,,,,,,,,,,,,,,,,,,,,,,,,,,,left,1,70,-30,40,0,1769.251069,1769.251069,1769.251069,None,None,2,0,0.8373929,,,,,,,,,,,,,,,,,,,,,,10,11,2,2024-11-01_12h55.48.067,uWM_experiment,2022.2.3,59.99811606
,,,,,,,,,,,,,,,,,,,,4,0,4,0,20,0,20,0,,,,,,,,,,,,,,,,,,,,,,,,,,,,,,,,,,,,,,,,,,,,,,,,,,,,,,,,,,,,,,,,,,,,,,0,,,,,,,,,,,,,,,,,,,,,,,,,,,,left,1,10,-30,-20,0,1776.284714,1776.284714,1776.284714,None,None,2,0,2.9317586,,,,,,,,,,,,,,,,,,,,,,10,11,2,2024-11-01_12h55.48.067,uWM_experiment,2022.2.3,59.99811606
,,,,,,,,,,,,,,,,,,,,4,0,4,0,21,0,21,0,,,,,,,,,,,,,,,,,,,,,,,,,,,,,,,,,,,,,,,,,,,,,,,,,,,,,,,,,,,,,,,,,,,,,,0,,,,,,,,,,,,,,,,,,,,,,,,,,,,right,1,160,30,190,0,1785.051709,1785.051709,1785.051709,None,None,3,0,2.9648284,,,,,,,,,,,,,,,,,,,,,,10,11,2,2024-11-01_12h55.48.067,uWM_experiment,2022.2.3,59.99811606
,,,,,,,,,,,,,,,,,,,,4,0,4,0,22,0,22,0,,,,,,,,,,,,,,,,,,,,,,,,,,,,,,,,,,,,,,,,,,,,,,,,,,,,,,,,,,,,,,,,,,,,,,0.035,,,,,,,,,,,,,,,,,,,,,,,,,,,,right,1,10,30,40,1,1793.952051,1793.952051,1793.952051,None,None,2,0,0.4403305,,,,,,,,,,,,,,,,,,,,,,10,11,2,2024-11-01_12h55.48.067,uWM_experiment,2022.2.3,59.99811606
,,,,,,,,,,,,,,,,,,,,4,0,4,0,23,0,23,0,,,,,,,,,,,,,,,,,,,,,,,,,,,,,,,,,,,,,,,,,,,,,,,,,,,,,,,,,,,,,,,,,,,,,,0.025,,,,,,,,,,,,,,,,,,,,,,,,,,,,left,1,10,-30,-20,1,1803.452462,1803.452462,1803.452462,None,None,3,0,2.700016,,,,,,,,,,,,,,,,,,,,,,10,11,2,2024-11-01_12h55.48.067,uWM_experiment,2022.2.3,59.99811606
,,,,,,,,,,,,,,,,,,,,4,0,4,0,,,,,0,0,0,0,,,,,,,,,,,,,,,,,,,,,,,,,,,,,,,,,,,,,,,,,,,,,,,,,,,,,,,,,,,,,,,,,,,,,,,,,,,,,,,,,,,,,,,,,,,,,,,,,,,,,,,,,,,,1806.169227,1806.169227,space,43.9829838,None,None,,,,,,,,,,,,,,,,10,11,2,2024-11-01_12h55.48.067,uWM_experiment,2022.2.3,59.99811606
,,,,,,,,,,,,,,,,,,,,4,0,4,0,,,,,1,0,1,0,,,,,,,,,,,,,,,,,,,,,,,,,,,,,,,,,,,,,,,,,,,,,,,,,,,,,,,,,,,,,,,,,,,,,,,,,,,,,,,,,,,,,,,,,,,,,,,,,,,,,,,,,,,,,,,,,,,,,,,,,,,,,,,,,10,11,2,2024-11-01_12h55.48.067,uWM_experiment,2022.2.3,59.99811606
,,,,,,,,,,,,,,,,,,,,4,0,4,0,,,,,2,0,2,0,,,,,,,,,,,,,,,,,,,,,,,,,,,,,,,,,,,,,,,,,,,,,,,,,,,,,,,,,,,,,,,,,,,,,,,,,,,,,,,,,,,,,,,,,,,,,,,,,,,,,,,,,,,,,,,,,,,,,,,,,,,,,,,,,10,11,2,2024-11-01_12h55.48.067,uWM_experiment,2022.2.3,59.99811606
,,,,,,,,,,,,,,,,,,,,5,0,5,0,0,0,0,0,,,,,,,,,,,,,,,,,,,,,,,,,,,,,,,,,,,,,,,,,,,,,,,,,,,,,,,,,,,,,,,,,,,,,,0.015,,,,,,,,,,,,,,,,,,,,1850.170993,1850.871014,1851.17102,1851.871065,1852.171072,1852.871095,1852.871095,1853.187862,left,1,10,-30,-20,1,1859.438022,1859.438022,1859.438022,None,None,1,1,0.4741728,,,,,,,None,,,,,,,,,,,,,,,10,11,2,2024-11-01_12h55.48.067,uWM_experiment,2022.2.3,59.99811606
,,,,,,,,,,,,,,,,,,,,5,0,5,0,1,0,1,0,,,,,,,,,,,,,,,,,,,,,,,,,,,,,,,,,,,,,,,,,,,,,,,,,,,,,,,,,,,,,,,,,,,,,,0.025,,,,,,,,,,,,,,,,,,,,,,,,,,,,left,1,70,-30,40,1,1866.021614,1866.021614,1866.021614,None,None,2,0,0.4104854,,,,,,,,,,,,,,,,,,,,,,10,11,2,2024-11-01_12h55.48.067,uWM_experiment,2022.2.3,59.99811606
,,,,,,,,,,,,,,,,,,,,5,0,5,0,2,0,2,0,,,,,,,,,,,,,,,,,,,,,,,,,,,,,,,,,,,,,,,,,,,,,,,,,,,,,,,,,,,,,,,,,,,,,,0.1,,,,,,,,,,,,,,,,,,,,,,,,,,,,right,1,100,30,130,2,1872.371886,1872.371886,1872.371886,None,None,4,0,0.4282481,,,,,,,,,,,,,,,,,,,,,,10,11,2,2024-11-01_12h55.48.067,uWM_experiment,2022.2.3,59.99811606
,,,,,,,,,,,,,,,,,,,,5,0,5,0,3,0,3,0,,,,,,,,,,,,,,,,,,,,,,,,,,,,,,,,,,,,,,,,,,,,,,,,,,,,,,,,,,,,,,,,,,,,,,0.015,,,,,,,,,,,,,,,,,,,,,,,,,,,,left,0,130,30,160,1,1878.555515,1878.555515,1878.555515,None,None,2,0,0.4286249,,,,,,,,,,,,,,,,,,,,,,10,11,2,2024-11-01_12h55.48.067,uWM_experiment,2022.2.3,59.99811606
,,,,,,,,,,,,,,,,,,,,5,0,5,0,4,0,4,0,,,,,,,,,,,,,,,,,,,,,,,,,,,,,,,,,,,,,,,,,,,,,,,,,,,,,,,,,,,,,,,,,,,,,,0.005,,,,,,,,,,,,,,,,,,,,,,,,,,,,right,0,70,-30,40,1,1888.472554,1888.472554,1888.472554,None,None,3,0,2.3354413,,,,,,,,,,,,,,,,,,,,,,10,11,2,2024-11-01_12h55.48.067,uWM_experiment,2022.2.3,59.99811606
,,,,,,,,,,,,,,,,,,,,5,0,5,0,5,0,5,0,,,,,,,,,,,,,,,,,,,,,,,,,,,,,,,,,,,,,,,,,,,,,,,,,,,,,,,,,,,,,,,,,,,,,,0.005,,,,,,,,,,,,,,,,,,,,,,,,,,,,right,1,10,30,40,1,1896.539528,1896.539528,1896.539528,None,None,2,0,5.2204206,,,,,,,,,,,,,,,,,,,,,,10,11,2,2024-11-01_12h55.48.067,uWM_experiment,2022.2.3,59.99811606
,,,,,,,,,,,,,,,,,,,,5,0,5,0,6,0,6,0,,,,,,,,,,,,,,,,,,,,,,,,,,,,,,,,,,,,,,,,,,,,,,,,,,,,,,,,,,,,,,,,,,,,,,0.005,,,,,,,,,,,,,,,,,,,,,,,,,,,,right,1,40,30,70,1,1908.390018,1908.390018,1908.390018,None,None,3,0,1.6339715,,,,,,,,,,,,,,,,,,,,,,10,11,2,2024-11-01_12h55.48.067,uWM_experiment,2022.2.3,59.99811606
,,,,,,,,,,,,,,,,,,,,5,0,5,0,7,0,7,0,,,,,,,,,,,,,,,,,,,,,,,,,,,,,,,,,,,,,,,,,,,,,,,,,,,,,,,,,,,,,,,,,,,,,,0.005,,,,,,,,,,,,,,,,,,,,,,,,,,,,left,1,160,-30,130,1,1916.04031,1916.04031,1916.04031,None,None,2,0,1.4555745,,,,,,,,,,,,,,,,,,,,,,10,11,2,2024-11-01_12h55.48.067,uWM_experiment,2022.2.3,59.99811606
,,,,,,,,,,,,,,,,,,,,5,0,5,0,8,0,8,0,,,,,,,,,,,,,,,,,,,,,,,,,,,,,,,,,,,,,,,,,,,,,,,,,,,,,,,,,,,,,,,,,,,,,,0.005,,,,,,,,,,,,,,,,,,,,,,,,,,,,right,1,10,30,40,1,1923.840648,1923.840648,1923.840648,None,None,1,1,0.407349,,,,,,,,,,,,,,,,,,,,,,10,11,2,2024-11-01_12h55.48.067,uWM_experiment,2022.2.3,59.99811606
,,,,,,,,,,,,,,,,,,,,5,0,5,0,9,0,9,0,,,,,,,,,,,,,,,,,,,,,,,,,,,,,,,,,,,,,,,,,,,,,,,,,,,,,,,,,,,,,,,,,,,,,,0.1,,,,,,,,,,,,,,,,,,,,,,,,,,,,right,1,10,30,40,2,1930.107544,1930.107544,1930.107544,None,None,4,0,0.4444394,,,,,,,,,,,,,,,,,,,,,,10,11,2,2024-11-01_12h55.48.067,uWM_experiment,2022.2.3,59.99811606
,,,,,,,,,,,,,,,,,,,,5,0,5,0,10,0,10,0,,,,,,,,,,,,,,,,,,,,,,,,,,,,,,,,,,,,,,,,,,,,,,,,,,,,,,,,,,,,,,,,,,,,,,0.1,,,,,,,,,,,,,,,,,,,,,,,,,,,,right,1,70,30,100,2,1936.724479,1936.724479,1936.724479,None,None,4,0,0.4193616,,,,,,,,,,,,,,,,,,,,,,10,11,2,2024-11-01_12h55.48.067,uWM_experiment,2022.2.3,59.99811606
,,,,,,,,,,,,,,,,,,,,5,0,5,0,11,0,11,0,,,,,,,,,,,,,,,,,,,,,,,,,,,,,,,,,,,,,,,,,,,,,,,,,,,,,,,,,,,,,,,,,,,,,,0.015,,,,,,,,,,,,,,,,,,,,,,,,,,,,right,1,70,30,100,1,1943.12472,1943.12472,1943.12472,None,None,2,0,0.9471802,,,,,,,,,,,,,,,,,,,,,,10,11,2,2024-11-01_12h55.48.067,uWM_experiment,2022.2.3,59.99811606
,,,,,,,,,,,,,,,,,,,,5,0,5,0,12,0,12,0,,,,,,,,,,,,,,,,,,,,,,,,,,,,,,,,,,,,,,,,,,,,,,,,,,,,,,,,,,,,,,,,,,,,,,0.005,,,,,,,,,,,,,,,,,,,,,,,,,,,,right,1,160,30,190,1,1950.075034,1950.075034,1950.075034,None,None,2,0,0.7887311,,,,,,,,,,,,,,,,,,,,,,10,11,2,2024-11-01_12h55.48.067,uWM_experiment,2022.2.3,59.99811606
,,,,,,,,,,,,,,,,,,,,5,0,5,0,13,0,13,0,,,,,,,,,,,,,,,,,,,,,,,,,,,,,,,,,,,,,,,,,,,,,,,,,,,,,,,,,,,,,,,,,,,,,,0.005,,,,,,,,,,,,,,,,,,,,,,,,,,,,right,1,100,30,130,1,1957.591978,1957.591978,1957.591978,None,None,2,0,1.0959072,,,,,,,,,,,,,,,,,,,,,,10,11,2,2024-11-01_12h55.48.067,uWM_experiment,2022.2.3,59.99811606
,,,,,,,,,,,,,,,,,,,,5,0,5,0,14,0,14,0,,,,,,,,,,,,,,,,,,,,,,,,,,,,,,,,,,,,,,,,,,,,,,,,,,,,,,,,,,,,,,,,,,,,,,0.005,,,,,,,,,,,,,,,,,,,,,,,,,,,,right,0,160,-30,130,1,1965.025607,1965.025607,1965.025607,None,None,1,1,1.414261,,,,,,,,,,,,,,,,,,,,,,10,11,2,2024-11-01_12h55.48.067,uWM_experiment,2022.2.3,59.99811606
,,,,,,,,,,,,,,,,,,,,5,0,5,0,15,0,15,0,,,,,,,,,,,,,,,,,,,,,,,,,,,,,,,,,,,,,,,,,,,,,,,,,,,,,,,,,,,,,,,,,,,,,,0.015,,,,,,,,,,,,,,,,,,,,,,,,,,,,left,0,130,30,160,1,1972.259237,1972.259237,1972.259237,None,None,2,0,1.3006163,,,,,,,,,,,,,,,,,,,,,,10,11,2,2024-11-01_12h55.48.067,uWM_experiment,2022.2.3,59.99811606
,,,,,,,,,,,,,,,,,,,,5,0,5,0,16,0,16,0,,,,,,,,,,,,,,,,,,,,,,,,,,,,,,,,,,,,,,,,,,,,,,,,,,,,,,,,,,,,,,,,,,,,,,0.005,,,,,,,,,,,,,,,,,,,,,,,,,,,,left,0,70,30,100,1,1979.626223,1979.626223,1979.626223,None,None,1,1,0.4214171,,,,,,,,,,,,,,,,,,,,,,10,11,2,2024-11-01_12h55.48.067,uWM_experiment,2022.2.3,59.99811606
,,,,,,,,,,,,,,,,,,,,5,0,5,0,17,0,17,0,,,,,,,,,,,,,,,,,,,,,,,,,,,,,,,,,,,,,,,,,,,,,,,,,,,,,,,,,,,,,,,,,,,,,,0.015,,,,,,,,,,,,,,,,,,,,,,,,,,,,right,1,10,30,40,1,1986.159815,1986.159815,1986.159815,None,None,2,0,0.9038086,,,,,,,,,,,,,,,,,,,,,,10,11,2,2024-11-01_12h55.48.067,uWM_experiment,2022.2.3,59.99811606
,,,,,,,,,,,,,,,,,,,,5,0,5,0,18,0,18,0,,,,,,,,,,,,,,,,,,,,,,,,,,,,,,,,,,,,,,,,,,,,,,,,,,,,,,,,,,,,,,,,,,,,,,0.005,,,,,,,,,,,,,,,,,,,,,,,,,,,,left,0,100,30,130,1,1993.026731,1993.026731,1993.026731,None,None,2,0,1.3729819,,,,,,,,,,,,,,,,,,,,,,10,11,2,2024-11-01_12h55.48.067,uWM_experiment,2022.2.3,59.99811606
,,,,,,,,,,,,,,,,,,,,5,0,5,0,19,0,19,0,,,,,,,,,,,,,,,,,,,,,,,,,,,,,,,,,,,,,,,,,,,,,,,,,,,,,,,,,,,,,,,,,,,,,,0.005,,,,,,,,,,,,,,,,,,,,,,,,,,,,right,1,70,30,100,1,2000.993721,2000.993721,2000.993721,None,None,1,1,0.3819266,,,,,,,,,,,,,,,,,,,,,,10,11,2,2024-11-01_12h55.48.067,uWM_experiment,2022.2.3,59.99811606
,,,,,,,,,,,,,,,,,,,,5,0,5,0,20,0,20,0,,,,,,,,,,,,,,,,,,,,,,,,,,,,,,,,,,,,,,,,,,,,,,,,,,,,,,,,,,,,,,,,,,,,,,0,,,,,,,,,,,,,,,,,,,,,,,,,,,,left,1,160,-30,130,0,2007.110662,2007.110662,2007.110662,None,None,1,1,0.4250458,,,,,,,,,,,,,,,,,,,,,,10,11,2,2024-11-01_12h55.48.067,uWM_experiment,2022.2.3,59.99811606
,,,,,,,,,,,,,,,,,,,,5,0,5,0,21,0,21,0,,,,,,,,,,,,,,,,,,,,,,,,,,,,,,,,,,,,,,,,,,,,,,,,,,,,,,,,,,,,,,,,,,,,,,0.015,,,,,,,,,,,,,,,,,,,,,,,,,,,,left,1,40,-30,10,1,2014.877609,2014.877609,2014.877609,None,None,1,1,0.5620879,,,,,,,,,,,,,,,,,,,,,,10,11,2,2024-11-01_12h55.48.067,uWM_experiment,2022.2.3,59.99811606
,,,,,,,,,,,,,,,,,,,,5,0,5,0,22,0,22,0,,,,,,,,,,,,,,,,,,,,,,,,,,,,,,,,,,,,,,,,,,,,,,,,,,,,,,,,,,,,,,,,,,,,,,0.025,,,,,,,,,,,,,,,,,,,,,,,,,,,,left,1,10,-30,-20,1,2021.427879,2021.427879,2021.427879,None,None,1,1,0.3796614,,,,,,,,,,,,,,,,,,,,,,10,11,2,2024-11-01_12h55.48.067,uWM_experiment,2022.2.3,59.99811606
,,,,,,,,,,,,,,,,,,,,5,0,5,0,23,0,23,0,,,,,,,,,,,,,,,,,,,,,,,,,,,,,,,,,,,,,,,,,,,,,,,,,,,,,,,,,,,,,,,,,,,,,,0.035,,,,,,,,,,,,,,,,,,,,,,,,,,,,right,1,70,30,100,1,2028.294812,2028.294812,2028.294812,None,None,2,0,0.6647202,,,,,,,,,,,,,,,,,,,,,,10,11,2,2024-11-01_12h55.48.067,uWM_experiment,2022.2.3,59.99811606
,,,,,,,,,,,,,,,,,,,,5,0,5,0,,,,,0,0,0,0,,,,,,,,,,,,,,,,,,,,,,,,,,,,,,,,,,,,,,,,,,,,,,,,,,,,,,,,,,,,,,,,,,,,,,,,,,,,,,,,,,,,,,,,,,,,,,,,,,,,,,,,,,,,2028.978199,2028.978199,space,58.2132077,space,None,,2087.213861,2087.213861,19.4895039,,,,,,,,,,,,10,11,2,2024-11-01_12h55.48.067,uWM_experiment,2022.2.3,59.99811606
,,,,,,,,,,,,,,,,,,,,5,0,5,0,,,,,1,0,1,0,,,,,,,,,,,,,,,,,,,,,,,,,,,,,,,,,,,,,,,,,,,,,,,,,,,,,,,,,,,,,,,,,,,,,,,,,,,,,,,,,,,,,,,,,,,,,,,,,,,,,,,,,,,,,,,,,,,,,,,,,,,,,,,,,10,11,2,2024-11-01_12h55.48.067,uWM_experiment,2022.2.3,59.99811606
,,,,,,,,,,,,,,,,,,,,5,0,5,0,,,,,2,0,2,0,,,,,,,,,,,,,,,,,,,,,,,,,,,,,,,,,,,,,,,,,,,,,,,,,,,,,,,,,,,,,,,,,,,,,,,,,,,,,,,,,,,,,,,,,,,,,,,,,,,,,,,,,,,,,,,,,,,,,,,,,,,,,,,,,10,11,2,2024-11-01_12h55.48.067,uWM_experiment,2022.2.3,59.99811606
,,,,,,,,,,,,,,,,,,,,6,0,6,0,0,0,0,0,,,,,,,,,,,,,,,,,,,,,,,,,,,,,,,,,,,,,,,,,,,,,,,,,,,,,,,,,,,,,,,,,,,,,,0.025,,,,,,,,,,,,,,,,,,,,2106.731306,2107.431336,2107.731347,2108.431375,2108.731387,2109.431416,2109.431416,2109.748104,left,1,130,-30,100,1,2114.68162,2114.68162,2114.68162,None,None,3,0,1.4855535,,,,,,,None,,,,,,,,,,,,,,,10,11,2,2024-11-01_12h55.48.067,uWM_experiment,2022.2.3,59.99811606
,,,,,,,,,,,,,,,,,,,,6,0,6,0,1,0,1,0,,,,,,,,,,,,,,,,,,,,,,,,,,,,,,,,,,,,,,,,,,,,,,,,,,,,,,,,,,,,,,,,,,,,,,0.015,,,,,,,,,,,,,,,,,,,,,,,,,,,,left,0,10,30,40,1,2123.748679,2123.748679,2123.748679,None,None,2,0,0.6024206,,,,,,,,,,,,,,,,,,,,,,10,11,2,2024-11-01_12h55.48.067,uWM_experiment,2022.2.3,59.99811606
,,,,,,,,,,,,,,,,,,,,6,0,6,0,2,0,2,0,,,,,,,,,,,,,,,,,,,,,,,,,,,,,,,,,,,,,,,,,,,,,,,,,,,,,,,,,,,,,,,,,,,,,,0.005,,,,,,,,,,,,,,,,,,,,,,,,,,,,left,1,40,-30,10,1,2132.832344,2132.832344,2132.832344,None,None,2,0,0.4628674,,,,,,,,,,,,,,,,,,,,,,10,11,2,2024-11-01_12h55.48.067,uWM_experiment,2022.2.3,59.99811606
,,,,,,,,,,,,,,,,,,,,6,0,6,0,3,0,3,0,,,,,,,,,,,,,,,,,,,,,,,,,,,,,,,,,,,,,,,,,,,,,,,,,,,,,,,,,,,,,,,,,,,,,,0.005,,,,,,,,,,,,,,,,,,,,,,,,,,,,right,1,70,30,100,1,2139.332624,2139.332624,2139.332624,None,None,3,0,0.9226532,,,,,,,,,,,,,,,,,,,,,,10,11,2,2024-11-01_12h55.48.067,uWM_experiment,2022.2.3,59.99811606
,,,,,,,,,,,,,,,,,,,,6,0,6,0,4,0,4,0,,,,,,,,,,,,,,,,,,,,,,,,,,,,,,,,,,,,,,,,,,,,,,,,,,,,,,,,,,,,,,,,,,,,,,0.005,,,,,,,,,,,,,,,,,,,,,,,,,,,,left,1,40,-30,10,1,2146.91625,2146.91625,2146.91625,None,None,2,0,1.1149824,,,,,,,,,,,,,,,,,,,,,,10,11,2,2024-11-01_12h55.48.067,uWM_experiment,2022.2.3,59.99811606
,,,,,,,,,,,,,,,,,,,,6,0,6,0,5,0,5,0,,,,,,,,,,,,,,,,,,,,,,,,,,,,,,,,,,,,,,,,,,,,,,,,,,,,,,,,,,,,,,,,,,,,,,0.005,,,,,,,,,,,,,,,,,,,,,,,,,,,,right,1,10,30,40,1,2154.066525,2154.066525,2154.066525,None,None,2,0,1.3645214,,,,,,,,,,,,,,,,,,,,,,10,11,2,2024-11-01_12h55.48.067,uWM_experiment,2022.2.3,59.99811606
,,,,,,,,,,,,,,,,,,,,6,0,6,0,6,0,6,0,,,,,,,,,,,,,,,,,,,,,,,,,,,,,,,,,,,,,,,,,,,,,,,,,,,,,,,,,,,,,,,,,,,,,,0,,,,,,,,,,,,,,,,,,,,,,,,,,,,right,1,40,30,70,0,2162.516903,2162.516903,2162.516903,None,None,3,0,0.8582022,,,,,,,,,,,,,,,,,,,,,,10,11,2,2024-11-01_12h55.48.067,uWM_experiment,2022.2.3,59.99811606
,,,,,,,,,,,,,,,,,,,,6,0,6,0,7,0,7,0,,,,,,,,,,,,,,,,,,,,,,,,,,,,,,,,,,,,,,,,,,,,,,,,,,,,,,,,,,,,,,,,,,,,,,0.005,,,,,,,,,,,,,,,,,,,,,,,,,,,,left,1,70,-30,40,1,2169.417162,2169.417162,2169.417162,None,None,3,0,1.5098147,,,,,,,,,,,,,,,,,,,,,,10,11,2,2024-11-01_12h55.48.067,uWM_experiment,2022.2.3,59.99811606
,,,,,,,,,,,,,,,,,,,,6,0,6,0,8,0,8,0,,,,,,,,,,,,,,,,,,,,,,,,,,,,,,,,,,,,,,,,,,,,,,,,,,,,,,,,,,,,,,,,,,,,,,0,,,,,,,,,,,,,,,,,,,,,,,,,,,,left,0,10,30,40,0,2177.517494,2177.517494,2177.517494,None,None,3,0,2.2013964,,,,,,,,,,,,,,,,,,,,,,10,11,2,2024-11-01_12h55.48.067,uWM_experiment,2022.2.3,59.99811606
,,,,,,,,,,,,,,,,,,,,6,0,6,0,9,0,9,0,,,,,,,,,,,,,,,,,,,,,,,,,,,,,,,,,,,,,,,,,,,,,,,,,,,,,,,,,,,,,,,,,,,,,,0,,,,,,,,,,,,,,,,,,,,,,,,,,,,right,0,70,-30,40,0,2186.451175,2186.451175,2186.451175,None,None,3,0,0.6597662,,,,,,,,,,,,,,,,,,,,,,10,11,2,2024-11-01_12h55.48.067,uWM_experiment,2022.2.3,59.99811606
,,,,,,,,,,,,,,,,,,,,6,0,6,0,10,0,10,0,,,,,,,,,,,,,,,,,,,,,,,,,,,,,,,,,,,,,,,,,,,,,,,,,,,,,,,,,,,,,,,,,,,,,,0,,,,,,,,,,,,,,,,,,,,,,,,,,,,right,1,100,30,130,0,2193.734802,2193.734802,2193.734802,None,None,2,0,0.5760016,,,,,,,,,,,,,,,,,,,,,,10,11,2,2024-11-01_12h55.48.067,uWM_experiment,2022.2.3,59.99811606
,,,,,,,,,,,,,,,,,,,,6,0,6,0,11,0,11,0,,,,,,,,,,,,,,,,,,,,,,,,,,,,,,,,,,,,,,,,,,,,,,,,,,,,,,,,,,,,,,,,,,,,,,0,,,,,,,,,,,,,,,,,,,,,,,,,,,,left,0,130,30,160,0,2200.818425,2200.818425,2200.818425,None,None,2,0,0.372426,,,,,,,,,,,,,,,,,,,,,,10,11,2,2024-11-01_12h55.48.067,uWM_experiment,2022.2.3,59.99811606
,,,,,,,,,,,,,,,,,,,,6,0,6,0,12,0,12,0,,,,,,,,,,,,,,,,,,,,,,,,,,,,,,,,,,,,,,,,,,,,,,,,,,,,,,,,,,,,,,,,,,,,,,0.005,,,,,,,,,,,,,,,,,,,,,,,,,,,,left,0,10,30,40,1,2207.168694,2207.168694,2207.168694,None,None,1,1,0.5262145,,,,,,,,,,,,,,,,,,,,,,10,11,2,2024-11-01_12h55.48.067,uWM_experiment,2022.2.3,59.99811606
,,,,,,,,,,,,,,,,,,,,6,0,6,0,13,0,13,0,,,,,,,,,,,,,,,,,,,,,,,,,,,,,,,,,,,,,,,,,,,,,,,,,,,,,,,,,,,,,,,,,,,,,,0,,,,,,,,,,,,,,,,,,,,,,,,,,,,right,1,10,30,40,0,2215.669008,2215.669008,2215.669008,None,None,2,0,0.8177148,,,,,,,,,,,,,,,,,,,,,,10,11,2,2024-11-01_12h55.48.067,uWM_experiment,2022.2.3,59.99811606
,,,,,,,,,,,,,,,,,,,,6,0,6,0,14,0,14,0,,,,,,,,,,,,,,,,,,,,,,,,,,,,,,,,,,,,,,,,,,,,,,,,,,,,,,,,,,,,,,,,,,,,,,0.015,,,,,,,,,,,,,,,,,,,,,,,,,,,,right,1,70,30,100,1,2223.06931,2223.06931,2223.06931,None,None,3,0,2.2735545,,,,,,,,,,,,,,,,,,,,,,10,11,2,2024-11-01_12h55.48.067,uWM_experiment,2022.2.3,59.99811606
,,,,,,,,,,,,,,,,,,,,6,0,6,0,15,0,15,0,,,,,,,,,,,,,,,,,,,,,,,,,,,,,,,,,,,,,,,,,,,,,,,,,,,,,,,,,,,,,,,,,,,,,,0.005,,,,,,,,,,,,,,,,,,,,,,,,,,,,left,0,130,30,160,1,2231.319639,2231.319639,2231.319639,None,None,1,1,0.4231849,,,,,,,,,,,,,,,,,,,,,,10,11,2,2024-11-01_12h55.48.067,uWM_experiment,2022.2.3,59.99811606
,,,,,,,,,,,,,,,,,,,,6,0,6,0,16,0,16,0,,,,,,,,,,,,,,,,,,,,,,,,,,,,,,,,,,,,,,,,,,,,,,,,,,,,,,,,,,,,,,,,,,,,,,0.015,,,,,,,,,,,,,,,,,,,,,,,,,,,,left,0,100,30,130,1,2237.903238,2237.903238,2237.903238,None,None,1,1,0.6555559,,,,,,,,,,,,,,,,,,,,,,10,11,2,2024-11-01_12h55.48.067,uWM_experiment,2022.2.3,59.99811606
,,,,,,,,,,,,,,,,,,,,6,0,6,0,17,0,17,0,,,,,,,,,,,,,,,,,,,,,,,,,,,,,,,,,,,,,,,,,,,,,,,,,,,,,,,,,,,,,,,,,,,,,,0.025,,,,,,,,,,,,,,,,,,,,,,,,,,,,right,1,160,30,190,1,2245.853559,2245.853559,2245.853559,None,None,3,0,2.137054,,,,,,,,,,,,,,,,,,,,,,10,11,2,2024-11-01_12h55.48.067,uWM_experiment,2022.2.3,59.99811606
,,,,,,,,,,,,,,,,,,,,6,0,6,0,18,0,18,0,,,,,,,,,,,,,,,,,,,,,,,,,,,,,,,,,,,,,,,,,,,,,,,,,,,,,,,,,,,,,,,,,,,,,,0,,,,,,,,,,,,,,,,,,,,,,,,,,,,left,1,10,-30,-20,0,2255.170599,2255.170599,2255.170599,None,None,2,0,0.8121476,,,,,,,,,,,,,,,,,,,,,,10,11,2,2024-11-01_12h55.48.067,uWM_experiment,2022.2.3,59.99811606
,,,,,,,,,,,,,,,,,,,,6,0,6,0,19,0,19,0,,,,,,,,,,,,,,,,,,,,,,,,,,,,,,,,,,,,,,,,,,,,,,,,,,,,,,,,,,,,,,,,,,,,,,0,,,,,,,,,,,,,,,,,,,,,,,,,,,,right,0,100,-30,70,0,2265.821097,2265.821097,2265.821097,None,None,2,0,0.7374526,,,,,,,,,,,,,,,,,,,,,,10,11,2,2024-11-01_12h55.48.067,uWM_experiment,2022.2.3,59.99811606
,,,,,,,,,,,,,,,,,,,,6,0,6,0,20,0,20,0,,,,,,,,,,,,,,,,,,,,,,,,,,,,,,,,,,,,,,,,,,,,,,,,,,,,,,,,,,,,,,,,,,,,,,0.015,,,,,,,,,,,,,,,,,,,,,,,,,,,,right,0,100,-30,70,1,2272.454627,2272.454627,2272.454627,None,None,2,0,0.6800213,,,,,,,,,,,,,,,,,,,,,,10,11,2,2024-11-01_12h55.48.067,uWM_experiment,2022.2.3,59.99811606
,,,,,,,,,,,,,,,,,,,,6,0,6,0,21,0,21,0,,,,,,,,,,,,,,,,,,,,,,,,,,,,,,,,,,,,,,,,,,,,,,,,,,,,,,,,,,,,,,,,,,,,,,0,,,,,,,,,,,,,,,,,,,,,,,,,,,,right,0,70,-30,40,0,2279.671576,2279.671576,2279.671576,None,None,1,1,0.4229691,,,,,,,,,,,,,,,,,,,,,,10,11,2,2024-11-01_12h55.48.067,uWM_experiment,2022.2.3,59.99811606
,,,,,,,,,,,,,,,,,,,,6,0,6,0,22,0,22,0,,,,,,,,,,,,,,,,,,,,,,,,,,,,,,,,,,,,,,,,,,,,,,,,,,,,,,,,,,,,,,,,,,,,,,0.005,,,,,,,,,,,,,,,,,,,,,,,,,,,,right,0,100,-30,70,1,2285.805186,2285.805186,2285.805186,None,None,1,1,0.5774462,,,,,,,,,,,,,,,,,,,,,,10,11,2,2024-11-01_12h55.48.067,uWM_experiment,2022.2.3,59.99811606
,,,,,,,,,,,,,,,,,,,,6,0,6,0,23,0,23,0,,,,,,,,,,,,,,,,,,,,,,,,,,,,,,,,,,,,,,,,,,,,,,,,,,,,,,,,,,,,,,,,,,,,,,0.015,,,,,,,,,,,,,,,,,,,,,,,,,,,,left,0,160,30,190,1,2293.238814,2293.238814,2293.238814,None,None,1,1,0.8717222,,,,,,,,,,,,,,,,,,,,,,10,11,2,2024-11-01_12h55.48.067,uWM_experiment,2022.2.3,59.99811606
,,,,,,,,,,,,,,,,,,,,6,0,6,0,,,,,0,0,0,0,,,,,,,,,,,,,,,,,,,,,,,,,,,,,,,,,,,,,,,,,,,,,,,,,,,,,,,,,,,,,,,,,,,,,,,,,,,,,,,,,,,,,,,,,,,,,,,,,,,,,,,,,,,,2294.138841,2294.138841,space,4.6837011,None,space,,,,,2298.855659,2298.855659,17.4628509,,,,,,,,,10,11,2,2024-11-01_12h55.48.067,uWM_experiment,2022.2.3,59.99811606
,,,,,,,,,,,,,,,,,,,,6,0,6,0,,,,,1,0,1,0,,,,,,,,,,,,,,,,,,,,,,,,,,,,,,,,,,,,,,,,,,,,,,,,,,,,,,,,,,,,,,,,,,,,,,,,,,,,,,,,,,,,,,,,,,,,,,,,,,,,,,,,,,,,,,,,,,,,,,,,,,,,,,,,,10,11,2,2024-11-01_12h55.48.067,uWM_experiment,2022.2.3,59.99811606
,,,,,,,,,,,,,,,,,,,,6,0,6,0,,,,,2,0,2,0,,,,,,,,,,,,,,,,,,,,,,,,,,,,,,,,,,,,,,,,,,,,,,,,,,,,,,,,,,,,,,,,,,,,,,,,,,,,,,,,,,,,,,,,,,,,,,,,,,,,,,,,,,,,,,,,,,,,,,,,,,,,,,,,,10,11,2,2024-11-01_12h55.48.067,uWM_experiment,2022.2.3,59.99811606
,,,,,,,,,,,,,,,,,,,,7,0,7,0,0,0,0,0,,,,,,,,,,,,,,,,,,,,,,,,,,,,,,,,,,,,,,,,,,,,,,,,,,,,,,,,,,,,,,,,,,,,,,0.025,,,,,,,,,,,,,,,,,,,,2372.025281,2372.725315,2373.008654,2373.708681,2374.008695,2374.708726,2374.708726,2375.025416,right,1,160,30,190,1,2379.842261,2379.842261,2379.842261,None,None,2,0,0.579953,,,,,,,space,,,,,,,2329.140239,2329.140239,42.8660173,,,,,,10,11,2,2024-11-01_12h55.48.067,uWM_experiment,2022.2.3,59.99811606
,,,,,,,,,,,,,,,,,,,,7,0,7,0,1,0,1,0,,,,,,,,,,,,,,,,,,,,,,,,,,,,,,,,,,,,,,,,,,,,,,,,,,,,,,,,,,,,,,,,,,,,,,0,,,,,,,,,,,,,,,,,,,,,,,,,,,,left,0,100,30,130,0,2386.425851,2386.425851,2386.425851,None,None,1,1,0.4202725,,,,,,,,,,,,,,,,,,,,,,10,11,2,2024-11-01_12h55.48.067,uWM_experiment,2022.2.3,59.99811606
,,,,,,,,,,,,,,,,,,,,7,0,7,0,2,0,2,0,,,,,,,,,,,,,,,,,,,,,,,,,,,,,,,,,,,,,,,,,,,,,,,,,,,,,,,,,,,,,,,,,,,,,,0.015,,,,,,,,,,,,,,,,,,,,,,,,,,,,left,1,10,-30,-20,1,2393.45947,2393.45947,2393.45947,None,None,1,1,0.8907723,,,,,,,,,,,,,,,,,,,,,,10,11,2,2024-11-01_12h55.48.067,uWM_experiment,2022.2.3,59.99811606
,,,,,,,,,,,,,,,,,,,,7,0,7,0,3,0,3,0,,,,,,,,,,,,,,,,,,,,,,,,,,,,,,,,,,,,,,,,,,,,,,,,,,,,,,,,,,,,,,,,,,,,,,0.025,,,,,,,,,,,,,,,,,,,,,,,,,,,,right,1,40,30,70,1,2400.30974,2400.30974,2400.30974,None,None,2,0,0.6883348,,,,,,,,,,,,,,,,,,,,,,10,11,2,2024-11-01_12h55.48.067,uWM_experiment,2022.2.3,59.99811606
,,,,,,,,,,,,,,,,,,,,7,0,7,0,4,0,4,0,,,,,,,,,,,,,,,,,,,,,,,,,,,,,,,,,,,,,,,,,,,,,,,,,,,,,,,,,,,,,,,,,,,,,,0.015,,,,,,,,,,,,,,,,,,,,,,,,,,,,right,0,70,-30,40,1,2407.61006,2407.61006,2407.61006,None,None,2,0,1.5321039,,,,,,,,,,,,,,,,,,,,,,10,11,2,2024-11-01_12h55.48.067,uWM_experiment,2022.2.3,59.99811606
,,,,,,,,,,,,,,,,,,,,7,0,7,0,5,0,5,0,,,,,,,,,,,,,,,,,,,,,,,,,,,,,,,,,,,,,,,,,,,,,,,,,,,,,,,,,,,,,,,,,,,,,,0.005,,,,,,,,,,,,,,,,,,,,,,,,,,,,left,0,100,30,130,1,2415.143674,2415.143674,2415.143674,None,None,2,0,1.0223013,,,,,,,,,,,,,,,,,,,,,,10,11,2,2024-11-01_12h55.48.067,uWM_experiment,2022.2.3,59.99811606
,,,,,,,,,,,,,,,,,,,,7,0,7,0,6,0,6,0,,,,,,,,,,,,,,,,,,,,,,,,,,,,,,,,,,,,,,,,,,,,,,,,,,,,,,,,,,,,,,,,,,,,,,0.005,,,,,,,,,,,,,,,,,,,,,,,,,,,,right,1,100,30,130,1,2422.594007,2422.594007,2422.594007,None,None,2,0,1.7719845,,,,,,,,,,,,,,,,,,,,,,10,11,2,2024-11-01_12h55.48.067,uWM_experiment,2022.2.3,59.99811606
,,,,,,,,,,,,,,,,,,,,7,0,7,0,7,0,7,0,,,,,,,,,,,,,,,,,,,,,,,,,,,,,,,,,,,,,,,,,,,,,,,,,,,,,,,,,,,,,,,,,,,,,,0.005,,,,,,,,,,,,,,,,,,,,,,,,,,,,left,0,160,30,190,1,2430.194287,2430.194287,2430.194287,None,None,1,1,0.4516393,,,,,,,,,,,,,,,,,,,,,,10,11,2,2024-11-01_12h55.48.067,uWM_experiment,2022.2.3,59.99811606
,,,,,,,,,,,,,,,,,,,,7,0,7,0,8,0,8,0,,,,,,,,,,,,,,,,,,,,,,,,,,,,,,,,,,,,,,,,,,,,,,,,,,,,,,,,,,,,,,,,,,,,,,0.015,,,,,,,,,,,,,,,,,,,,,,,,,,,,left,0,130,30,160,1,2436.644566,2436.644566,2436.644566,None,None,2,0,0.5134532,,,,,,,,,,,,,,,,,,,,,,10,11,2,2024-11-01_12h55.48.067,uWM_experiment,2022.2.3,59.99811606
,,,,,,,,,,,,,,,,,,,,7,0,7,0,9,0,9,0,,,,,,,,,,,,,,,,,,,,,,,,,,,,,,,,,,,,,,,,,,,,,,,,,,,,,,,,,,,,,,,,,,,,,,0.005,,,,,,,,,,,,,,,,,,,,,,,,,,,,right,1,70,30,100,1,2443.694852,2443.694852,2443.694852,None,None,1,1,0.8071728,,,,,,,,,,,,,,,,,,,,,,10,11,2,2024-11-01_12h55.48.067,uWM_experiment,2022.2.3,59.99811606
,,,,,,,,,,,,,,,,,,,,7,0,7,0,10,0,10,0,,,,,,,,,,,,,,,,,,,,,,,,,,,,,,,,,,,,,,,,,,,,,,,,,,,,,,,,,,,,,,,,,,,,,,0.015,,,,,,,,,,,,,,,,,,,,,,,,,,,,left,1,10,-30,-20,1,2450.245098,2450.245098,2450.245098,None,None,1,1,0.4728641,,,,,,,,,,,,,,,,,,,,,,10,11,2,2024-11-01_12h55.48.067,uWM_experiment,2022.2.3,59.99811606
,,,,,,,,,,,,,,,,,,,,7,0,7,0,11,0,11,0,,,,,,,,,,,,,,,,,,,,,,,,,,,,,,,,,,,,,,,,,,,,,,,,,,,,,,,,,,,,,,,,,,,,,,0.1,,,,,,,,,,,,,,,,,,,,,,,,,,,,right,1,70,30,100,2,2457.045362,2457.045362,2457.045362,None,None,4,0,0.4805929,,,,,,,,,,,,,,,,,,,,,,10,11,2,2024-11-01_12h55.48.067,uWM_experiment,2022.2.3,59.99811606
,,,,,,,,,,,,,,,,,,,,7,0,7,0,12,0,12,0,,,,,,,,,,,,,,,,,,,,,,,,,,,,,,,,,,,,,,,,,,,,,,,,,,,,,,,,,,,,,,,,,,,,,,0,,,,,,,,,,,,,,,,,,,,,,,,,,,,right,0,100,-30,70,0,2463.495617,2463.495617,2463.495617,None,None,2,0,0.9822662,,,,,,,,,,,,,,,,,,,,,,10,11,2,2024-11-01_12h55.48.067,uWM_experiment,2022.2.3,59.99811606
,,,,,,,,,,,,,,,,,,,,7,0,7,0,13,0,13,0,,,,,,,,,,,,,,,,,,,,,,,,,,,,,,,,,,,,,,,,,,,,,,,,,,,,,,,,,,,,,,,,,,,,,,0.025,,,,,,,,,,,,,,,,,,,,,,,,,,,,right,1,10,30,40,1,2470.729236,2470.729236,2470.729236,None,None,3,0,0.5005599,,,,,,,,,,,,,,,,,,,,,,10,11,2,2024-11-01_12h55.48.067,uWM_experiment,2022.2.3,59.99811606
,,,,,,,,,,,,,,,,,,,,7,0,7,0,14,0,14,0,,,,,,,,,,,,,,,,,,,,,,,,,,,,,,,,,,,,,,,,,,,,,,,,,,,,,,,,,,,,,,,,,,,,,,0.015,,,,,,,,,,,,,,,,,,,,,,,,,,,,left,1,100,-30,70,1,2477.429535,2477.429535,2477.429535,None,None,2,0,1.6083611,,,,,,,,,,,,,,,,,,,,,,10,11,2,2024-11-01_12h55.48.067,uWM_experiment,2022.2.3,59.99811606
,,,,,,,,,,,,,,,,,,,,7,0,7,0,15,0,15,0,,,,,,,,,,,,,,,,,,,,,,,,,,,,,,,,,,,,,,,,,,,,,,,,,,,,,,,,,,,,,,,,,,,,,,0,,,,,,,,,,,,,,,,,,,,,,,,,,,,left,1,40,-30,10,0,2485.213167,2485.213167,2485.213167,None,None,2,0,0.5045511,,,,,,,,,,,,,,,,,,,,,,10,11,2,2024-11-01_12h55.48.067,uWM_experiment,2022.2.3,59.99811606
,,,,,,,,,,,,,,,,,,,,7,0,7,0,16,0,16,0,,,,,,,,,,,,,,,,,,,,,,,,,,,,,,,,,,,,,,,,,,,,,,,,,,,,,,,,,,,,,,,,,,,,,,0.1,,,,,,,,,,,,,,,,,,,,,,,,,,,,left,1,10,-30,-20,2,2492.280134,2492.280134,2492.280134,None,None,4,0,15.5576934,,,,,,,,,,,,,,,,,,,,,,10,11,2,2024-11-01_12h55.48.067,uWM_experiment,2022.2.3,59.99811606
,,,,,,,,,,,,,,,,,,,,7,0,7,0,17,0,17,0,,,,,,,,,,,,,,,,,,,,,,,,,,,,,,,,,,,,,,,,,,,,,,,,,,,,,,,,,,,,,,,,,,,,,,0,,,,,,,,,,,,,,,,,,,,,,,,,,,,left,1,160,-30,130,0,2514.381027,2514.381027,2514.381027,None,None,3,0,0.8086963,,,,,,,,,,,,,,,,,,,,,,10,11,2,2024-11-01_12h55.48.067,uWM_experiment,2022.2.3,59.99811606
,,,,,,,,,,,,,,,,,,,,7,0,7,0,18,0,18,0,,,,,,,,,,,,,,,,,,,,,,,,,,,,,,,,,,,,,,,,,,,,,,,,,,,,,,,,,,,,,,,,,,,,,,0.005,,,,,,,,,,,,,,,,,,,,,,,,,,,,left,1,40,-30,10,1,2521.231284,2521.231284,2521.231284,None,None,3,0,1.1903677,,,,,,,,,,,,,,,,,,,,,,10,11,2,2024-11-01_12h55.48.067,uWM_experiment,2022.2.3,59.99811606
,,,,,,,,,,,,,,,,,,,,7,0,7,0,19,0,19,0,,,,,,,,,,,,,,,,,,,,,,,,,,,,,,,,,,,,,,,,,,,,,,,,,,,,,,,,,,,,,,,,,,,,,,0,,,,,,,,,,,,,,,,,,,,,,,,,,,,left,1,40,-30,10,0,2528.598264,2528.598264,2528.598264,None,None,2,0,0.5353165,,,,,,,,,,,,,,,,,,,,,,10,11,2,2024-11-01_12h55.48.067,uWM_experiment,2022.2.3,59.99811606
,,,,,,,,,,,,,,,,,,,,7,0,7,0,20,0,20,0,,,,,,,,,,,,,,,,,,,,,,,,,,,,,,,,,,,,,,,,,,,,,,,,,,,,,,,,,,,,,,,,,,,,,,0.005,,,,,,,,,,,,,,,,,,,,,,,,,,,,left,0,130,30,160,1,2536.331905,2536.331905,2536.331905,None,None,1,1,1.1617231,,,,,,,,,,,,,,,,,,,,,,10,11,2,2024-11-01_12h55.48.067,uWM_experiment,2022.2.3,59.99811606
,,,,,,,,,,,,,,,,,,,,7,0,7,0,21,0,21,0,,,,,,,,,,,,,,,,,,,,,,,,,,,,,,,,,,,,,,,,,,,,,,,,,,,,,,,,,,,,,,,,,,,,,,0.015,,,,,,,,,,,,,,,,,,,,,,,,,,,,left,0,70,30,100,1,2543.848869,2543.848869,2543.848869,None,None,1,1,0.4127115,,,,,,,,,,,,,,,,,,,,,,10,11,2,2024-11-01_12h55.48.067,uWM_experiment,2022.2.3,59.99811606
,,,,,,,,,,,,,,,,,,,,7,0,7,0,22,0,22,0,,,,,,,,,,,,,,,,,,,,,,,,,,,,,,,,,,,,,,,,,,,,,,,,,,,,,,,,,,,,,,,,,,,,,,0.025,,,,,,,,,,,,,,,,,,,,,,,,,,,,left,0,40,30,70,1,2550.132452,2550.132452,2550.132452,None,None,1,1,0.3772079,,,,,,,,,,,,,,,,,,,,,,10,11,2,2024-11-01_12h55.48.067,uWM_experiment,2022.2.3,59.99811606
,,,,,,,,,,,,,,,,,,,,7,0,7,0,23,0,23,0,,,,,,,,,,,,,,,,,,,,,,,,,,,,,,,,,,,,,,,,,,,,,,,,,,,,,,,,,,,,,,,,,,,,,,0.035,,,,,,,,,,,,,,,,,,,,,,,,,,,,right,1,10,30,40,1,2556.899418,2556.899418,2556.899418,None,None,2,0,0.5942067,,,,,,,,,,,,,,,,,,,,,,10,11,2,2024-11-01_12h55.48.067,uWM_experiment,2022.2.3,59.99811606
,,,,,,,,,,,,,,,,,,,,7,0,7,0,,,,,0,0,0,0,,,,,,,,,,,,,,,,,,,,,,,,,,,,,,,,,,,,,,,,,,,,,,,,,,,,,,,,,,,,,,,,,,,,,,,,,,,,,,,,,,,,,,,,,,,,,,,,,,,,,,,,,,,,2557.516081,2557.516081,space,53.6892155,None,None,,,,,,,,,,,,,,,,10,11,2,2024-11-01_12h55.48.067,uWM_experiment,2022.2.3,59.99811606
,,,,,,,,,,,,,,,,,,,,7,0,7,0,,,,,1,0,1,0,,,,,,,,,,,,,,,,,,,,,,,,,,,,,,,,,,,,,,,,,,,,,,,,,,,,,,,,,,,,,,,,,,,,,,,,,,,,,,,,,,,,,,,,,,,,,,,,,,,,,,,,,,,,,,,,,,,,,,,,,,,,,,,,,10,11,2,2024-11-01_12h55.48.067,uWM_experiment,2022.2.3,59.99811606
,,,,,,,,,,,,,,,,,,,,7,0,7,0,,,,,2,0,2,0,,,,,,,,,,,,,,,,,,,,,,,,,,,,,,,,,,,,,,,,,,,,,,,,,,,,,,,,,,,,,,,,,,,,,,,,,,,,,,,,,,,,,,,,,,,,,,,,,,,,,,,,,,,,,,,,,,,,,,,,,,,,,,,,,10,11,2,2024-11-01_12h55.48.067,uWM_experiment,2022.2.3,59.99811606
,,,,,,,,,,,,,,,,,,,,8,0,8,0,0,0,0,0,,,,,,,,,,,,,,,,,,,,,,,,,,,,,,,,,,,,,,,,,,,,,,,,,,,,,,,,,,,,,,,,,,,,,,0.025,,,,,,,,,,,,,,,,,,,,2611.234903,2611.934929,2612.234946,2612.934971,2613.234982,2613.935017,2613.935017,2614.2517,left,1,160,-30,130,1,2619.968711,2619.968711,2619.968711,None,None,1,1,0.4926245,,,,,,,None,,,,,,,,,,,,,,,10,11,2,2024-11-01_12h55.48.067,uWM_experiment,2022.2.3,59.99811606
,,,,,,,,,,,,,,,,,,,,8,0,8,0,1,0,1,0,,,,,,,,,,,,,,,,,,,,,,,,,,,,,,,,,,,,,,,,,,,,,,,,,,,,,,,,,,,,,,,,,,,,,,0.035,,,,,,,,,,,,,,,,,,,,,,,,,,,,right,1,160,30,190,1,2626.152177,2626.152177,2626.152177,None,None,3,0,0.8131089,,,,,,,,,,,,,,,,,,,,,,10,11,2,2024-11-01_12h55.48.067,uWM_experiment,2022.2.3,59.99811606
,,,,,,,,,,,,,,,,,,,,8,0,8,0,2,0,2,0,,,,,,,,,,,,,,,,,,,,,,,,,,,,,,,,,,,,,,,,,,,,,,,,,,,,,,,,,,,,,,,,,,,,,,0,,,,,,,,,,,,,,,,,,,,,,,,,,,,left,1,100,-30,70,0,2633.719128,2633.719128,2633.719128,None,None,2,0,0.4700661,,,,,,,,,,,,,,,,,,,,,,10,11,2,2024-11-01_12h55.48.067,uWM_experiment,2022.2.3,59.99811606
,,,,,,,,,,,,,,,,,,,,8,0,8,0,3,0,3,0,,,,,,,,,,,,,,,,,,,,,,,,,,,,,,,,,,,,,,,,,,,,,,,,,,,,,,,,,,,,,,,,,,,,,,0.025,,,,,,,,,,,,,,,,,,,,,,,,,,,,left,1,40,-30,10,1,2640.352746,2640.352746,2640.352746,None,None,2,0,1.4203867,,,,,,,,,,,,,,,,,,,,,,10,11,2,2024-11-01_12h55.48.067,uWM_experiment,2022.2.3,59.99811606
,,,,,,,,,,,,,,,,,,,,8,0,8,0,4,0,4,0,,,,,,,,,,,,,,,,,,,,,,,,,,,,,,,,,,,,,,,,,,,,,,,,,,,,,,,,,,,,,,,,,,,,,,0.015,,,,,,,,,,,,,,,,,,,,,,,,,,,,left,1,10,-30,-20,1,2647.769708,2647.769708,2647.769708,None,None,3,0,1.1553868,,,,,,,,,,,,,,,,,,,,,,10,11,2,2024-11-01_12h55.48.067,uWM_experiment,2022.2.3,59.99811606
,,,,,,,,,,,,,,,,,,,,8,0,8,0,5,0,5,0,,,,,,,,,,,,,,,,,,,,,,,,,,,,,,,,,,,,,,,,,,,,,,,,,,,,,,,,,,,,,,,,,,,,,,0.005,,,,,,,,,,,,,,,,,,,,,,,,,,,,left,0,10,30,40,1,2657.353407,2657.353407,2657.353407,None,None,3,0,0.4597015,,,,,,,,,,,,,,,,,,,,,,10,11,2,2024-11-01_12h55.48.067,uWM_experiment,2022.2.3,59.99811606
,,,,,,,,,,,,,,,,,,,,8,0,8,0,6,0,6,0,,,,,,,,,,,,,,,,,,,,,,,,,,,,,,,,,,,,,,,,,,,,,,,,,,,,,,,,,,,,,,,,,,,,,,0.005,,,,,,,,,,,,,,,,,,,,,,,,,,,,right,1,100,30,130,1,2666.437125,2666.437125,2666.437125,None,None,3,0,0.6159617,,,,,,,,,,,,,,,,,,,,,,10,11,2,2024-11-01_12h55.48.067,uWM_experiment,2022.2.3,59.99811606
,,,,,,,,,,,,,,,,,,,,8,0,8,0,7,0,7,0,,,,,,,,,,,,,,,,,,,,,,,,,,,,,,,,,,,,,,,,,,,,,,,,,,,,,,,,,,,,,,,,,,,,,,0,,,,,,,,,,,,,,,,,,,,,,,,,,,,left,1,100,-30,70,0,2673.504072,2673.504072,2673.504072,None,None,2,0,0.6290873,,,,,,,,,,,,,,,,,,,,,,10,11,2,2024-11-01_12h55.48.067,uWM_experiment,2022.2.3,59.99811606
,,,,,,,,,,,,,,,,,,,,8,0,8,0,8,0,8,0,,,,,,,,,,,,,,,,,,,,,,,,,,,,,,,,,,,,,,,,,,,,,,,,,,,,,,,,,,,,,,,,,,,,,,0.005,,,,,,,,,,,,,,,,,,,,,,,,,,,,left,0,160,30,190,1,2680.171008,2680.171008,2680.171008,None,None,2,0,0.4260386,,,,,,,,,,,,,,,,,,,,,,10,11,2,2024-11-01_12h55.48.067,uWM_experiment,2022.2.3,59.99811606
,,,,,,,,,,,,,,,,,,,,8,0,8,0,9,0,9,0,,,,,,,,,,,,,,,,,,,,,,,,,,,,,,,,,,,,,,,,,,,,,,,,,,,,,,,,,,,,,,,,,,,,,,0.005,,,,,,,,,,,,,,,,,,,,,,,,,,,,left,1,130,-30,100,1,2688.30468,2688.30468,2688.30468,None,None,1,1,0.4202583,,,,,,,,,,,,,,,,,,,,,,10,11,2,2024-11-01_12h55.48.067,uWM_experiment,2022.2.3,59.99811606
,,,,,,,,,,,,,,,,,,,,8,0,8,0,10,0,10,0,,,,,,,,,,,,,,,,,,,,,,,,,,,,,,,,,,,,,,,,,,,,,,,,,,,,,,,,,,,,,,,,,,,,,,0,,,,,,,,,,,,,,,,,,,,,,,,,,,,left,1,100,-30,70,0,2695.871635,2695.871635,2695.871635,None,None,2,0,1.4852841,,,,,,,,,,,,,,,,,,,,,,10,11,2,2024-11-01_12h55.48.067,uWM_experiment,2022.2.3,59.99811606
,,,,,,,,,,,,,,,,,,,,8,0,8,0,11,0,11,0,,,,,,,,,,,,,,,,,,,,,,,,,,,,,,,,,,,,,,,,,,,,,,,,,,,,,,,,,,,,,,,,,,,,,,0,,,,,,,,,,,,,,,,,,,,,,,,,,,,left,0,130,30,160,0,2703.405292,2703.405292,2703.405292,None,None,1,1,0.4397555,,,,,,,,,,,,,,,,,,,,,,10,11,2,2024-11-01_12h55.48.067,uWM_experiment,2022.2.3,59.99811606
,,,,,,,,,,,,,,,,,,,,8,0,8,0,12,0,12,0,,,,,,,,,,,,,,,,,,,,,,,,,,,,,,,,,,,,,,,,,,,,,,,,,,,,,,,,,,,,,,,,,,,,,,0.015,,,,,,,,,,,,,,,,,,,,,,,,,,,,right,0,130,-30,100,1,2710.455566,2710.455566,2710.455566,None,None,1,1,1.061372,,,,,,,,,,,,,,,,,,,,,,10,11,2,2024-11-01_12h55.48.067,uWM_experiment,2022.2.3,59.99811606
,,,,,,,,,,,,,,,,,,,,8,0,8,0,13,0,13,0,,,,,,,,,,,,,,,,,,,,,,,,,,,,,,,,,,,,,,,,,,,,,,,,,,,,,,,,,,,,,,,,,,,,,,0,,,,,,,,,,,,,,,,,,,,,,,,,,,,left,0,130,30,160,0,2717.405834,2717.405834,2717.405834,None,None,3,0,2.9030081,,,,,,,,,,,,,,,,,,,,,,10,11,2,2024-11-01_12h55.48.067,uWM_experiment,2022.2.3,59.99811606
,,,,,,,,,,,,,,,,,,,,8,0,8,0,14,0,14,0,,,,,,,,,,,,,,,,,,,,,,,,,,,,,,,,,,,,,,,,,,,,,,,,,,,,,,,,,,,,,,,,,,,,,,0.025,,,,,,,,,,,,,,,,,,,,,,,,,,,,right,0,100,-30,70,1,2727.256236,2727.256236,2727.256236,None,None,1,1,0.4285899,,,,,,,,,,,,,,,,,,,,,,10,11,2,2024-11-01_12h55.48.067,uWM_experiment,2022.2.3,59.99811606
,,,,,,,,,,,,,,,,,,,,8,0,8,0,15,0,15,0,,,,,,,,,,,,,,,,,,,,,,,,,,,,,,,,,,,,,,,,,,,,,,,,,,,,,,,,,,,,,,,,,,,,,,0.035,,,,,,,,,,,,,,,,,,,,,,,,,,,,right,1,100,30,130,1,2736.223256,2736.223256,2736.223256,None,None,3,0,1.3816535,,,,,,,,,,,,,,,,,,,,,,10,11,2,2024-11-01_12h55.48.067,uWM_experiment,2022.2.3,59.99811606
,,,,,,,,,,,,,,,,,,,,8,0,8,0,16,0,16,0,,,,,,,,,,,,,,,,,,,,,,,,,,,,,,,,,,,,,,,,,,,,,,,,,,,,,,,,,,,,,,,,,,,,,,0.025,,,,,,,,,,,,,,,,,,,,,,,,,,,,right,1,40,30,70,1,2745.173621,2745.173621,2745.173621,None,None,1,1,0.5832684,,,,,,,,,,,,,,,,,,,,,,10,11,2,2024-11-01_12h55.48.067,uWM_experiment,2022.2.3,59.99811606
,,,,,,,,,,,,,,,,,,,,8,0,8,0,17,0,17,0,,,,,,,,,,,,,,,,,,,,,,,,,,,,,,,,,,,,,,,,,,,,,,,,,,,,,,,,,,,,,,,,,,,,,,0.035,,,,,,,,,,,,,,,,,,,,,,,,,,,,left,0,70,30,100,1,2751.973875,2751.973875,2751.973875,None,None,1,1,0.6708623,,,,,,,,,,,,,,,,,,,,,,10,11,2,2024-11-01_12h55.48.067,uWM_experiment,2022.2.3,59.99811606
,,,,,,,,,,,,,,,,,,,,8,0,8,0,18,0,18,0,,,,,,,,,,,,,,,,,,,,,,,,,,,,,,,,,,,,,,,,,,,,,,,,,,,,,,,,,,,,,,,,,,,,,,0.045,,,,,,,,,,,,,,,,,,,,,,,,,,,,right,1,100,30,130,1,2758.557514,2758.557514,2758.557514,None,None,2,0,2.2473088,,,,,,,,,,,,,,,,,,,,,,10,11,2,2024-11-01_12h55.48.067,uWM_experiment,2022.2.3,59.99811606
,,,,,,,,,,,,,,,,,,,,8,0,8,0,19,0,19,0,,,,,,,,,,,,,,,,,,,,,,,,,,,,,,,,,,,,,,,,,,,,,,,,,,,,,,,,,,,,,,,,,,,,,,0.035,,,,,,,,,,,,,,,,,,,,,,,,,,,,left,1,130,-30,100,1,2766.824497,2766.824497,2766.824497,None,None,2,0,1.8601956,,,,,,,,,,,,,,,,,,,,,,10,11,2,2024-11-01_12h55.48.067,uWM_experiment,2022.2.3,59.99811606
,,,,,,,,,,,,,,,,,,,,8,0,8,0,20,0,20,0,,,,,,,,,,,,,,,,,,,,,,,,,,,,,,,,,,,,,,,,,,,,,,,,,,,,,,,,,,,,,,,,,,,,,,0.025,,,,,,,,,,,,,,,,,,,,,,,,,,,,left,1,40,-30,10,1,2774.758136,2774.758136,2774.758136,None,None,2,0,0.7664508,,,,,,,,,,,,,,,,,,,,,,10,11,2,2024-11-01_12h55.48.067,uWM_experiment,2022.2.3,59.99811606
,,,,,,,,,,,,,,,,,,,,8,0,8,0,21,0,21,0,,,,,,,,,,,,,,,,,,,,,,,,,,,,,,,,,,,,,,,,,,,,,,,,,,,,,,,,,,,,,,,,,,,,,,0.015,,,,,,,,,,,,,,,,,,,,,,,,,,,,right,0,130,-30,100,1,2783.358479,2783.358479,2783.358479,None,None,1,1,1.3422543,,,,,,,,,,,,,,,,,,,,,,10,11,2,2024-11-01_12h55.48.067,uWM_experiment,2022.2.3,59.99811606
,,,,,,,,,,,,,,,,,,,,8,0,8,0,22,0,22,0,,,,,,,,,,,,,,,,,,,,,,,,,,,,,,,,,,,,,,,,,,,,,,,,,,,,,,,,,,,,,,,,,,,,,,0,,,,,,,,,,,,,,,,,,,,,,,,,,,,left,0,160,30,190,0,2793.908934,2793.908934,2793.908934,None,None,2,0,3.343716,,,,,,,,,,,,,,,,,,,,,,10,11,2,2024-11-01_12h55.48.067,uWM_experiment,2022.2.3,59.99811606
,,,,,,,,,,,,,,,,,,,,8,0,8,0,23,0,23,0,,,,,,,,,,,,,,,,,,,,,,,,,,,,,,,,,,,,,,,,,,,,,,,,,,,,,,,,,,,,,,,,,,,,,,0.025,,,,,,,,,,,,,,,,,,,,,,,,,,,,right,1,70,30,100,1,2805.026024,2805.026024,2805.026024,None,None,1,1,1.6586238,,,,,,,,,,,,,,,,,,,,,,10,11,2,2024-11-01_12h55.48.067,uWM_experiment,2022.2.3,59.99811606
,,,,,,,,,,,,,,,,,,,,8,0,8,0,,,,,0,0,0,0,,,,,,,,,,,,,,,,,,,,,,,,,,,,,,,,,,,,,,,,,,,,,,,,,,,,,,,,,,,,,,,,,,,,,,,,,,,,,,,,,,,,,,,,,,,,,,,,,,,,,,,,,,,,2806.709417,2806.709417,space,64.470909,space,None,,2871.212009,2871.212009,24.560243,,,,,,,,,,,,10,11,2,2024-11-01_12h55.48.067,uWM_experiment,2022.2.3,59.99811606
,,,,,,,,,,,,,,,,,,,,8,0,8,0,,,,,1,0,1,0,,,,,,,,,,,,,,,,,,,,,,,,,,,,,,,,,,,,,,,,,,,,,,,,,,,,,,,,,,,,,,,,,,,,,,,,,,,,,,,,,,,,,,,,,,,,,,,,,,,,,,,,,,,,,,,,,,,,,,,,,,,,,,,,,10,11,2,2024-11-01_12h55.48.067,uWM_experiment,2022.2.3,59.99811606
,,,,,,,,,,,,,,,,,,,,8,0,8,0,,,,,2,0,2,0,,,,,,,,,,,,,,,,,,,,,,,,,,,,,,,,,,,,,,,,,,,,,,,,,,,,,,,,,,,,,,,,,,,,,,,,,,,,,,,,,,,,,,,,,,,,,,,,,,,,,,,,,,,,,,,,,,,,,,,,,,,,,,,,,10,11,2,2024-11-01_12h55.48.067,uWM_experiment,2022.2.3,59.99811606
,,,,,,,,,,,,,,,,,,,,9,0,9,0,0,0,0,0,,,,,,,,,,,,,,,,,,,,,,,,,,,,,,,,,,,,,,,,,,,,,,,,,,,,,,,,,,,,,,,,,,,,,,0.1,,,,,,,,,,,,,,,,,,,,2895.796326,2896.496355,2896.796367,2897.496374,2897.796411,2898.496435,2898.496435,2898.813124,left,1,10,-30,-20,2,2904.196689,2904.196689,2904.196689,None,None,4,0,0.6955886,,,,,,,None,,,,,,,,,,,,,,,10,11,2,2024-11-01_12h55.48.067,uWM_experiment,2022.2.3,59.99811606
,,,,,,,,,,,,,,,,,,,,9,0,9,0,1,0,1,0,,,,,,,,,,,,,,,,,,,,,,,,,,,,,,,,,,,,,,,,,,,,,,,,,,,,,,,,,,,,,,,,,,,,,,0,,,,,,,,,,,,,,,,,,,,,,,,,,,,right,0,70,-30,40,0,2910.646931,2910.646931,2910.646931,None,None,3,0,1.0772637,,,,,,,,,,,,,,,,,,,,,,10,11,2,2024-11-01_12h55.48.067,uWM_experiment,2022.2.3,59.99811606
,,,,,,,,,,,,,,,,,,,,9,0,9,0,2,0,2,0,,,,,,,,,,,,,,,,,,,,,,,,,,,,,,,,,,,,,,,,,,,,,,,,,,,,,,,,,,,,,,,,,,,,,,0.035,,,,,,,,,,,,,,,,,,,,,,,,,,,,left,1,10,-30,-20,1,2917.647211,2917.647211,2917.647211,None,None,3,0,0.4849154,,,,,,,,,,,,,,,,,,,,,,10,11,2,2024-11-01_12h55.48.067,uWM_experiment,2022.2.3,59.99811606
,,,,,,,,,,,,,,,,,,,,9,0,9,0,3,0,3,0,,,,,,,,,,,,,,,,,,,,,,,,,,,,,,,,,,,,,,,,,,,,,,,,,,,,,,,,,,,,,,,,,,,,,,0.025,,,,,,,,,,,,,,,,,,,,,,,,,,,,left,0,100,30,130,1,2923.980787,2923.980787,2923.980787,None,None,2,0,0.5672905,,,,,,,,,,,,,,,,,,,,,,10,11,2,2024-11-01_12h55.48.067,uWM_experiment,2022.2.3,59.99811606
,,,,,,,,,,,,,,,,,,,,9,0,9,0,4,0,4,0,,,,,,,,,,,,,,,,,,,,,,,,,,,,,,,,,,,,,,,,,,,,,,,,,,,,,,,,,,,,,,,,,,,,,,0.015,,,,,,,,,,,,,,,,,,,,,,,,,,,,right,1,40,30,70,1,2930.014361,2930.014361,2930.014361,None,None,1,1,0.4057038,,,,,,,,,,,,,,,,,,,,,,10,11,2,2024-11-01_12h55.48.067,uWM_experiment,2022.2.3,59.99811606
,,,,,,,,,,,,,,,,,,,,9,0,9,0,5,0,5,0,,,,,,,,,,,,,,,,,,,,,,,,,,,,,,,,,,,,,,,,,,,,,,,,,,,,,,,,,,,,,,,,,,,,,,0.025,,,,,,,,,,,,,,,,,,,,,,,,,,,,right,1,130,30,160,1,2936.414622,2936.414622,2936.414622,None,None,2,0,1.0294902,,,,,,,,,,,,,,,,,,,,,,10,11,2,2024-11-01_12h55.48.067,uWM_experiment,2022.2.3,59.99811606
,,,,,,,,,,,,,,,,,,,,9,0,9,0,6,0,6,0,,,,,,,,,,,,,,,,,,,,,,,,,,,,,,,,,,,,,,,,,,,,,,,,,,,,,,,,,,,,,,,,,,,,,,0.015,,,,,,,,,,,,,,,,,,,,,,,,,,,,right,0,40,-30,10,1,2944.314951,2944.314951,2944.314951,None,None,2,0,0.4891123,,,,,,,,,,,,,,,,,,,,,,10,11,2,2024-11-01_12h55.48.067,uWM_experiment,2022.2.3,59.99811606
,,,,,,,,,,,,,,,,,,,,9,0,9,0,7,0,7,0,,,,,,,,,,,,,,,,,,,,,,,,,,,,,,,,,,,,,,,,,,,,,,,,,,,,,,,,,,,,,,,,,,,,,,0,,,,,,,,,,,,,,,,,,,,,,,,,,,,right,0,40,-30,10,0,2951.098571,2951.098571,2951.098571,None,None,2,0,0.5455503,,,,,,,,,,,,,,,,,,,,,,10,11,2,2024-11-01_12h55.48.067,uWM_experiment,2022.2.3,59.99811606
,,,,,,,,,,,,,,,,,,,,9,0,9,0,8,0,8,0,,,,,,,,,,,,,,,,,,,,,,,,,,,,,,,,,,,,,,,,,,,,,,,,,,,,,,,,,,,,,,,,,,,,,,0,,,,,,,,,,,,,,,,,,,,,,,,,,,,right,1,10,30,40,0,2957.632138,2957.632138,2957.632138,None,None,2,0,0.4918948,,,,,,,,,,,,,,,,,,,,,,10,11,2,2024-11-01_12h55.48.067,uWM_experiment,2022.2.3,59.99811606
,,,,,,,,,,,,,,,,,,,,9,0,9,0,9,0,9,0,,,,,,,,,,,,,,,,,,,,,,,,,,,,,,,,,,,,,,,,,,,,,,,,,,,,,,,,,,,,,,,,,,,,,,0.005,,,,,,,,,,,,,,,,,,,,,,,,,,,,right,1,10,30,40,1,2964.232404,2964.232404,2964.232404,None,None,2,0,0.667634,,,,,,,,,,,,,,,,,,,,,,10,11,2,2024-11-01_12h55.48.067,uWM_experiment,2022.2.3,59.99811606
,,,,,,,,,,,,,,,,,,,,9,0,9,0,10,0,10,0,,,,,,,,,,,,,,,,,,,,,,,,,,,,,,,,,,,,,,,,,,,,,,,,,,,,,,,,,,,,,,,,,,,,,,0.005,,,,,,,,,,,,,,,,,,,,,,,,,,,,right,1,40,30,70,1,2971.982746,2971.982746,2971.982746,None,None,2,0,1.6531246,,,,,,,,,,,,,,,,,,,,,,10,11,2,2024-11-01_12h55.48.067,uWM_experiment,2022.2.3,59.99811606
,,,,,,,,,,,,,,,,,,,,9,0,9,0,11,0,11,0,,,,,,,,,,,,,,,,,,,,,,,,,,,,,,,,,,,,,,,,,,,,,,,,,,,,,,,,,,,,,,,,,,,,,,0,,,,,,,,,,,,,,,,,,,,,,,,,,,,right,1,160,30,190,0,2980.849765,2980.849765,2980.849765,None,None,1,1,1.2902154,,,,,,,,,,,,,,,,,,,,,,10,11,2,2024-11-01_12h55.48.067,uWM_experiment,2022.2.3,59.99811606
,,,,,,,,,,,,,,,,,,,,9,0,9,0,12,0,12,0,,,,,,,,,,,,,,,,,,,,,,,,,,,,,,,,,,,,,,,,,,,,,,,,,,,,,,,,,,,,,,,,,,,,,,0.1,,,,,,,,,,,,,,,,,,,,,,,,,,,,left,1,160,-30,130,2,2988.35005,2988.35005,2988.35005,None,None,4,0,0.9737924,,,,,,,,,,,,,,,,,,,,,,10,11,2,2024-11-01_12h55.48.067,uWM_experiment,2022.2.3,59.99811606
,,,,,,,,,,,,,,,,,,,,9,0,9,0,13,0,13,0,,,,,,,,,,,,,,,,,,,,,,,,,,,,,,,,,,,,,,,,,,,,,,,,,,,,,,,,,,,,,,,,,,,,,,0.005,,,,,,,,,,,,,,,,,,,,,,,,,,,,left,0,70,30,100,1,2995.783685,2995.783685,2995.783685,None,None,2,0,0.6761317,,,,,,,,,,,,,,,,,,,,,,10,11,2,2024-11-01_12h55.48.067,uWM_experiment,2022.2.3,59.99811606
,,,,,,,,,,,,,,,,,,,,9,0,9,0,14,0,14,0,,,,,,,,,,,,,,,,,,,,,,,,,,,,,,,,,,,,,,,,,,,,,,,,,,,,,,,,,,,,,,,,,,,,,,0.005,,,,,,,,,,,,,,,,,,,,,,,,,,,,left,0,10,30,40,1,3003.267296,3003.267296,3003.267296,None,None,2,0,0.9605812,,,,,,,,,,,,,,,,,,,,,,10,11,2,2024-11-01_12h55.48.067,uWM_experiment,2022.2.3,59.99811606
,,,,,,,,,,,,,,,,,,,,9,0,9,0,15,0,15,0,,,,,,,,,,,,,,,,,,,,,,,,,,,,,,,,,,,,,,,,,,,,,,,,,,,,,,,,,,,,,,,,,,,,,,0.005,,,,,,,,,,,,,,,,,,,,,,,,,,,,right,0,100,-30,70,1,3012.167661,3012.167661,3012.167661,None,None,2,0,1.452052,,,,,,,,,,,,,,,,,,,,,,10,11,2,2024-11-01_12h55.48.067,uWM_experiment,2022.2.3,59.99811606
,,,,,,,,,,,,,,,,,,,,9,0,9,0,16,0,16,0,,,,,,,,,,,,,,,,,,,,,,,,,,,,,,,,,,,,,,,,,,,,,,,,,,,,,,,,,,,,,,,,,,,,,,0.005,,,,,,,,,,,,,,,,,,,,,,,,,,,,right,0,130,-30,100,1,3019.567965,3019.567965,3019.567965,None,None,1,1,0.9077319,,,,,,,,,,,,,,,,,,,,,,10,11,2,2024-11-01_12h55.48.067,uWM_experiment,2022.2.3,59.99811606
,,,,,,,,,,,,,,,,,,,,9,0,9,0,17,0,17,0,,,,,,,,,,,,,,,,,,,,,,,,,,,,,,,,,,,,,,,,,,,,,,,,,,,,,,,,,,,,,,,,,,,,,,0.1,,,,,,,,,,,,,,,,,,,,,,,,,,,,left,1,100,-30,70,2,3028.201643,3028.201643,3028.201643,None,None,4,0,0.522006,,,,,,,,,,,,,,,,,,,,,,10,11,2,2024-11-01_12h55.48.067,uWM_experiment,2022.2.3,59.99811606
,,,,,,,,,,,,,,,,,,,,9,0,9,0,18,0,18,0,,,,,,,,,,,,,,,,,,,,,,,,,,,,,,,,,,,,,,,,,,,,,,,,,,,,,,,,,,,,,,,,,,,,,,0.015,,,,,,,,,,,,,,,,,,,,,,,,,,,,left,0,160,30,190,1,3035.151906,3035.151906,3035.151906,None,None,1,1,1.9398049,,,,,,,,,,,,,,,,,,,,,,10,11,2,2024-11-01_12h55.48.067,uWM_experiment,2022.2.3,59.99811606
,,,,,,,,,,,,,,,,,,,,9,0,9,0,19,0,19,0,,,,,,,,,,,,,,,,,,,,,,,,,,,,,,,,,,,,,,,,,,,,,,,,,,,,,,,,,,,,,,,,,,,,,,0.025,,,,,,,,,,,,,,,,,,,,,,,,,,,,left,1,40,-30,10,1,3043.085568,3043.085568,3043.085568,None,None,2,0,0.6940621,,,,,,,,,,,,,,,,,,,,,,10,11,2,2024-11-01_12h55.48.067,uWM_experiment,2022.2.3,59.99811606
,,,,,,,,,,,,,,,,,,,,9,0,9,0,20,0,20,0,,,,,,,,,,,,,,,,,,,,,,,,,,,,,,,,,,,,,,,,,,,,,,,,,,,,,,,,,,,,,,,,,,,,,,0.015,,,,,,,,,,,,,,,,,,,,,,,,,,,,right,0,10,-30,-20,1,3050.985893,3050.985893,3050.985893,None,None,2,0,1.0977527,,,,,,,,,,,,,,,,,,,,,,10,11,2,2024-11-01_12h55.48.067,uWM_experiment,2022.2.3,59.99811606
,,,,,,,,,,,,,,,,,,,,9,0,9,0,21,0,21,0,,,,,,,,,,,,,,,,,,,,,,,,,,,,,,,,,,,,,,,,,,,,,,,,,,,,,,,,,,,,,,,,,,,,,,0.005,,,,,,,,,,,,,,,,,,,,,,,,,,,,right,0,130,-30,100,1,3058.802854,3058.802854,3058.802854,None,None,2,0,1.7526886,,,,,,,,,,,,,,,,,,,,,,10,11,2,2024-11-01_12h55.48.067,uWM_experiment,2022.2.3,59.99811606
,,,,,,,,,,,,,,,,,,,,9,0,9,0,22,0,22,0,,,,,,,,,,,,,,,,,,,,,,,,,,,,,,,,,,,,,,,,,,,,,,,,,,,,,,,,,,,,,,,,,,,,,,0.005,,,,,,,,,,,,,,,,,,,,,,,,,,,,right,1,160,30,190,1,3068.686603,3068.686603,3068.686603,None,None,2,0,1.0688956,,,,,,,,,,,,,,,,,,,,,,10,11,2,2024-11-01_12h55.48.067,uWM_experiment,2022.2.3,59.99811606
,,,,,,,,,,,,,,,,,,,,9,0,9,0,23,0,23,0,,,,,,,,,,,,,,,,,,,,,,,,,,,,,,,,,,,,,,,,,,,,,,,,,,,,,,,,,,,,,,,,,,,,,,0.005,,,,,,,,,,,,,,,,,,,,,,,,,,,,right,1,70,30,100,1,3077.68698,3077.68698,3077.68698,None,None,2,0,1.0365062,,,,,,,,,,,,,,,,,,,,,,10,11,2,2024-11-01_12h55.48.067,uWM_experiment,2022.2.3,59.99811606
,,,,,,,,,,,,,,,,,,,,9,0,9,0,,,,,0,0,0,0,,,,,,,,,,,,,,,,,,,,,,,,,,,,,,,,,,,,,,,,,,,,,,,,,,,,,,,,,,,,,,,,,,,,,,,,,,,,,,,,,,,,,,,,,,,,,,,,,,,,,,,,,,,,3078.753646,3078.753646,space,56.3617197,None,None,,,,,,,,,,,,,,,,10,11,2,2024-11-01_12h55.48.067,uWM_experiment,2022.2.3,59.99811606
,,,,,,,,,,,,,,,,,,,,9,0,9,0,,,,,1,0,1,0,,,,,,,,,,,,,,,,,,,,,,,,,,,,,,,,,,,,,,,,,,,,,,,,,,,,,,,,,,,,,,,,,,,,,,,,,,,,,,,,,,,,,,,,,,,,,,,,,,,,,,,,,,,,,,,,,,,,,,,,,,,,,,,,,10,11,2,2024-11-01_12h55.48.067,uWM_experiment,2022.2.3,59.99811606
,,,,,,,,,,,,,,,,,,,,9,0,9,0,,,,,2,0,2,0,,,,,,,,,,,,,,,,,,,,,,,,,,,,,,,,,,,,,,,,,,,,,,,,,,,,,,,,,,,,,,,,,,,,,,,,,,,,,,,,,,,,,,,,,,,,,,,,,,,,,,,,,,,,,,,,,,,,,,,,,,,,,,,,,10,11,2,2024-11-01_12h55.48.067,uWM_experiment,2022.2.3,59.99811606
,,,,,,,,,,,,,,,,,,,,10,0,10,0,0,0,0,0,,,,,,,,,,,,,,,,,,,,,,,,,,,,,,,,,,,,,,,,,,,,,,,,,,,,,,,,,,,,,,,,,,,,,,0.005,,,,,,,,,,,,,,,,,,,,3135.139262,3135.839288,3136.13929,3136.839329,3137.139335,3137.83937,3137.83937,3138.156068,right,0,40,-30,10,1,3143.05624,3143.05624,3143.05624,None,None,1,1,0.4430694,,,,,,,None,,,,,,,,,,,,,,,10,11,2,2024-11-01_12h55.48.067,uWM_experiment,2022.2.3,59.99811606
,,,,,,,,,,,,,,,,,,,,10,0,10,0,1,0,1,0,,,,,,,,,,,,,,,,,,,,,,,,,,,,,,,,,,,,,,,,,,,,,,,,,,,,,,,,,,,,,,,,,,,,,,0.015,,,,,,,,,,,,,,,,,,,,,,,,,,,,left,1,130,-30,100,1,3149.523197,3149.523197,3149.523197,None,None,1,1,0.5520127,,,,,,,,,,,,,,,,,,,,,,10,11,2,2024-11-01_12h55.48.067,uWM_experiment,2022.2.3,59.99811606
,,,,,,,,,,,,,,,,,,,,10,0,10,0,2,0,2,0,,,,,,,,,,,,,,,,,,,,,,,,,,,,,,,,,,,,,,,,,,,,,,,,,,,,,,,,,,,,,,,,,,,,,,0.025,,,,,,,,,,,,,,,,,,,,,,,,,,,,right,1,40,30,70,1,3155.873425,3155.873425,3155.873425,None,None,2,0,0.4498935,,,,,,,,,,,,,,,,,,,,,,10,11,2,2024-11-01_12h55.48.067,uWM_experiment,2022.2.3,59.99811606
,,,,,,,,,,,,,,,,,,,,10,0,10,0,3,0,3,0,,,,,,,,,,,,,,,,,,,,,,,,,,,,,,,,,,,,,,,,,,,,,,,,,,,,,,,,,,,,,,,,,,,,,,0.015,,,,,,,,,,,,,,,,,,,,,,,,,,,,left,1,70,-30,40,1,3162.957047,3162.957047,3162.957047,None,None,2,0,0.9981483,,,,,,,,,,,,,,,,,,,,,,10,11,2,2024-11-01_12h55.48.067,uWM_experiment,2022.2.3,59.99811606
,,,,,,,,,,,,,,,,,,,,10,0,10,0,4,0,4,0,,,,,,,,,,,,,,,,,,,,,,,,,,,,,,,,,,,,,,,,,,,,,,,,,,,,,,,,,,,,,,,,,,,,,,0.005,,,,,,,,,,,,,,,,,,,,,,,,,,,,left,0,130,30,160,1,3170.107337,3170.107337,3170.107337,None,None,2,0,1.3517787,,,,,,,,,,,,,,,,,,,,,,10,11,2,2024-11-01_12h55.48.067,uWM_experiment,2022.2.3,59.99811606
,,,,,,,,,,,,,,,,,,,,10,0,10,0,5,0,5,0,,,,,,,,,,,,,,,,,,,,,,,,,,,,,,,,,,,,,,,,,,,,,,,,,,,,,,,,,,,,,,,,,,,,,,0.005,,,,,,,,,,,,,,,,,,,,,,,,,,,,left,1,10,-30,-20,1,3177.407632,3177.407632,3177.407632,None,None,2,0,0.6674786,,,,,,,,,,,,,,,,,,,,,,10,11,2,2024-11-01_12h55.48.067,uWM_experiment,2022.2.3,59.99811606
,,,,,,,,,,,,,,,,,,,,10,0,10,0,6,0,6,0,,,,,,,,,,,,,,,,,,,,,,,,,,,,,,,,,,,,,,,,,,,,,,,,,,,,,,,,,,,,,,,,,,,,,,0,,,,,,,,,,,,,,,,,,,,,,,,,,,,right,0,40,-30,10,0,3184.974584,3184.974584,3184.974584,None,None,2,0,0.9884986,,,,,,,,,,,,,,,,,,,,,,10,11,2,2024-11-01_12h55.48.067,uWM_experiment,2022.2.3,59.99811606
,,,,,,,,,,,,,,,,,,,,10,0,10,0,7,0,7,0,,,,,,,,,,,,,,,,,,,,,,,,,,,,,,,,,,,,,,,,,,,,,,,,,,,,,,,,,,,,,,,,,,,,,,0.005,,,,,,,,,,,,,,,,,,,,,,,,,,,,left,0,70,30,100,1,3194.725017,3194.725017,3194.725017,None,None,2,0,1.1581608,,,,,,,,,,,,,,,,,,,,,,10,11,2,2024-11-01_12h55.48.067,uWM_experiment,2022.2.3,59.99811606
,,,,,,,,,,,,,,,,,,,,10,0,10,0,8,0,8,0,,,,,,,,,,,,,,,,,,,,,,,,,,,,,,,,,,,,,,,,,,,,,,,,,,,,,,,,,,,,,,,,,,,,,,0.005,,,,,,,,,,,,,,,,,,,,,,,,,,,,left,0,130,30,160,1,3201.858615,3201.858615,3201.858615,None,None,1,1,0.4083998,,,,,,,,,,,,,,,,,,,,,,10,11,2,2024-11-01_12h55.48.067,uWM_experiment,2022.2.3,59.99811606
,,,,,,,,,,,,,,,,,,,,10,0,10,0,9,0,9,0,,,,,,,,,,,,,,,,,,,,,,,,,,,,,,,,,,,,,,,,,,,,,,,,,,,,,,,,,,,,,,,,,,,,,,0.015,,,,,,,,,,,,,,,,,,,,,,,,,,,,left,1,160,-30,130,1,3207.925507,3207.925507,3207.925507,None,None,1,1,0.3655357,,,,,,,,,,,,,,,,,,,,,,10,11,2,2024-11-01_12h55.48.067,uWM_experiment,2022.2.3,59.99811606
,,,,,,,,,,,,,,,,,,,,10,0,10,0,10,0,10,0,,,,,,,,,,,,,,,,,,,,,,,,,,,,,,,,,,,,,,,,,,,,,,,,,,,,,,,,,,,,,,,,,,,,,,0.025,,,,,,,,,,,,,,,,,,,,,,,,,,,,right,1,10,30,40,1,3215.209165,3215.209165,3215.209165,None,None,2,0,0.8098189,,,,,,,,,,,,,,,,,,,,,,10,11,2,2024-11-01_12h55.48.067,uWM_experiment,2022.2.3,59.99811606
