PreTrainingPAS4_loop.thisRepN,PreTrainingPAS4_loop.thisTrialN,PreTrainingPAS4_loop.thisN,PreTrainingPAS4_loop.thisIndex,PreTrainingPAS1_loop.thisRepN,PreTrainingPAS1_loop.thisTrialN,PreTrainingPAS1_loop.thisN,PreTrainingPAS1_loop.thisIndex,RepeatCV_loop.thisRepN,RepeatCV_loop.thisTrialN,RepeatCV_loop.thisN,RepeatCV_loop.thisIndex,TrainingCV_loop.thisRepN,TrainingCV_loop.thisTrialN,TrainingCV_loop.thisN,TrainingCV_loop.thisIndex,TrainingCAL_loop.thisRepN,TrainingCAL_loop.thisTrialN,TrainingCAL_loop.thisN,TrainingCAL_loop.thisIndex,blocks_loop.thisRepN,blocks_loop.thisTrialN,blocks_loop.thisN,blocks_loop.thisIndex,trials_loop.thisRepN,trials_loop.thisTrialN,trials_loop.thisN,trials_loop.thisIndex,TrainingPAS1_loop.thisRepN,TrainingPAS1_loop.thisTrialN,TrainingPAS1_loop.thisN,TrainingPAS1_loop.thisIndex,spacebarWelcome0.started,spacebarWelcome0.keys,spacebarWelcome0.rt,spacebarWelcome1.started,gaborWelcome1.started,maskWelcome1.started,textMaskWelcome1.started,spacebarWelcome1.keys,spacebarWelcome1.rt,spacebarWelcome2.started,spacebarWelcome2.keys,spacebarWelcome2.rt,textInst_PreTrainingPAS4.started,spacebarPreTrainingPAS4.started,spacebarPreTrainingPAS4.keys,spacebarPreTrainingPAS4.rt,textPreTrainingPAS1.started,spacebarPreTrainingPAS1.started,spacebarPreTrainingPAS1.keys,spacebarPreTrainingPAS1.rt,textQUEST0.started,spacebarQUEST0.started,spacebarQUEST0.keys,spacebarQUEST0.rt,spacebar0.started,spacebar0.keys,spacebar0.rt,spacebar1.started,spacebar1.keys,spacebar1.rt,textInstructions2.started,spacebar2.started,Gabor1Inst2.started,Gabor2Inst2.started,Gabor3Inst2.started,Gabor4Inst2.started,spacebar2.keys,spacebar2.rt,textInstructionsPAS.started,spacebarInstPAS.started,spacebarInstPAS.keys,spacebarInstPAS.rt,textInstructions3.started,spacebar3.started,spacebar3.keys,spacebar3.rt,WMresp_CV,WMresp_CV_acc,oriMemo_CV,gyre_CV,oriTest_CV,feedbackText.started,feedbackText.stopped,sliderCV.started,PAStextCV.started,PASkeyCV.started,sliderCV.response,sliderCV.rt,PASkeyCV.keys,PASkeyCV.corr,PASkeyCV.rt,TextInstructionsCAL.started,spacebarCAL.started,spacebarCAL.keys,spacebarCAL.rt,contrast,WMresp_CAL,WMresp_CAL_acc,oriMemo_CAL,gyre_CAL,oriTest_CAL,cue_CAL,sliderCAL.started,PAStextCAL.started,PASkeyCAL.started,sliderCAL.response,sliderCAL.rt,PASkeyCAL.keys,PASkeyCAL.corr,PASkeyCAL.rt,propUnseen_CAL,textStart.started,spacebar4.started,spacebar4.keys,spacebar4.rt,three.started,three.stopped,two.started,two.stopped,one.started,one.stopped,blank_countdown.started,blank_countdown.stopped,WMresp,WMresp_acc,oriMemo,gyre,oriTest,cue,slider.started,textPAS_firstGabor.started,PASkey.started,slider.response,slider.rt,PASkey.keys,PASkey.corr,PASkey.rt,spacebarContinue.started,textBreak.started,spacebarContinue.keys,spacebarContinue.rt,spacebar_reminder.keys,spacebar_TrainingPAS1.keys,spacebar_endpractice.keys,spacebar_reminder.started,textReminder.started,spacebar_reminder.rt,textInst_TrainingPAS1.started,spacebar_TrainingPAS1.started,spacebar_TrainingPAS1.rt,textend_practicePAS1.started,spacebar_endpractice.started,spacebar_endpractice.rt,textThanks.started,textThanks.stopped,laboratory,participant,session,date,expName,psychopyVersion,frameRate
,,,,,,,,,,,,,,,,,,,,,,,,,,,,,,,,310.5322167,space,14.8982327,,,,,,,,,,,,,,,,,,,,,,,,,,,,,,,,,,,,,,,,,,,,,,,,,,,,,,,,,,,,,,,,,,,,,,,,,,,,,,,,,,,,,,,,,,,,,,,,,,,,,,,,,,,,,,,,,,,,,,,,,,,10,12,1,2024-10-25_15h28.48.868,uWM_experiment,2022.2.3,60.000168
,,,,,,,,,,,,,,,,,,,,,,,,,,,,,,,,,,,325.4658761,325.4658761,325.4658761,325.4658761,space,80.3561706,,,,,,,,,,,,,,,,,,,,,,,,,,,,,,,,,,,,,,,,,,,,,,,,,,,,,,,,,,,,,,,,,,,,,,,,,,,,,,,,,,,,,,,,,,,,,,,,,,,,,,,,,,,,,,,,,,,,,10,12,1,2024-10-25_15h28.48.868,uWM_experiment,2022.2.3,60.000168
,,,,,,,,,,,,,,,,,,,,,,,,,,,,,,,,,,,,,,,,,405.8523072,space,48.6254371,,,,,,,,,,,,,,,,,,,,,,,,,,,,,,,,,,,,,,,,,,,,,,,,,,,,,,,,,,,,,,,,,,,,,,,,,,,,,,,,,,,,,,,,,,,,,,,,,,,,,,,,,,,,,,,,,,10,12,1,2024-10-25_15h28.48.868,uWM_experiment,2022.2.3,60.000168
,,,,,,,,,,,,,,,,,,,,,,,,,,,,,,,,,,,,,,,,,,,,454.5042009,454.5042009,space,66.3012921,,,,,,,,,,,,,,,,,,,,,,,,,,,,,,,,,,,,,,,,,,,,,,,,,,,,,,,,,,,,,,,,,,,,,,,,,,,,,,,,,,,,,,,,,,,,,,,,,,,,,,,,,,,,,,10,12,1,2024-10-25_15h28.48.868,uWM_experiment,2022.2.3,60.000168
0,0,0,0,,,,,,,,,,,,,,,,,,,,,,,,,,,,,,,,,,,,,,,,,,,,,,,,,,,,,,,,,,,,,,,,,,,,,,,,,,,,,,,,,,,,,,,,,,,,,,,,,,,,,,,,,,,,,,,,,,,,,,,,,,,,,,,,,,,,,,,,,,,,,,,,,,,,,,,,,,10,12,1,2024-10-25_15h28.48.868,uWM_experiment,2022.2.3,60.000168
1,0,1,0,,,,,,,,,,,,,,,,,,,,,,,,,,,,,,,,,,,,,,,,,,,,,,,,,,,,,,,,,,,,,,,,,,,,,,,,,,,,,,,,,,,,,,,,,,,,,,,,,,,,,,,,,,,,,,,,,,,,,,,,,,,,,,,,,,,,,,,,,,,,,,,,,,,,,,,,,,10,12,1,2024-10-25_15h28.48.868,uWM_experiment,2022.2.3,60.000168
2,0,2,0,,,,,,,,,,,,,,,,,,,,,,,,,,,,,,,,,,,,,,,,,,,,,,,,,,,,,,,,,,,,,,,,,,,,,,,,,,,,,,,,,,,,,,,,,,,,,,,,,,,,,,,,,,,,,,,,,,,,,,,,,,,,,,,,,,,,,,,,,,,,,,,,,,,,,,,,,,10,12,1,2024-10-25_15h28.48.868,uWM_experiment,2022.2.3,60.000168
,,,,,,,,,,,,,,,,,,,,,,,,,,,,,,,,,,,,,,,,,,,,,,,,561.8084108,561.8084108,space,122.7242057,,,,,,,,,,,,,,,,,,,,,,,,,,,,,,,,,,,,,,,,,,,,,,,,,,,,,,,,,,,,,,,,,,,,,,,,,,,,,,,,,,,,,,,,,,,,,,,,,,,,,,,,,,10,12,1,2024-10-25_15h28.48.868,uWM_experiment,2022.2.3,60.000168
,,,,0,0,0,0,,,,,,,,,,,,,,,,,,,,,,,,,,,,,,,,,,,,,,,,,,,,,,,,,,,,,,,,,,,,,,,,,,,,,,,,,,,,,,,,,,,,,,,,,,,,,,,,,,,,,,,,,,,,,,,,,,,,,,,,,,,,,,,,,,,,,,,,,,,,,,,,,,,,,,10,12,1,2024-10-25_15h28.48.868,uWM_experiment,2022.2.3,60.000168
,,,,1,0,1,0,,,,,,,,,,,,,,,,,,,,,,,,,,,,,,,,,,,,,,,,,,,,,,,,,,,,,,,,,,,,,,,,,,,,,,,,,,,,,,,,,,,,,,,,,,,,,,,,,,,,,,,,,,,,,,,,,,,,,,,,,,,,,,,,,,,,,,,,,,,,,,,,,,,,,,10,12,1,2024-10-25_15h28.48.868,uWM_experiment,2022.2.3,60.000168
,,,,2,0,2,0,,,,,,,,,,,,,,,,,,,,,,,,,,,,,,,,,,,,,,,,,,,,,,,,,,,,,,,,,,,,,,,,,,,,,,,,,,,,,,,,,,,,,,,,,,,,,,,,,,,,,,,,,,,,,,,,,,,,,,,,,,,,,,,,,,,,,,,,,,,,,,,,,,,,,,10,12,1,2024-10-25_15h28.48.868,uWM_experiment,2022.2.3,60.000168
,,,,,,,,,,,,,,,,,,,,,,,,,,,,,,,,,,,,,,,,,,,,,,,,,,,,714.481069,714.481069,space,40.6830972,,,,,,,,,,,,,,,,,,,,,,,,,,,,,,,,,,,,,,,,,,,,,,,,,,,,,,,,,,,,,,,,,,,,,,,,,,,,,,,,,,,,,,,,,,,,,,,,,,,,,,10,12,1,2024-10-25_15h28.48.868,uWM_experiment,2022.2.3,60.000168
,,,,,,,,,,,,,,,,,,,,,,,,,,,,,,,,,,,,,,,,,,,,,,,,,,,,,,,,907.6053188,space,38.9978245,,,,,,,,,,,,,,,,,,,,,,,,,,,,,,,,,,,,,,,,,,,,,,,,,,,,,,,,,,,,,,,,,,,,,,,,,,,,,,,,,,,,,,,,,,,,,,,,,,,10,12,1,2024-10-25_15h28.48.868,uWM_experiment,2022.2.3,60.000168
,,,,,,,,,,,,,,,,,,,,,,,,,,,,,,,,,,,,,,,,,,,,,,,,,,,,,,,,,,,946.6234759,space,191.066598,,,,,,,,,,,,,,,,,,,,,,,,,,,,,,,,,,,,,,,,,,,,,,,,,,,,,,,,,,,,,,,,,,,,,,,,,,,,,,,,,,,,,,,,,,,,,,,,10,12,1,2024-10-25_15h28.48.868,uWM_experiment,2022.2.3,60.000168
,,,,,,,,,,,,,,,,,,,,,,,,,,,,,,,,,,,,,,,,,,,,,,,,,,,,,,,,,,,,,,1137.714286,1137.714286,1137.714286,1137.714286,1137.714286,1137.714286,space,256.9504511,,,,,,,,,,,,,,,,,,,,,,,,,,,,,,,,,,,,,,,,,,,,,,,,,,,,,,,,,,,,,,,,,,,,,,,,,,,,,,,,,,,,,,,,10,12,1,2024-10-25_15h28.48.868,uWM_experiment,2022.2.3,60.000168
,,,,,,,,,,,,,,,,,,,,,,,,,,,,,,,,,,,,,,,,,,,,,,,,,,,,,,,,,,,,,,,,,,,,,,1394.691008,1394.691008,space,148.2608004,,,,,,,,,,,,,,,,,,,,,,,,,,,,,,,,,,,,,,,,,,,,,,,,,,,,,,,,,,,,,,,,,,,,,,,,,,,,,,,,,,,,10,12,1,2024-10-25_15h28.48.868,uWM_experiment,2022.2.3,60.000168
,,,,,,,,,,,,,,,,,,,,,,,,,,,,,,,,,,,,,,,,,,,,,,,,,,,,,,,,,,,,,,,,,,,,,,,,,,1542.980142,1542.980142,space,46.2195565,,,,,,,,,,,,,,,,,,,,,,,,,,,,,,,,,,,,,,,,,,,,,,,,,,,,,,,,,,,,,,,,,,,,,,,,,,,,,,,,10,12,1,2024-10-25_15h28.48.868,uWM_experiment,2022.2.3,60.000168
,,,,,,,,0,0,0,0,0,0,0,0,,,,,,,,,,,,,,,,,,,,,,,,,,,,,,,,,,,,,,,,,,,,,,,,,,,,,,,,,,,,,,,left,0,100,30,130,1599.582375,1600.58241,1600.58241,1600.58241,1600.58241,None,None,2,0,7.2651574,,,,,,,,,,,,,,,,,,,,,,,,,,,,,,,,,,,,,,,,,,,,,,,,,,,,,,,,,,,,,,,,,10,12,1,2024-10-25_15h28.48.868,uWM_experiment,2022.2.3,60.000168
,,,,,,,,0,0,0,0,1,0,1,0,,,,,,,,,,,,,,,,,,,,,,,,,,,,,,,,,,,,,,,,,,,,,,,,,,,,,,,,,,,,,,,left,1,40,-30,10,1617.949734,,1618.949774,1618.949774,1618.949774,None,None,4,0,2.4497744,,,,,,,,,,,,,,,,,,,,,,,,,,,,,,,,,,,,,,,,,,,,,,,,,,,,,,,,,,,,,,,,,10,12,1,2024-10-25_15h28.48.868,uWM_experiment,2022.2.3,60.000168
,,,,,,,,0,0,0,0,2,0,2,0,,,,,,,,,,,,,,,,,,,,,,,,,,,,,,,,,,,,,,,,,,,,,,,,,,,,,,,,,,,,,,,left,1,70,-30,40,1629.466875,1630.466901,1630.466901,1630.466901,1630.466901,None,None,4,0,1.4445273,,,,,,,,,,,,,,,,,,,,,,,,,,,,,,,,,,,,,,,,,,,,,,,,,,,,,,,,,,,,,,,,,10,12,1,2024-10-25_15h28.48.868,uWM_experiment,2022.2.3,60.000168
,,,,,,,,0,0,0,0,3,0,3,0,,,,,,,,,,,,,,,,,,,,,,,,,,,,,,,,,,,,,,,,,,,,,,,,,,,,,,,,,,,,,,,left,1,10,-30,-20,1644.134094,1645.134129,1645.134129,1645.134129,1645.134129,None,None,4,0,0.5211386,,,,,,,,,,,,,,,,,,,,,,,,,,,,,,,,,,,,,,,,,,,,,,,,,,,,,,,,,,,,,,,,,10,12,1,2024-10-25_15h28.48.868,uWM_experiment,2022.2.3,60.000168
,,,,,,,,0,0,0,0,4,0,4,0,,,,,,,,,,,,,,,,,,,,,,,,,,,,,,,,,,,,,,,,,,,,,,,,,,,,,,,,,,,,,,,left,1,130,-30,100,1653.03446,,1654.034476,1654.034476,1654.034476,None,None,4,0,0.5808296,,,,,,,,,,,,,,,,,,,,,,,,,,,,,,,,,,,,,,,,,,,,,,,,,,,,,,,,,,,,,,,,,10,12,1,2024-10-25_15h28.48.868,uWM_experiment,2022.2.3,60.000168
,,,,,,,,0,0,0,0,5,0,5,0,,,,,,,,,,,,,,,,,,,,,,,,,,,,,,,,,,,,,,,,,,,,,,,,,,,,,,,,,,,,,,,left,1,130,-30,100,1661.668101,1662.668149,1662.668149,1662.668149,1662.668149,None,None,4,0,0.5311284,,,,,,,,,,,,,,,,,,,,,,,,,,,,,,,,,,,,,,,,,,,,,,,,,,,,,,,,,,,,,,,,,10,12,1,2024-10-25_15h28.48.868,uWM_experiment,2022.2.3,60.000168
,,,,,,,,0,0,0,0,6,0,6,0,,,,,,,,,,,,,,,,,,,,,,,,,,,,,,,,,,,,,,,,,,,,,,,,,,,,,,,,,,,,,,,right,1,10,30,40,1669.835116,1670.835134,1670.835134,1670.835134,1670.835134,None,None,4,0,0.5640928,,,,,,,,,,,,,,,,,,,,,,,,,,,,,,,,,,,,,,,,,,,,,,,,,,,,,,,,,,,,,,,,,10,12,1,2024-10-25_15h28.48.868,uWM_experiment,2022.2.3,60.000168
,,,,,,,,0,0,0,0,7,0,7,0,,,,,,,,,,,,,,,,,,,,,,,,,,,,,,,,,,,,,,,,,,,,,,,,,,,,,,,,,,,,,,,right,1,10,30,40,1678.235448,1679.235501,1679.235501,1679.235501,1679.235501,None,None,4,0,0.4997022,,,,,,,,,,,,,,,,,,,,,,,,,,,,,,,,,,,,,,,,,,,,,,,,,,,,,,,,,,,,,,,,,10,12,1,2024-10-25_15h28.48.868,uWM_experiment,2022.2.3,60.000168
,,,,,,,,0,0,0,0,8,0,8,0,,,,,,,,,,,,,,,,,,,,,,,,,,,,,,,,,,,,,,,,,,,,,,,,,,,,,,,,,,,,,,,right,1,130,30,160,1686.452437,1687.452443,1687.452443,1687.452443,1687.452443,None,None,4,0,0.6266293,,,,,,,,,,,,,,,,,,,,,,,,,,,,,,,,,,,,,,,,,,,,,,,,,,,,,,,,,,,,,,,,,10,12,1,2024-10-25_15h28.48.868,uWM_experiment,2022.2.3,60.000168
,,,,,,,,0,0,0,0,9,0,9,0,,,,,,,,,,,,,,,,,,,,,,,,,,,,,,,,,,,,,,,,,,,,,,,,,,,,,,,,,,,,,,,left,1,130,-30,100,1694.402717,1695.402757,1695.402757,1695.402757,1695.402757,None,None,4,0,0.5563011,,,,,,,,,,,,,,,,,,,,,,,,,,,,,,,,,,,,,,,,,,,,,,,,,,,,,,,,,,,,,,,,,10,12,1,2024-10-25_15h28.48.868,uWM_experiment,2022.2.3,60.000168
,,,,,,,,0,0,0,0,10,0,10,0,,,,,,,,,,,,,,,,,,,,,,,,,,,,,,,,,,,,,,,,,,,,,,,,,,,,,,,,,,,,,,,right,1,160,30,190,1702.136394,1703.136399,1703.136399,1703.136399,1703.136399,None,None,4,0,0.614725,,,,,,,,,,,,,,,,,,,,,,,,,,,,,,,,,,,,,,,,,,,,,,,,,,,,,,,,,,,,,,,,,10,12,1,2024-10-25_15h28.48.868,uWM_experiment,2022.2.3,60.000168
,,,,,,,,0,0,0,0,11,0,11,0,,,,,,,,,,,,,,,,,,,,,,,,,,,,,,,,,,,,,,,,,,,,,,,,,,,,,,,,,,,,,,,left,0,70,30,100,1709.953343,,1710.953358,1710.953358,1710.953358,None,None,2,0,40.4213385,,,,,,,,,,,,,,,,,,,,,,,,,,,,,,,,,,,,,,,,,,,,,,,,,,,,,,,,,,,,,,,,,10,12,1,2024-10-25_15h28.48.868,uWM_experiment,2022.2.3,60.000168
,,,,,,,,0,0,0,0,,,,,,,,,,,,,,,,,,,,,,,,,,,,,,,,,,,,,,,,,,,,,,,,,,,,,,,,,,,,,,,,,,,,,,,,,,,,,,,,,,,,,,,,,,,,,,,,,,,,,,,,,,,,,,,,,,,,,,,,,,,,,,,,,,,,,,,,,,,,,,,,,,10,12,1,2024-10-25_15h28.48.868,uWM_experiment,2022.2.3,60.000168
,,,,,,,,1,0,1,0,0,0,0,0,,,,,,,,,,,,,,,,,,,,,,,,,,,,,,,,,,,,,,,,,,,,,,,,,,,,,,,,,,,,,,,left,1,70,-30,40,1799.690179,,1800.690204,1800.690204,1800.690204,None,None,4,0,1.6361789,,,,,,,,,,,,,,,,,,,,,,,,,,,,,,,,,,,,,,,,,,,,,,,,,,,,,,,,,,,,,,,,,10,12,1,2024-10-25_15h28.48.868,uWM_experiment,2022.2.3,60.000168
,,,,,,,,1,0,1,0,1,0,1,0,,,,,,,,,,,,,,,,,,,,,,,,,,,,,,,,,,,,,,,,,,,,,,,,,,,,,,,,,,,,,,,left,1,160,-30,130,1809.440559,,1810.440575,1810.440575,1810.440575,None,None,4,0,0.477885,,,,,,,,,,,,,,,,,,,,,,,,,,,,,,,,,,,,,,,,,,,,,,,,,,,,,,,,,,,,,,,,,10,12,1,2024-10-25_15h28.48.868,uWM_experiment,2022.2.3,60.000168
,,,,,,,,1,0,1,0,2,0,2,0,,,,,,,,,,,,,,,,,,,,,,,,,,,,,,,,,,,,,,,,,,,,,,,,,,,,,,,,,,,,,,,left,0,70,30,100,1817.257525,,1818.257562,1818.257562,1818.257562,None,None,2,0,1.508751,,,,,,,,,,,,,,,,,,,,,,,,,,,,,,,,,,,,,,,,,,,,,,,,,,,,,,,,,,,,,,,,,10,12,1,2024-10-25_15h28.48.868,uWM_experiment,2022.2.3,60.000168
,,,,,,,,1,0,1,0,3,0,3,0,,,,,,,,,,,,,,,,,,,,,,,,,,,,,,,,,,,,,,,,,,,,,,,,,,,,,,,,,,,,,,,left,1,160,-30,130,1825.957874,1826.957888,1826.957888,1826.957888,1826.957888,None,None,4,0,0.4244907,,,,,,,,,,,,,,,,,,,,,,,,,,,,,,,,,,,,,,,,,,,,,,,,,,,,,,,,,,,,,,,,,10,12,1,2024-10-25_15h28.48.868,uWM_experiment,2022.2.3,60.000168
,,,,,,,,1,0,1,0,4,0,4,0,,,,,,,,,,,,,,,,,,,,,,,,,,,,,,,,,,,,,,,,,,,,,,,,,,,,,,,,,,,,,,,left,1,40,-30,10,1833.308138,1834.308171,1834.308171,1834.308171,1834.308171,None,None,4,0,0.4101711,,,,,,,,,,,,,,,,,,,,,,,,,,,,,,,,,,,,,,,,,,,,,,,,,,,,,,,,,,,,,,,,,10,12,1,2024-10-25_15h28.48.868,uWM_experiment,2022.2.3,60.000168
,,,,,,,,1,0,1,0,5,0,5,0,,,,,,,,,,,,,,,,,,,,,,,,,,,,,,,,,,,,,,,,,,,,,,,,,,,,,,,,,,,,,,,right,1,40,30,70,1841.041772,,1842.041817,1842.041817,1842.041817,None,None,4,0,0.5325265,,,,,,,,,,,,,,,,,,,,,,,,,,,,,,,,,,,,,,,,,,,,,,,,,,,,,,,,,,,,,,,,,10,12,1,2024-10-25_15h28.48.868,uWM_experiment,2022.2.3,60.000168
,,,,,,,,1,0,1,0,6,0,6,0,,,,,,,,,,,,,,,,,,,,,,,,,,,,,,,,,,,,,,,,,,,,,,,,,,,,,,,,,,,,,,,left,0,100,30,130,1848.775408,1849.775447,1849.775447,1849.775447,1849.775447,None,None,2,0,1.10268,,,,,,,,,,,,,,,,,,,,,,,,,,,,,,,,,,,,,,,,,,,,,,,,,,,,,,,,,,,,,,,,,10,12,1,2024-10-25_15h28.48.868,uWM_experiment,2022.2.3,60.000168
,,,,,,,,1,0,1,0,7,0,7,0,,,,,,,,,,,,,,,,,,,,,,,,,,,,,,,,,,,,,,,,,,,,,,,,,,,,,,,,,,,,,,,left,1,160,-30,130,1857.792435,1858.792454,1858.792454,1858.792454,1858.792454,None,None,4,0,0.5497555,,,,,,,,,,,,,,,,,,,,,,,,,,,,,,,,,,,,,,,,,,,,,,,,,,,,,,,,,,,,,,,,,10,12,1,2024-10-25_15h28.48.868,uWM_experiment,2022.2.3,60.000168
,,,,,,,,1,0,1,0,8,0,8,0,,,,,,,,,,,,,,,,,,,,,,,,,,,,,,,,,,,,,,,,,,,,,,,,,,,,,,,,,,,,,,,right,1,10,30,40,1865.259379,1866.259417,1866.259417,1866.259417,1866.259417,None,None,4,0,0.5706185,,,,,,,,,,,,,,,,,,,,,,,,,,,,,,,,,,,,,,,,,,,,,,,,,,,,,,,,,,,,,,,,,10,12,1,2024-10-25_15h28.48.868,uWM_experiment,2022.2.3,60.000168
,,,,,,,,1,0,1,0,9,0,9,0,,,,,,,,,,,,,,,,,,,,,,,,,,,,,,,,,,,,,,,,,,,,,,,,,,,,,,,,,,,,,,,left,0,100,30,130,1873.076355,1874.076399,1874.076399,1874.076399,1874.076399,None,None,2,0,0.5296795,,,,,,,,,,,,,,,,,,,,,,,,,,,,,,,,,,,,,,,,,,,,,,,,,,,,,,,,,,,,,,,,,10,12,1,2024-10-25_15h28.48.868,uWM_experiment,2022.2.3,60.000168
,,,,,,,,1,0,1,0,10,0,10,0,,,,,,,,,,,,,,,,,,,,,,,,,,,,,,,,,,,,,,,,,,,,,,,,,,,,,,,,,,,,,,,left,1,40,-30,10,1880.89334,1881.893359,1881.893359,1881.893359,1881.893359,None,None,4,0,0.6327185,,,,,,,,,,,,,,,,,,,,,,,,,,,,,,,,,,,,,,,,,,,,,,,,,,,,,,,,,,,,,,,,,10,12,1,2024-10-25_15h28.48.868,uWM_experiment,2022.2.3,60.000168
,,,,,,,,1,0,1,0,11,0,11,0,,,,,,,,,,,,,,,,,,,,,,,,,,,,,,,,,,,,,,,,,,,,,,,,,,,,,,,,,,,,,,,right,1,100,30,130,1888.926958,1889.927003,1889.927003,1889.927003,1889.927003,None,None,4,0,0.6070867,,,,,,,,,,,,,,,,,,,,,,,,,,,,,,,,,,,,,,,,,,,,,,,,,,,,,,,,,,,,,,,,,10,12,1,2024-10-25_15h28.48.868,uWM_experiment,2022.2.3,60.000168
,,,,,,,,1,0,1,0,,,,,,,,,,,,,,,,,,,,,,,,,,,,,,,,,,,,,,,,,,,,,,,,,,,,,,,,,,,,,,,,,,,,,,,,,,,,,,,,,,,,,,,,,,,,,,,,,,,,,,,,,,,,,,,,,,,,,,,,,,,,,,,,,,,,,,,,,,,,,,,,,,10,12,1,2024-10-25_15h28.48.868,uWM_experiment,2022.2.3,60.000168
,,,,,,,,,,,,,,,,,,,,,,,,,,,,,,,,,,,,,,,,,,,,,,,,,,,,,,,,,,,,,,,,,,,,,,,,,,,,,,,,,,,,,,,,,,,,,1890.560365,1890.560365,space,15.9495496,,,,,,,,,,,,,,,,,,,,,,,,,,,,,,,,,,,,,,,,,,,,,,,,,,,,,,,,,,,,,10,12,1,2024-10-25_15h28.48.868,uWM_experiment,2022.2.3,60.000168
,,,,,,,,,,,,,,,,0,0,0,0,,,,,,,,,,,,,,,,,,,,,,,,,,,,,,,,,,,,,,,,,,,,,,,,,,,,,,,,,,,,,,,,,,,,,,,,,,,,,,0.081480277,left,0,130,30,160,1,1920.061505,1920.061505,1920.061505,None,None,2,0,1.456418,,,,,,,,,,,,,,,,,,,,,,,,,,,,,,,,,,,,,,,,,,,,,,10,12,1,2024-10-25_15h28.48.868,uWM_experiment,2022.2.3,60.000168
,,,,,,,,,,,,,,,,1,0,1,0,,,,,,,,,,,,,,,,,,,,,,,,,,,,,,,,,,,,,,,,,,,,,,,,,,,,,,,,,,,,,,,,,,,,,,,,,,,,,,0.071480277,left,0,10,30,40,1,1934.945473,1934.945473,1934.945473,None,None,1,1,0.8682885,0,,,,,,,,,,,,,,,,,,,,,,,,,,,,,,,,,,,,,,,,,,,,,10,12,1,2024-10-25_15h28.48.868,uWM_experiment,2022.2.3,60.000168
,,,,,,,,,,,,,,,,2,0,2,0,,,,,,,,,,,,,,,,,,,,,,,,,,,,,,,,,,,,,,,,,,,,,,,,,,,,,,,,,,,,,,,,,,,,,,,,,,,,,,0.1,left,1,10,-30,-20,2,1945.095818,1945.095818,1945.095818,None,None,1,1,0.9177725,0.5,,,,,,,,,,,,,,,,,,,,,,,,,,,,,,,,,,,,,,,,,,,,,10,12,1,2024-10-25_15h28.48.868,uWM_experiment,2022.2.3,60.000168
,,,,,,,,,,,,,,,,3,0,3,0,,,,,,,,,,,,,,,,,,,,,,,,,,,,,,,,,,,,,,,,,,,,,,,,,,,,,,,,,,,,,,,,,,,,,,,,,,,,,,0.1,right,1,160,30,190,2,1954.412863,1954.412863,1954.412863,None,None,2,0,1.2568095,0.666666667,,,,,,,,,,,,,,,,,,,,,,,,,,,,,,,,,,,,,,,,,,,,,10,12,1,2024-10-25_15h28.48.868,uWM_experiment,2022.2.3,60.000168
,,,,,,,,,,,,,,,,4,0,4,0,,,,,,,,,,,,,,,,,,,,,,,,,,,,,,,,,,,,,,,,,,,,,,,,,,,,,,,,,,,,,,,,,,,,,,,,,,,,,,0.081480277,left,0,160,30,190,1,1964.429954,1964.429954,1964.429954,None,None,2,0,2.0555539,0.5,,,,,,,,,,,,,,,,,,,,,,,,,,,,,,,,,,,,,,,,,,,,,10,12,1,2024-10-25_15h28.48.868,uWM_experiment,2022.2.3,60.000168
,,,,,,,,,,,,,,,,5,0,5,0,,,,,,,,,,,,,,,,,,,,,,,,,,,,,,,,,,,,,,,,,,,,,,,,,,,,,,,,,,,,,,,,,,,,,,,,,,,,,,0.1,right,0,100,-30,70,2,1974.713643,1974.713643,1974.713643,None,None,2,0,1.0358393,0.4,,,,,,,,,,,,,,,,,,,,,,,,,,,,,,,,,,,,,,,,,,,,,10,12,1,2024-10-25_15h28.48.868,uWM_experiment,2022.2.3,60.000168
,,,,,,,,,,,,,,,,6,0,6,0,,,,,,,,,,,,,,,,,,,,,,,,,,,,,,,,,,,,,,,,,,,,,,,,,,,,,,,,,,,,,,,,,,,,,,,,,,,,,,0.1,left,0,40,30,70,2,1984.41401,1984.41401,1984.41401,None,None,2,0,1.3114993,0.333333333,,,,,,,,,,,,,,,,,,,,,,,,,,,,,,,,,,,,,,,,,,,,,10,12,1,2024-10-25_15h28.48.868,uWM_experiment,2022.2.3,60.000168
,,,,,,,,,,,,,,,,7,0,7,0,,,,,,,,,,,,,,,,,,,,,,,,,,,,,,,,,,,,,,,,,,,,,,,,,,,,,,,,,,,,,,,,,,,,,,,,,,,,,,0.1,left,0,160,30,190,2,1994.764442,1994.764442,1994.764442,None,None,2,0,1.0090823,0.285714286,,,,,,,,,,,,,,,,,,,,,,,,,,,,,,,,,,,,,,,,,,,,,10,12,1,2024-10-25_15h28.48.868,uWM_experiment,2022.2.3,60.000168
,,,,,,,,,,,,,,,,8,0,8,0,,,,,,,,,,,,,,,,,,,,,,,,,,,,,,,,,,,,,,,,,,,,,,,,,,,,,,,,,,,,,,,,,,,,,,,,,,,,,,0.071480277,left,1,40,-30,10,1,2003.881438,2003.881438,2003.881438,None,None,1,1,1.2439199,0.25,,,,,,,,,,,,,,,,,,,,,,,,,,,,,,,,,,,,,,,,,,,,,10,12,1,2024-10-25_15h28.48.868,uWM_experiment,2022.2.3,60.000168
,,,,,,,,,,,,,,,,9,0,9,0,,,,,,,,,,,,,,,,,,,,,,,,,,,,,,,,,,,,,,,,,,,,,,,,,,,,,,,,,,,,,,,,,,,,,,,,,,,,,,0.081480277,left,1,40,-30,10,1,2014.048515,2014.048515,2014.048515,None,None,2,0,0.884763,0.333333333,,,,,,,,,,,,,,,,,,,,,,,,,,,,,,,,,,,,,,,,,,,,,10,12,1,2024-10-25_15h28.48.868,uWM_experiment,2022.2.3,60.000168
,,,,,,,,,,,,,,,,10,0,10,0,,,,,,,,,,,,,,,,,,,,,,,,,,,,,,,,,,,,,,,,,,,,,,,,,,,,,,,,,,,,,,,,,,,,,,,,,,,,,,0.1,right,0,100,-30,70,2,2022.398834,2022.398834,2022.398834,None,None,2,0,1.1425353,0.3,,,,,,,,,,,,,,,,,,,,,,,,,,,,,,,,,,,,,,,,,,,,,10,12,1,2024-10-25_15h28.48.868,uWM_experiment,2022.2.3,60.000168
,,,,,,,,,,,,,,,,11,0,11,0,,,,,,,,,,,,,,,,,,,,,,,,,,,,,,,,,,,,,,,,,,,,,,,,,,,,,,,,,,,,,,,,,,,,,,,,,,,,,,0.1,right,1,10,30,40,2,2029.86578,2029.86578,2029.86578,None,None,4,0,2.7074906,0.272727273,,,,,,,,,,,,,,,,,,,,,,,,,,,,,,,,,,,,,,,,,,,,,10,12,1,2024-10-25_15h28.48.868,uWM_experiment,2022.2.3,60.000168
,,,,,,,,,,,,,,,,12,0,12,0,,,,,,,,,,,,,,,,,,,,,,,,,,,,,,,,,,,,,,,,,,,,,,,,,,,,,,,,,,,,,,,,,,,,,,,,,,,,,,0.071480277,left,1,130,-30,100,1,2040.699534,2040.699534,2040.699534,None,None,2,0,1.0977489,0.25,,,,,,,,,,,,,,,,,,,,,,,,,,,,,,,,,,,,,,,,,,,,,10,12,1,2024-10-25_15h28.48.868,uWM_experiment,2022.2.3,60.000168
,,,,,,,,,,,,,,,,13,0,13,0,,,,,,,,,,,,,,,,,,,,,,,,,,,,,,,,,,,,,,,,,,,,,,,,,,,,,,,,,,,,,,,,,,,,,,,,,,,,,,0.1,right,0,100,-30,70,2,2050.933264,2050.933264,2050.933264,None,None,2,0,1.0557379,0.230769231,,,,,,,,,,,,,,,,,,,,,,,,,,,,,,,,,,,,,,,,,,,,,10,12,1,2024-10-25_15h28.48.868,uWM_experiment,2022.2.3,60.000168
,,,,,,,,,,,,,,,,14,0,14,0,,,,,,,,,,,,,,,,,,,,,,,,,,,,,,,,,,,,,,,,,,,,,,,,,,,,,,,,,,,,,,,,,,,,,,,,,,,,,,0.1,left,1,130,-30,100,2,2058.95022,2058.95022,2058.95022,None,None,3,0,1.0469727,0.214285714,,,,,,,,,,,,,,,,,,,,,,,,,,,,,,,,,,,,,,,,,,,,,10,12,1,2024-10-25_15h28.48.868,uWM_experiment,2022.2.3,60.000168
,,,,,,,,,,,,,,,,15,0,15,0,,,,,,,,,,,,,,,,,,,,,,,,,,,,,,,,,,,,,,,,,,,,,,,,,,,,,,,,,,,,,,,,,,,,,,,,,,,,,,0.1,left,0,70,30,100,2,2066.933901,2066.933901,2066.933901,None,None,3,0,0.7831197,0.2,,,,,,,,,,,,,,,,,,,,,,,,,,,,,,,,,,,,,,,,,,,,,10,12,1,2024-10-25_15h28.48.868,uWM_experiment,2022.2.3,60.000168
,,,,,,,,,,,,,,,,16,0,16,0,,,,,,,,,,,,,,,,,,,,,,,,,,,,,,,,,,,,,,,,,,,,,,,,,,,,,,,,,,,,,,,,,,,,,,,,,,,,,,0.1,left,1,130,-30,100,2,2075.867574,2075.867574,2075.867574,None,None,3,0,0.8814771,0.1875,,,,,,,,,,,,,,,,,,,,,,,,,,,,,,,,,,,,,,,,,,,,,10,12,1,2024-10-25_15h28.48.868,uWM_experiment,2022.2.3,60.000168
,,,,,,,,,,,,,,,,17,0,17,0,,,,,,,,,,,,,,,,,,,,,,,,,,,,,,,,,,,,,,,,,,,,,,,,,,,,,,,,,,,,,,,,,,,,,,,,,,,,,,0.061480277,left,0,160,30,190,1,2083.434544,2083.434544,2083.434544,None,None,2,0,1.5943897,0.176470588,,,,,,,,,,,,,,,,,,,,,,,,,,,,,,,,,,,,,,,,,,,,,10,12,1,2024-10-25_15h28.48.868,uWM_experiment,2022.2.3,60.000168
,,,,,,,,,,,,,,,,18,0,18,0,,,,,,,,,,,,,,,,,,,,,,,,,,,,,,,,,,,,,,,,,,,,,,,,,,,,,,,,,,,,,,,,,,,,,,,,,,,,,,0.051480277,right,1,40,30,70,1,2092.551563,2092.551563,2092.551563,None,None,2,0,1.3172458,0.166666667,,,,,,,,,,,,,,,,,,,,,,,,,,,,,,,,,,,,,,,,,,,,,10,12,1,2024-10-25_15h28.48.868,uWM_experiment,2022.2.3,60.000168
,,,,,,,,,,,,,,,,19,0,19,0,,,,,,,,,,,,,,,,,,,,,,,,,,,,,,,,,,,,,,,,,,,,,,,,,,,,,,,,,,,,,,,,,,,,,,,,,,,,,,0.041480277,right,1,100,30,130,1,2102.035278,2102.035278,2102.035278,None,None,2,0,1.1136171,0.157894737,,,,,,,,,,,,,,,,,,,,,,,,,,,,,,,,,,,,,,,,,,,,,10,12,1,2024-10-25_15h28.48.868,uWM_experiment,2022.2.3,60.000168
,,,,,,,,,,,,,,,,20,0,20,0,,,,,,,,,,,,,,,,,,,,,,,,,,,,,,,,,,,,,,,,,,,,,,,,,,,,,,,,,,,,,,,,,,,,,,,,,,,,,,0.031480277,right,0,10,-30,-20,1,2109.752194,2109.752194,2109.752194,None,None,1,1,0.7967012,0.15,,,,,,,,,,,,,,,,,,,,,,,,,,,,,,,,,,,,,,,,,,,,,10,12,1,2024-10-25_15h28.48.868,uWM_experiment,2022.2.3,60.000168
,,,,,,,,,,,,,,,,21,0,21,0,,,,,,,,,,,,,,,,,,,,,,,,,,,,,,,,,,,,,,,,,,,,,,,,,,,,,,,,,,,,,,,,,,,,,,,,,,,,,,0.041480277,right,0,70,-30,40,1,2121.386023,2121.386023,2121.386023,None,None,2,0,1.4907887,0.19047619,,,,,,,,,,,,,,,,,,,,,,,,,,,,,,,,,,,,,,,,,,,,,10,12,1,2024-10-25_15h28.48.868,uWM_experiment,2022.2.3,60.000168
,,,,,,,,,,,,,,,,22,0,22,0,,,,,,,,,,,,,,,,,,,,,,,,,,,,,,,,,,,,,,,,,,,,,,,,,,,,,,,,,,,,,,,,,,,,,,,,,,,,,,0.031480277,left,1,70,-30,40,1,2131.536405,2131.536405,2131.536405,None,None,2,0,0.8922939,0.181818182,,,,,,,,,,,,,,,,,,,,,,,,,,,,,,,,,,,,,,,,,,,,,10,12,1,2024-10-25_15h28.48.868,uWM_experiment,2022.2.3,60.000168
,,,,,,,,,,,,,,,,23,0,23,0,,,,,,,,,,,,,,,,,,,,,,,,,,,,,,,,,,,,,,,,,,,,,,,,,,,,,,,,,,,,,,,,,,,,,,,,,,,,,,0.1,left,0,70,30,100,2,2139.336716,2139.336716,2139.336716,None,None,3,0,1.9799249,0.173913043,,,,,,,,,,,,,,,,,,,,,,,,,,,,,,,,,,,,,,,,,,,,,10,12,1,2024-10-25_15h28.48.868,uWM_experiment,2022.2.3,60.000168
,,,,,,,,,,,,,,,,,,,,,,,,,,,,,,,,,,,,,,,,,,,,,,,,,,,,,,,,,,,,,,,,,,,,,,,,,,,,,,,,,,,,,,,,,,,,,,,,,,,,,,,,,,,,,,,,,2141.336823,2142.336804,space,150.0670085,,,,,,,,,,,,,,,,,,,,,,,,,,,,,,,,,,,,,,,,,10,12,1,2024-10-25_15h28.48.868,uWM_experiment,2022.2.3,60.000168
,,,,,,,,,,,,,,,,,,,,0,0,0,0,0,0,0,0,,,,,,,,,,,,,,,,,,,,,,,,,,,,,,,,,,,,,,,,,,,,,,,,,,,,,,,,,,,,,,,,,,,,,,0.031480277,,,,,,,,,,,,,,,,,,,,2292.426004,2293.126042,2293.409361,2294.109379,2294.409397,2295.109426,2295.109426,2295.459443,left,1,70,-30,40,1,2305.126508,2305.126508,2305.126508,None,None,1,1,0.6933321,,,,,,,,,,,,,,,,,,,10,12,1,2024-10-25_15h28.48.868,uWM_experiment,2022.2.3,60.000168
,,,,,,,,,,,,,,,,,,,,0,0,0,0,1,0,1,0,,,,,,,,,,,,,,,,,,,,,,,,,,,,,,,,,,,,,,,,,,,,,,,,,,,,,,,,,,,,,,,,,,,,,,0.041480277,,,,,,,,,,,,,,,,,,,,,,,,,,,,right,0,160,-30,130,1,2313.710175,2313.710175,2313.710175,None,None,1,1,0.8136273,,,,,,,,,,,,,,,,,,,10,12,1,2024-10-25_15h28.48.868,uWM_experiment,2022.2.3,60.000168
,,,,,,,,,,,,,,,,,,,,0,0,0,0,2,0,2,0,,,,,,,,,,,,,,,,,,,,,,,,,,,,,,,,,,,,,,,,,,,,,,,,,,,,,,,,,,,,,,,,,,,,,,0,,,,,,,,,,,,,,,,,,,,,,,,,,,,left,1,160,-30,130,0,2320.59377,2320.59377,2320.59377,None,None,1,1,0.8177936,,,,,,,,,,,,,,,,,,,10,12,1,2024-10-25_15h28.48.868,uWM_experiment,2022.2.3,60.000168
,,,,,,,,,,,,,,,,,,,,0,0,0,0,3,0,3,0,,,,,,,,,,,,,,,,,,,,,,,,,,,,,,,,,,,,,,,,,,,,,,,,,,,,,,,,,,,,,,,,,,,,,,0.051480277,,,,,,,,,,,,,,,,,,,,,,,,,,,,left,1,70,-30,40,1,2328.394079,2328.394079,2328.394079,None,None,1,1,2.7455605,,,,,,,,,,,,,,,,,,,10,12,1,2024-10-25_15h28.48.868,uWM_experiment,2022.2.3,60.000168
,,,,,,,,,,,,,,,,,,,,0,0,0,0,4,0,4,0,,,,,,,,,,,,,,,,,,,,,,,,,,,,,,,,,,,,,,,,,,,,,,,,,,,,,,,,,,,,,,,,,,,,,,0.061480277,,,,,,,,,,,,,,,,,,,,,,,,,,,,right,1,10,30,40,1,2337.627756,2337.627756,2337.627756,None,None,2,0,0.7197154,,,,,,,,,,,,,,,,,,,10,12,1,2024-10-25_15h28.48.868,uWM_experiment,2022.2.3,60.000168
,,,,,,,,,,,,,,,,,,,,0,0,0,0,5,0,5,0,,,,,,,,,,,,,,,,,,,,,,,,,,,,,,,,,,,,,,,,,,,,,,,,,,,,,,,,,,,,,,,,,,,,,,0,,,,,,,,,,,,,,,,,,,,,,,,,,,,left,1,100,-30,70,0,2344.794717,2344.794717,2344.794717,None,None,1,1,1.2088771,,,,,,,,,,,,,,,,,,,10,12,1,2024-10-25_15h28.48.868,uWM_experiment,2022.2.3,60.000168
,,,,,,,,,,,,,,,,,,,,0,0,0,0,6,0,6,0,,,,,,,,,,,,,,,,,,,,,,,,,,,,,,,,,,,,,,,,,,,,,,,,,,,,,,,,,,,,,,,,,,,,,,0.051480277,,,,,,,,,,,,,,,,,,,,,,,,,,,,left,1,160,-30,130,1,2353.695044,2353.695044,2353.695044,None,None,2,0,0.5484104,,,,,,,,,,,,,,,,,,,10,12,1,2024-10-25_15h28.48.868,uWM_experiment,2022.2.3,60.000168
,,,,,,,,,,,,,,,,,,,,0,0,0,0,7,0,7,0,,,,,,,,,,,,,,,,,,,,,,,,,,,,,,,,,,,,,,,,,,,,,,,,,,,,,,,,,,,,,,,,,,,,,,0.041480277,,,,,,,,,,,,,,,,,,,,,,,,,,,,left,0,70,30,100,1,2362.878719,2362.878719,2362.878719,None,None,2,0,0.7088094,,,,,,,,,,,,,,,,,,,10,12,1,2024-10-25_15h28.48.868,uWM_experiment,2022.2.3,60.000168
,,,,,,,,,,,,,,,,,,,,0,0,0,0,8,0,8,0,,,,,,,,,,,,,,,,,,,,,,,,,,,,,,,,,,,,,,,,,,,,,,,,,,,,,,,,,,,,,,,,,,,,,,0.031480277,,,,,,,,,,,,,,,,,,,,,,,,,,,,right,1,40,30,70,1,2373.295823,2373.295823,2373.295823,None,None,1,1,1.3636164,,,,,,,,,,,,,,,,,,,10,12,1,2024-10-25_15h28.48.868,uWM_experiment,2022.2.3,60.000168
,,,,,,,,,,,,,,,,,,,,0,0,0,0,9,0,9,0,,,,,,,,,,,,,,,,,,,,,,,,,,,,,,,,,,,,,,,,,,,,,,,,,,,,,,,,,,,,,,,,,,,,,,0.041480277,,,,,,,,,,,,,,,,,,,,,,,,,,,,left,0,160,30,190,1,2386.162988,2386.162988,2386.162988,None,None,1,1,1.368255,,,,,,,,,,,,,,,,,,,10,12,1,2024-10-25_15h28.48.868,uWM_experiment,2022.2.3,60.000168
,,,,,,,,,,,,,,,,,,,,0,0,0,0,10,0,10,0,,,,,,,,,,,,,,,,,,,,,,,,,,,,,,,,,,,,,,,,,,,,,,,,,,,,,,,,,,,,,,,,,,,,,,0.1,,,,,,,,,,,,,,,,,,,,,,,,,,,,left,1,160,-30,130,2,2394.41329,2394.41329,2394.41329,None,None,3,0,2.3178652,,,,,,,,,,,,,,,,,,,10,12,1,2024-10-25_15h28.48.868,uWM_experiment,2022.2.3,60.000168
,,,,,,,,,,,,,,,,,,,,0,0,0,0,11,0,11,0,,,,,,,,,,,,,,,,,,,,,,,,,,,,,,,,,,,,,,,,,,,,,,,,,,,,,,,,,,,,,,,,,,,,,,0,,,,,,,,,,,,,,,,,,,,,,,,,,,,left,0,100,30,130,0,2403.680377,2403.680377,2403.680377,None,None,1,1,1.2988599,,,,,,,,,,,,,,,,,,,10,12,1,2024-10-25_15h28.48.868,uWM_experiment,2022.2.3,60.000168
,,,,,,,,,,,,,,,,,,,,0,0,0,0,12,0,12,0,,,,,,,,,,,,,,,,,,,,,,,,,,,,,,,,,,,,,,,,,,,,,,,,,,,,,,,,,,,,,,,,,,,,,,0.051480277,,,,,,,,,,,,,,,,,,,,,,,,,,,,right,1,130,30,160,1,2411.880668,2411.880668,2411.880668,None,None,2,0,0.9065978,,,,,,,,,,,,,,,,,,,10,12,1,2024-10-25_15h28.48.868,uWM_experiment,2022.2.3,60.000168
,,,,,,,,,,,,,,,,,,,,0,0,0,0,13,0,13,0,,,,,,,,,,,,,,,,,,,,,,,,,,,,,,,,,,,,,,,,,,,,,,,,,,,,,,,,,,,,,,,,,,,,,,0.041480277,,,,,,,,,,,,,,,,,,,,,,,,,,,,left,1,160,-30,130,1,2418.964272,2418.964272,2418.964272,None,None,1,1,0.8068384,,,,,,,,,,,,,,,,,,,10,12,1,2024-10-25_15h28.48.868,uWM_experiment,2022.2.3,60.000168
,,,,,,,,,,,,,,,,,,,,0,0,0,0,14,0,14,0,,,,,,,,,,,,,,,,,,,,,,,,,,,,,,,,,,,,,,,,,,,,,,,,,,,,,,,,,,,,,,,,,,,,,,0,,,,,,,,,,,,,,,,,,,,,,,,,,,,right,0,70,-30,40,0,2427.397929,2427.397929,2427.397929,None,None,2,0,0.6131938,,,,,,,,,,,,,,,,,,,10,12,1,2024-10-25_15h28.48.868,uWM_experiment,2022.2.3,60.000168
,,,,,,,,,,,,,,,,,,,,0,0,0,0,15,0,15,0,,,,,,,,,,,,,,,,,,,,,,,,,,,,,,,,,,,,,,,,,,,,,,,,,,,,,,,,,,,,,,,,,,,,,,0.051480277,,,,,,,,,,,,,,,,,,,,,,,,,,,,left,0,130,30,160,1,2434.464877,2434.464877,2434.464877,None,None,1,1,0.8502177,,,,,,,,,,,,,,,,,,,10,12,1,2024-10-25_15h28.48.868,uWM_experiment,2022.2.3,60.000168
,,,,,,,,,,,,,,,,,,,,0,0,0,0,16,0,16,0,,,,,,,,,,,,,,,,,,,,,,,,,,,,,,,,,,,,,,,,,,,,,,,,,,,,,,,,,,,,,,,,,,,,,,0.061480277,,,,,,,,,,,,,,,,,,,,,,,,,,,,right,0,40,-30,10,1,2443.798578,2443.798578,2443.798578,None,None,2,0,0.6683534,,,,,,,,,,,,,,,,,,,10,12,1,2024-10-25_15h28.48.868,uWM_experiment,2022.2.3,60.000168
,,,,,,,,,,,,,,,,,,,,0,0,0,0,17,0,17,0,,,,,,,,,,,,,,,,,,,,,,,,,,,,,,,,,,,,,,,,,,,,,,,,,,,,,,,,,,,,,,,,,,,,,,0.051480277,,,,,,,,,,,,,,,,,,,,,,,,,,,,left,1,10,-30,-20,1,2451.198853,2451.198853,2451.198853,None,None,3,0,0.9241,,,,,,,,,,,,,,,,,,,10,12,1,2024-10-25_15h28.48.868,uWM_experiment,2022.2.3,60.000168
,,,,,,,,,,,,,,,,,,,,0,0,0,0,18,0,18,0,,,,,,,,,,,,,,,,,,,,,,,,,,,,,,,,,,,,,,,,,,,,,,,,,,,,,,,,,,,,,,,,,,,,,,0.041480277,,,,,,,,,,,,,,,,,,,,,,,,,,,,right,1,130,30,160,1,2461.932612,2461.932612,2461.932612,None,None,2,0,0.8542176,,,,,,,,,,,,,,,,,,,10,12,1,2024-10-25_15h28.48.868,uWM_experiment,2022.2.3,60.000168
,,,,,,,,,,,,,,,,,,,,0,0,0,0,19,0,19,0,,,,,,,,,,,,,,,,,,,,,,,,,,,,,,,,,,,,,,,,,,,,,,,,,,,,,,,,,,,,,,,,,,,,,,0.031480277,,,,,,,,,,,,,,,,,,,,,,,,,,,,left,1,40,-30,10,1,2469.366222,2469.366222,2469.366222,None,None,3,0,1.1406802,,,,,,,,,,,,,,,,,,,10,12,1,2024-10-25_15h28.48.868,uWM_experiment,2022.2.3,60.000168
,,,,,,,,,,,,,,,,,,,,0,0,0,0,20,0,20,0,,,,,,,,,,,,,,,,,,,,,,,,,,,,,,,,,,,,,,,,,,,,,,,,,,,,,,,,,,,,,,,,,,,,,,0,,,,,,,,,,,,,,,,,,,,,,,,,,,,left,1,40,-30,10,0,2476.716515,2476.716515,2476.716515,None,None,2,0,1.8463317,,,,,,,,,,,,,,,,,,,10,12,1,2024-10-25_15h28.48.868,uWM_experiment,2022.2.3,60.000168
,,,,,,,,,,,,,,,,,,,,0,0,0,0,21,0,21,0,,,,,,,,,,,,,,,,,,,,,,,,,,,,,,,,,,,,,,,,,,,,,,,,,,,,,,,,,,,,,,,,,,,,,,0.021480277,,,,,,,,,,,,,,,,,,,,,,,,,,,,left,1,70,-30,40,1,2484.633491,2484.633491,2484.633491,None,None,1,1,1.0253113,,,,,,,,,,,,,,,,,,,10,12,1,2024-10-25_15h28.48.868,uWM_experiment,2022.2.3,60.000168
,,,,,,,,,,,,,,,,,,,,0,0,0,0,22,0,22,0,,,,,,,,,,,,,,,,,,,,,,,,,,,,,,,,,,,,,,,,,,,,,,,,,,,,,,,,,,,,,,,,,,,,,,0.031480277,,,,,,,,,,,,,,,,,,,,,,,,,,,,right,0,70,-30,40,1,2492.850463,2492.850463,2492.850463,None,None,1,1,1.6721553,,,,,,,,,,,,,,,,,,,10,12,1,2024-10-25_15h28.48.868,uWM_experiment,2022.2.3,60.000168
,,,,,,,,,,,,,,,,,,,,0,0,0,0,23,0,23,0,,,,,,,,,,,,,,,,,,,,,,,,,,,,,,,,,,,,,,,,,,,,,,,,,,,,,,,,,,,,,,,,,,,,,,0,,,,,,,,,,,,,,,,,,,,,,,,,,,,left,0,100,30,130,0,2506.134315,2506.134315,2506.134315,None,None,2,0,0.9562924,,,,,,,,,,,,,,,,,,,10,12,1,2024-10-25_15h28.48.868,uWM_experiment,2022.2.3,60.000168
,,,,,,,,,,,,,,,,,,,,0,0,0,0,,,,,0,0,0,0,,,,,,,,,,,,,,,,,,,,,,,,,,,,,,,,,,,,,,,,,,,,,,,,,,,,,,,,,,,,,,,,,,,,,,,,,,,,,,,,,,,,,,,,,,,,,,,,,,,,,,,,,,,,2507.117674,2507.117674,space,156.4522346,None,None,,,,,,,,,,,,,10,12,1,2024-10-25_15h28.48.868,uWM_experiment,2022.2.3,60.000168
,,,,,,,,,,,,,,,,,,,,0,0,0,0,,,,,1,0,1,0,,,,,,,,,,,,,,,,,,,,,,,,,,,,,,,,,,,,,,,,,,,,,,,,,,,,,,,,,,,,,,,,,,,,,,,,,,,,,,,,,,,,,,,,,,,,,,,,,,,,,,,,,,,,,,,,,,,,,,,,,,,,,,10,12,1,2024-10-25_15h28.48.868,uWM_experiment,2022.2.3,60.000168
,,,,,,,,,,,,,,,,,,,,0,0,0,0,,,,,2,0,2,0,,,,,,,,,,,,,,,,,,,,,,,,,,,,,,,,,,,,,,,,,,,,,,,,,,,,,,,,,,,,,,,,,,,,,,,,,,,,,,,,,,,,,,,,,,,,,,,,,,,,,,,,,,,,,,,,,,,,,,,,,,,,,,10,12,1,2024-10-25_15h28.48.868,uWM_experiment,2022.2.3,60.000168
,,,,,,,,,,,,,,,,,,,,1,0,1,0,0,0,0,0,,,,,,,,,,,,,,,,,,,,,,,,,,,,,,,,,,,,,,,,,,,,,,,,,,,,,,,,,,,,,,,,,,,,,,0,,,,,,,,,,,,,,,,,,,,2663.590435,2664.290449,2664.590468,2665.290497,2665.59051,2666.290536,2666.290536,2666.607227,left,0,10,30,40,0,2673.757523,2673.757523,2673.757523,None,None,1,1,1.1162228,,,,,,,None,,,,,,,,,,,,10,12,1,2024-10-25_15h28.48.868,uWM_experiment,2022.2.3,60.000168
,,,,,,,,,,,,,,,,,,,,1,0,1,0,1,0,1,0,,,,,,,,,,,,,,,,,,,,,,,,,,,,,,,,,,,,,,,,,,,,,,,,,,,,,,,,,,,,,,,,,,,,,,0.041480277,,,,,,,,,,,,,,,,,,,,,,,,,,,,left,1,70,-30,40,1,2681.274462,2681.274462,2681.274462,None,None,3,0,2.5432426,,,,,,,,,,,,,,,,,,,10,12,1,2024-10-25_15h28.48.868,uWM_experiment,2022.2.3,60.000168
,,,,,,,,,,,,,,,,,,,,1,0,1,0,2,0,2,0,,,,,,,,,,,,,,,,,,,,,,,,,,,,,,,,,,,,,,,,,,,,,,,,,,,,,,,,,,,,,,,,,,,,,,0.031480277,,,,,,,,,,,,,,,,,,,,,,,,,,,,left,1,70,-30,40,1,2690.091468,2690.091468,2690.091468,None,None,1,1,0.9020926,,,,,,,,,,,,,,,,,,,10,12,1,2024-10-25_15h28.48.868,uWM_experiment,2022.2.3,60.000168
,,,,,,,,,,,,,,,,,,,,1,0,1,0,3,0,3,0,,,,,,,,,,,,,,,,,,,,,,,,,,,,,,,,,,,,,,,,,,,,,,,,,,,,,,,,,,,,,,,,,,,,,,0.041480277,,,,,,,,,,,,,,,,,,,,,,,,,,,,right,1,40,30,70,1,2697.80845,2697.80845,2697.80845,None,None,3,0,0.9932311,,,,,,,,,,,,,,,,,,,10,12,1,2024-10-25_15h28.48.868,uWM_experiment,2022.2.3,60.000168
,,,,,,,,,,,,,,,,,,,,1,0,1,0,4,0,4,0,,,,,,,,,,,,,,,,,,,,,,,,,,,,,,,,,,,,,,,,,,,,,,,,,,,,,,,,,,,,,,,,,,,,,,0,,,,,,,,,,,,,,,,,,,,,,,,,,,,right,1,130,30,160,0,2705.358735,2705.358735,2705.358735,None,None,3,0,2.7547506,,,,,,,,,,,,,,,,,,,10,12,1,2024-10-25_15h28.48.868,uWM_experiment,2022.2.3,60.000168
,,,,,,,,,,,,,,,,,,,,1,0,1,0,5,0,5,0,,,,,,,,,,,,,,,,,,,,,,,,,,,,,,,,,,,,,,,,,,,,,,,,,,,,,,,,,,,,,,,,,,,,,,0.031480277,,,,,,,,,,,,,,,,,,,,,,,,,,,,right,0,40,-30,10,1,2720.842665,2720.842665,2720.842665,None,None,3,0,1.8867801,,,,,,,,,,,,,,,,,,,10,12,1,2024-10-25_15h28.48.868,uWM_experiment,2022.2.3,60.000168
,,,,,,,,,,,,,,,,,,,,1,0,1,0,6,0,6,0,,,,,,,,,,,,,,,,,,,,,,,,,,,,,,,,,,,,,,,,,,,,,,,,,,,,,,,,,,,,,,,,,,,,,,0.021480277,,,,,,,,,,,,,,,,,,,,,,,,,,,,left,0,70,30,100,1,2734.05985,2734.05985,2734.05985,None,None,3,0,1.9816006,,,,,,,,,,,,,,,,,,,10,12,1,2024-10-25_15h28.48.868,uWM_experiment,2022.2.3,60.000168
,,,,,,,,,,,,,,,,,,,,1,0,1,0,7,0,7,0,,,,,,,,,,,,,,,,,,,,,,,,,,,,,,,,,,,,,,,,,,,,,,,,,,,,,,,,,,,,,,,,,,,,,,0.011480277,,,,,,,,,,,,,,,,,,,,,,,,,,,,right,0,10,-30,-20,1,2742.610213,2742.610213,2742.610213,None,None,1,1,2.1030745,,,,,,,,,,,,,,,,,,,10,12,1,2024-10-25_15h28.48.868,uWM_experiment,2022.2.3,60.000168
,,,,,,,,,,,,,,,,,,,,1,0,1,0,8,0,8,0,,,,,,,,,,,,,,,,,,,,,,,,,,,,,,,,,,,,,,,,,,,,,,,,,,,,,,,,,,,,,,,,,,,,,,0,,,,,,,,,,,,,,,,,,,,,,,,,,,,right,1,40,30,70,0,2753.043954,2753.043954,2753.043954,None,None,2,0,0.6614094,,,,,,,,,,,,,,,,,,,10,12,1,2024-10-25_15h28.48.868,uWM_experiment,2022.2.3,60.000168
,,,,,,,,,,,,,,,,,,,,1,0,1,0,9,0,9,0,,,,,,,,,,,,,,,,,,,,,,,,,,,,,,,,,,,,,,,,,,,,,,,,,,,,,,,,,,,,,,,,,,,,,,0.021480277,,,,,,,,,,,,,,,,,,,,,,,,,,,,left,1,160,-30,130,1,2760.810876,2760.810876,2760.810876,None,None,1,1,1.4703083,,,,,,,,,,,,,,,,,,,10,12,1,2024-10-25_15h28.48.868,uWM_experiment,2022.2.3,60.000168
,,,,,,,,,,,,,,,,,,,,1,0,1,0,10,0,10,0,,,,,,,,,,,,,,,,,,,,,,,,,,,,,,,,,,,,,,,,,,,,,,,,,,,,,,,,,,,,,,,,,,,,,,0.031480277,,,,,,,,,,,,,,,,,,,,,,,,,,,,left,1,40,-30,10,1,2771.394624,2771.394624,2771.394624,None,None,1,1,1.1106934,,,,,,,,,,,,,,,,,,,10,12,1,2024-10-25_15h28.48.868,uWM_experiment,2022.2.3,60.000168
,,,,,,,,,,,,,,,,,,,,1,0,1,0,11,0,11,0,,,,,,,,,,,,,,,,,,,,,,,,,,,,,,,,,,,,,,,,,,,,,,,,,,,,,,,,,,,,,,,,,,,,,,0.041480277,,,,,,,,,,,,,,,,,,,,,,,,,,,,right,0,100,-30,70,1,2783.845173,2783.845173,2783.845173,None,None,1,1,1.6198772,,,,,,,,,,,,,,,,,,,10,12,1,2024-10-25_15h28.48.868,uWM_experiment,2022.2.3,60.000168
,,,,,,,,,,,,,,,,,,,,1,0,1,0,12,0,12,0,,,,,,,,,,,,,,,,,,,,,,,,,,,,,,,,,,,,,,,,,,,,,,,,,,,,,,,,,,,,,,,,,,,,,,0.051480277,,,,,,,,,,,,,,,,,,,,,,,,,,,,left,0,70,30,100,1,2794.212184,2794.212184,2794.212184,None,None,2,0,0.9728501,,,,,,,,,,,,,,,,,,,10,12,1,2024-10-25_15h28.48.868,uWM_experiment,2022.2.3,60.000168
,,,,,,,,,,,,,,,,,,,,1,0,1,0,13,0,13,0,,,,,,,,,,,,,,,,,,,,,,,,,,,,,,,,,,,,,,,,,,,,,,,,,,,,,,,,,,,,,,,,,,,,,,0.041480277,,,,,,,,,,,,,,,,,,,,,,,,,,,,left,0,100,30,130,1,2803.795911,2803.795911,2803.795911,None,None,2,0,1.6450602,,,,,,,,,,,,,,,,,,,10,12,1,2024-10-25_15h28.48.868,uWM_experiment,2022.2.3,60.000168
,,,,,,,,,,,,,,,,,,,,1,0,1,0,14,0,14,0,,,,,,,,,,,,,,,,,,,,,,,,,,,,,,,,,,,,,,,,,,,,,,,,,,,,,,,,,,,,,,,,,,,,,,0.031480277,,,,,,,,,,,,,,,,,,,,,,,,,,,,right,1,40,30,70,1,2813.329613,2813.329613,2813.329613,None,None,2,0,1.8153578,,,,,,,,,,,,,,,,,,,10,12,1,2024-10-25_15h28.48.868,uWM_experiment,2022.2.3,60.000168
,,,,,,,,,,,,,,,,,,,,1,0,1,0,15,0,15,0,,,,,,,,,,,,,,,,,,,,,,,,,,,,,,,,,,,,,,,,,,,,,,,,,,,,,,,,,,,,,,,,,,,,,,0,,,,,,,,,,,,,,,,,,,,,,,,,,,,left,0,10,30,40,0,2822.379957,2822.379957,2822.379957,None,None,2,0,0.636912,,,,,,,,,,,,,,,,,,,10,12,1,2024-10-25_15h28.48.868,uWM_experiment,2022.2.3,60.000168
,,,,,,,,,,,,,,,,,,,,1,0,1,0,16,0,16,0,,,,,,,,,,,,,,,,,,,,,,,,,,,,,,,,,,,,,,,,,,,,,,,,,,,,,,,,,,,,,,,,,,,,,,0.021480277,,,,,,,,,,,,,,,,,,,,,,,,,,,,left,1,160,-30,130,1,2829.580229,2829.580229,2829.580229,None,None,2,0,0.9086314,,,,,,,,,,,,,,,,,,,10,12,1,2024-10-25_15h28.48.868,uWM_experiment,2022.2.3,60.000168
,,,,,,,,,,,,,,,,,,,,1,0,1,0,17,0,17,0,,,,,,,,,,,,,,,,,,,,,,,,,,,,,,,,,,,,,,,,,,,,,,,,,,,,,,,,,,,,,,,,,,,,,,0.011480277,,,,,,,,,,,,,,,,,,,,,,,,,,,,right,0,160,-30,130,1,2838.297245,2838.297245,2838.297245,None,None,2,0,0.6237052,,,,,,,,,,,,,,,,,,,10,12,1,2024-10-25_15h28.48.868,uWM_experiment,2022.2.3,60.000168
,,,,,,,,,,,,,,,,,,,,1,0,1,0,18,0,18,0,,,,,,,,,,,,,,,,,,,,,,,,,,,,,,,,,,,,,,,,,,,,,,,,,,,,,,,,,,,,,,,,,,,,,,0,,,,,,,,,,,,,,,,,,,,,,,,,,,,right,1,10,30,40,0,2846.097555,2846.097555,2846.097555,None,None,2,0,0.9351656,,,,,,,,,,,,,,,,,,,10,12,1,2024-10-25_15h28.48.868,uWM_experiment,2022.2.3,60.000168
,,,,,,,,,,,,,,,,,,,,1,0,1,0,19,0,19,0,,,,,,,,,,,,,,,,,,,,,,,,,,,,,,,,,,,,,,,,,,,,,,,,,,,,,,,,,,,,,,,,,,,,,,0.005,,,,,,,,,,,,,,,,,,,,,,,,,,,,right,1,40,30,70,1,2854.314536,2854.314536,2854.314536,None,None,1,1,0.8782274,,,,,,,,,,,,,,,,,,,10,12,1,2024-10-25_15h28.48.868,uWM_experiment,2022.2.3,60.000168
,,,,,,,,,,,,,,,,,,,,1,0,1,0,20,0,20,0,,,,,,,,,,,,,,,,,,,,,,,,,,,,,,,,,,,,,,,,,,,,,,,,,,,,,,,,,,,,,,,,,,,,,,0,,,,,,,,,,,,,,,,,,,,,,,,,,,,left,0,100,30,130,0,2861.098119,2861.098119,2861.098119,None,None,1,1,1.0227149,,,,,,,,,,,,,,,,,,,10,12,1,2024-10-25_15h28.48.868,uWM_experiment,2022.2.3,60.000168
,,,,,,,,,,,,,,,,,,,,1,0,1,0,21,0,21,0,,,,,,,,,,,,,,,,,,,,,,,,,,,,,,,,,,,,,,,,,,,,,,,,,,,,,,,,,,,,,,,,,,,,,,0,,,,,,,,,,,,,,,,,,,,,,,,,,,,left,0,10,30,40,0,2871.531845,2871.531845,2871.531845,None,None,1,1,2.0128154,,,,,,,,,,,,,,,,,,,10,12,1,2024-10-25_15h28.48.868,uWM_experiment,2022.2.3,60.000168
,,,,,,,,,,,,,,,,,,,,1,0,1,0,22,0,22,0,,,,,,,,,,,,,,,,,,,,,,,,,,,,,,,,,,,,,,,,,,,,,,,,,,,,,,,,,,,,,,,,,,,,,,0.015,,,,,,,,,,,,,,,,,,,,,,,,,,,,left,0,70,30,100,1,2883.298972,2883.298972,2883.298972,None,None,2,0,1.4137292,,,,,,,,,,,,,,,,,,,10,12,1,2024-10-25_15h28.48.868,uWM_experiment,2022.2.3,60.000168
,,,,,,,,,,,,,,,,,,,,1,0,1,0,23,0,23,0,,,,,,,,,,,,,,,,,,,,,,,,,,,,,,,,,,,,,,,,,,,,,,,,,,,,,,,,,,,,,,,,,,,,,,0.005,,,,,,,,,,,,,,,,,,,,,,,,,,,,right,1,10,30,40,1,2892.766019,2892.766019,2892.766019,None,None,2,0,1.2665473,,,,,,,,,,,,,,,,,,,10,12,1,2024-10-25_15h28.48.868,uWM_experiment,2022.2.3,60.000168
,,,,,,,,,,,,,,,,,,,,1,0,1,0,,,,,0,0,0,0,,,,,,,,,,,,,,,,,,,,,,,,,,,,,,,,,,,,,,,,,,,,,,,,,,,,,,,,,,,,,,,,,,,,,,,,,,,,,,,,,,,,,,,,,,,,,,,,,,,,,,,,,,,,2894.04939,2894.04939,space,80.6388082,None,None,,,,,,,,,,,,,10,12,1,2024-10-25_15h28.48.868,uWM_experiment,2022.2.3,60.000168
,,,,,,,,,,,,,,,,,,,,1,0,1,0,,,,,1,0,1,0,,,,,,,,,,,,,,,,,,,,,,,,,,,,,,,,,,,,,,,,,,,,,,,,,,,,,,,,,,,,,,,,,,,,,,,,,,,,,,,,,,,,,,,,,,,,,,,,,,,,,,,,,,,,,,,,,,,,,,,,,,,,,,10,12,1,2024-10-25_15h28.48.868,uWM_experiment,2022.2.3,60.000168
,,,,,,,,,,,,,,,,,,,,1,0,1,0,,,,,2,0,2,0,,,,,,,,,,,,,,,,,,,,,,,,,,,,,,,,,,,,,,,,,,,,,,,,,,,,,,,,,,,,,,,,,,,,,,,,,,,,,,,,,,,,,,,,,,,,,,,,,,,,,,,,,,,,,,,,,,,,,,,,,,,,,,10,12,1,2024-10-25_15h28.48.868,uWM_experiment,2022.2.3,60.000168
,,,,,,,,,,,,,,,,,,,,2,0,2,0,0,0,0,0,,,,,,,,,,,,,,,,,,,,,,,,,,,,,,,,,,,,,,,,,,,,,,,,,,,,,,,,,,,,,,,,,,,,,,0.1,,,,,,,,,,,,,,,,,,,,2974.719194,2975.419199,2975.719236,2976.419264,2976.719265,2977.419298,2977.419298,2977.736004,left,0,70,30,100,2,2986.219662,2986.219662,2986.219662,None,None,2,0,3.0842945,,,,,,,None,,,,,,,,,,,,10,12,1,2024-10-25_15h28.48.868,uWM_experiment,2022.2.3,60.000168
,,,,,,,,,,,,,,,,,,,,2,0,2,0,1,0,1,0,,,,,,,,,,,,,,,,,,,,,,,,,,,,,,,,,,,,,,,,,,,,,,,,,,,,,,,,,,,,,,,,,,,,,,0.005,,,,,,,,,,,,,,,,,,,,,,,,,,,,right,1,100,30,130,1,2995.653372,2995.653372,2995.653372,None,None,1,1,0.7946995,,,,,,,,,,,,,,,,,,,10,12,1,2024-10-25_15h28.48.868,uWM_experiment,2022.2.3,60.000168
,,,,,,,,,,,,,,,,,,,,2,0,2,0,2,0,2,0,,,,,,,,,,,,,,,,,,,,,,,,,,,,,,,,,,,,,,,,,,,,,,,,,,,,,,,,,,,,,,,,,,,,,,0.015,,,,,,,,,,,,,,,,,,,,,,,,,,,,left,0,10,30,40,1,3002.620273,3002.620273,3002.620273,None,None,1,1,1.0757523,,,,,,,,,,,,,,,,,,,10,12,1,2024-10-25_15h28.48.868,uWM_experiment,2022.2.3,60.000168
,,,,,,,,,,,,,,,,,,,,2,0,2,0,3,0,3,0,,,,,,,,,,,,,,,,,,,,,,,,,,,,,,,,,,,,,,,,,,,,,,,,,,,,,,,,,,,,,,,,,,,,,,0,,,,,,,,,,,,,,,,,,,,,,,,,,,,left,1,100,-30,70,0,3009.787255,3009.787255,3009.787255,None,None,1,1,0.7247526,,,,,,,,,,,,,,,,,,,10,12,1,2024-10-25_15h28.48.868,uWM_experiment,2022.2.3,60.000168
,,,,,,,,,,,,,,,,,,,,2,0,2,0,4,0,4,0,,,,,,,,,,,,,,,,,,,,,,,,,,,,,,,,,,,,,,,,,,,,,,,,,,,,,,,,,,,,,,,,,,,,,,0.025,,,,,,,,,,,,,,,,,,,,,,,,,,,,right,0,70,-30,40,1,3016.604175,3016.604175,3016.604175,None,None,1,1,0.6196571,,,,,,,,,,,,,,,,,,,10,12,1,2024-10-25_15h28.48.868,uWM_experiment,2022.2.3,60.000168
,,,,,,,,,,,,,,,,,,,,2,0,2,0,5,0,5,0,,,,,,,,,,,,,,,,,,,,,,,,,,,,,,,,,,,,,,,,,,,,,,,,,,,,,,,,,,,,,,,,,,,,,,0.035,,,,,,,,,,,,,,,,,,,,,,,,,,,,left,1,70,-30,40,1,3023.371113,3023.371113,3023.371113,None,None,2,0,0.7247601,,,,,,,,,,,,,,,,,,,10,12,1,2024-10-25_15h28.48.868,uWM_experiment,2022.2.3,60.000168
,,,,,,,,,,,,,,,,,,,,2,0,2,0,6,0,6,0,,,,,,,,,,,,,,,,,,,,,,,,,,,,,,,,,,,,,,,,,,,,,,,,,,,,,,,,,,,,,,,,,,,,,,0.025,,,,,,,,,,,,,,,,,,,,,,,,,,,,right,1,100,30,130,1,3030.471364,3030.471364,3030.471364,None,None,1,1,0.9683481,,,,,,,,,,,,,,,,,,,10,12,1,2024-10-25_15h28.48.868,uWM_experiment,2022.2.3,60.000168
,,,,,,,,,,,,,,,,,,,,2,0,2,0,7,0,7,0,,,,,,,,,,,,,,,,,,,,,,,,,,,,,,,,,,,,,,,,,,,,,,,,,,,,,,,,,,,,,,,,,,,,,,0.035,,,,,,,,,,,,,,,,,,,,,,,,,,,,right,1,130,30,160,1,3038.55503,3038.55503,3038.55503,None,None,2,0,0.7567532,,,,,,,,,,,,,,,,,,,10,12,1,2024-10-25_15h28.48.868,uWM_experiment,2022.2.3,60.000168
,,,,,,,,,,,,,,,,,,,,2,0,2,0,8,0,8,0,,,,,,,,,,,,,,,,,,,,,,,,,,,,,,,,,,,,,,,,,,,,,,,,,,,,,,,,,,,,,,,,,,,,,,0.025,,,,,,,,,,,,,,,,,,,,,,,,,,,,left,1,40,-30,10,1,3045.305257,3045.305257,3045.305257,None,None,2,0,0.6464956,,,,,,,,,,,,,,,,,,,10,12,1,2024-10-25_15h28.48.868,uWM_experiment,2022.2.3,60.000168
,,,,,,,,,,,,,,,,,,,,2,0,2,0,9,0,9,0,,,,,,,,,,,,,,,,,,,,,,,,,,,,,,,,,,,,,,,,,,,,,,,,,,,,,,,,,,,,,,,,,,,,,,0,,,,,,,,,,,,,,,,,,,,,,,,,,,,right,1,100,30,130,0,3052.205559,3052.205559,3052.205559,None,None,1,1,1.0901885,,,,,,,,,,,,,,,,,,,10,12,1,2024-10-25_15h28.48.868,uWM_experiment,2022.2.3,60.000168
,,,,,,,,,,,,,,,,,,,,2,0,2,0,10,0,10,0,,,,,,,,,,,,,,,,,,,,,,,,,,,,,,,,,,,,,,,,,,,,,,,,,,,,,,,,,,,,,,,,,,,,,,0.015,,,,,,,,,,,,,,,,,,,,,,,,,,,,left,0,70,30,100,1,3061.65591,3061.65591,3061.65591,None,None,1,1,0.7436879,,,,,,,,,,,,,,,,,,,10,12,1,2024-10-25_15h28.48.868,uWM_experiment,2022.2.3,60.000168
,,,,,,,,,,,,,,,,,,,,2,0,2,0,11,0,11,0,,,,,,,,,,,,,,,,,,,,,,,,,,,,,,,,,,,,,,,,,,,,,,,,,,,,,,,,,,,,,,,,,,,,,,0,,,,,,,,,,,,,,,,,,,,,,,,,,,,left,1,40,-30,10,0,3069.27289,3069.27289,3069.27289,None,None,1,1,1.2147509,,,,,,,,,,,,,,,,,,,10,12,1,2024-10-25_15h28.48.868,uWM_experiment,2022.2.3,60.000168
,,,,,,,,,,,,,,,,,,,,2,0,2,0,12,0,12,0,,,,,,,,,,,,,,,,,,,,,,,,,,,,,,,,,,,,,,,,,,,,,,,,,,,,,,,,,,,,,,,,,,,,,,0,,,,,,,,,,,,,,,,,,,,,,,,,,,,right,0,70,-30,40,0,3077.723205,3077.723205,3077.723205,None,None,2,0,1.5404048,,,,,,,,,,,,,,,,,,,10,12,1,2024-10-25_15h28.48.868,uWM_experiment,2022.2.3,60.000168
,,,,,,,,,,,,,,,,,,,,2,0,2,0,13,0,13,0,,,,,,,,,,,,,,,,,,,,,,,,,,,,,,,,,,,,,,,,,,,,,,,,,,,,,,,,,,,,,,,,,,,,,,0.025,,,,,,,,,,,,,,,,,,,,,,,,,,,,left,1,160,-30,130,1,3087.873613,3087.873613,3087.873613,None,None,2,0,0.9418935,,,,,,,,,,,,,,,,,,,10,12,1,2024-10-25_15h28.48.868,uWM_experiment,2022.2.3,60.000168
,,,,,,,,,,,,,,,,,,,,2,0,2,0,14,0,14,0,,,,,,,,,,,,,,,,,,,,,,,,,,,,,,,,,,,,,,,,,,,,,,,,,,,,,,,,,,,,,,,,,,,,,,0.015,,,,,,,,,,,,,,,,,,,,,,,,,,,,left,1,130,-30,100,1,3098.674033,3098.674033,3098.674033,None,None,2,0,2.1894616,,,,,,,,,,,,,,,,,,,10,12,1,2024-10-25_15h28.48.868,uWM_experiment,2022.2.3,60.000168
,,,,,,,,,,,,,,,,,,,,2,0,2,0,15,0,15,0,,,,,,,,,,,,,,,,,,,,,,,,,,,,,,,,,,,,,,,,,,,,,,,,,,,,,,,,,,,,,,,,,,,,,,0.005,,,,,,,,,,,,,,,,,,,,,,,,,,,,left,1,130,-30,100,1,3108.924417,3108.924417,3108.924417,None,None,1,1,1.2350246,,,,,,,,,,,,,,,,,,,10,12,1,2024-10-25_15h28.48.868,uWM_experiment,2022.2.3,60.000168
,,,,,,,,,,,,,,,,,,,,2,0,2,0,16,0,16,0,,,,,,,,,,,,,,,,,,,,,,,,,,,,,,,,,,,,,,,,,,,,,,,,,,,,,,,,,,,,,,,,,,,,,,0.015,,,,,,,,,,,,,,,,,,,,,,,,,,,,left,0,130,30,160,1,3117.591419,3117.591419,3117.591419,None,None,2,0,1.0160074,,,,,,,,,,,,,,,,,,,10,12,1,2024-10-25_15h28.48.868,uWM_experiment,2022.2.3,60.000168
,,,,,,,,,,,,,,,,,,,,2,0,2,0,17,0,17,0,,,,,,,,,,,,,,,,,,,,,,,,,,,,,,,,,,,,,,,,,,,,,,,,,,,,,,,,,,,,,,,,,,,,,,0.005,,,,,,,,,,,,,,,,,,,,,,,,,,,,left,0,10,30,40,1,3124.958435,3124.958435,3124.958435,None,None,2,0,1.3929565,,,,,,,,,,,,,,,,,,,10,12,1,2024-10-25_15h28.48.868,uWM_experiment,2022.2.3,60.000168
,,,,,,,,,,,,,,,,,,,,2,0,2,0,18,0,18,0,,,,,,,,,,,,,,,,,,,,,,,,,,,,,,,,,,,,,,,,,,,,,,,,,,,,,,,,,,,,,,,,,,,,,,0.005,,,,,,,,,,,,,,,,,,,,,,,,,,,,left,0,100,30,130,1,3132.425326,3132.425326,3132.425326,None,None,1,1,2.0139778,,,,,,,,,,,,,,,,,,,10,12,1,2024-10-25_15h28.48.868,uWM_experiment,2022.2.3,60.000168
,,,,,,,,,,,,,,,,,,,,2,0,2,0,19,0,19,0,,,,,,,,,,,,,,,,,,,,,,,,,,,,,,,,,,,,,,,,,,,,,,,,,,,,,,,,,,,,,,,,,,,,,,0.015,,,,,,,,,,,,,,,,,,,,,,,,,,,,left,0,70,30,100,1,3140.425676,3140.425676,3140.425676,None,None,1,1,0.6295639,,,,,,,,,,,,,,,,,,,10,12,1,2024-10-25_15h28.48.868,uWM_experiment,2022.2.3,60.000168
,,,,,,,,,,,,,,,,,,,,2,0,2,0,20,0,20,0,,,,,,,,,,,,,,,,,,,,,,,,,,,,,,,,,,,,,,,,,,,,,,,,,,,,,,,,,,,,,,,,,,,,,,0.025,,,,,,,,,,,,,,,,,,,,,,,,,,,,right,1,130,30,160,1,3148.69263,3148.69263,3148.69263,None,None,2,0,1.4106083,,,,,,,,,,,,,,,,,,,10,12,1,2024-10-25_15h28.48.868,uWM_experiment,2022.2.3,60.000168
,,,,,,,,,,,,,,,,,,,,2,0,2,0,21,0,21,0,,,,,,,,,,,,,,,,,,,,,,,,,,,,,,,,,,,,,,,,,,,,,,,,,,,,,,,,,,,,,,,,,,,,,,0.1,,,,,,,,,,,,,,,,,,,,,,,,,,,,left,1,10,-30,-20,2,3158.759712,3158.759712,3158.759712,None,None,3,0,2.5274182,,,,,,,,,,,,,,,,,,,10,12,1,2024-10-25_15h28.48.868,uWM_experiment,2022.2.3,60.000168
,,,,,,,,,,,,,,,,,,,,2,0,2,0,22,0,22,0,,,,,,,,,,,,,,,,,,,,,,,,,,,,,,,,,,,,,,,,,,,,,,,,,,,,,,,,,,,,,,,,,,,,,,0.015,,,,,,,,,,,,,,,,,,,,,,,,,,,,left,1,10,-30,-20,1,3167.31004,3167.31004,3167.31004,None,None,1,1,1.0330253,,,,,,,,,,,,,,,,,,,10,12,1,2024-10-25_15h28.48.868,uWM_experiment,2022.2.3,60.000168
,,,,,,,,,,,,,,,,,,,,2,0,2,0,23,0,23,0,,,,,,,,,,,,,,,,,,,,,,,,,,,,,,,,,,,,,,,,,,,,,,,,,,,,,,,,,,,,,,,,,,,,,,0,,,,,,,,,,,,,,,,,,,,,,,,,,,,right,0,70,-30,40,0,3174.510302,3174.510302,3174.510302,None,None,1,1,0.7526776,,,,,,,,,,,,,,,,,,,10,12,1,2024-10-25_15h28.48.868,uWM_experiment,2022.2.3,60.000168
,,,,,,,,,,,,,,,,,,,,2,0,2,0,,,,,0,0,0,0,,,,,,,,,,,,,,,,,,,,,,,,,,,,,,,,,,,,,,,,,,,,,,,,,,,,,,,,,,,,,,,,,,,,,,,,,,,,,,,,,,,,,,,,,,,,,,,,,,,,,,,,,,,,3175.29365,3175.29365,space,39.6011522,space,None,,3214.911872,3214.911872,154.0621866,,,,,,,,,10,12,1,2024-10-25_15h28.48.868,uWM_experiment,2022.2.3,60.000168
,,,,,,,,,,,,,,,,,,,,2,0,2,0,,,,,1,0,1,0,,,,,,,,,,,,,,,,,,,,,,,,,,,,,,,,,,,,,,,,,,,,,,,,,,,,,,,,,,,,,,,,,,,,,,,,,,,,,,,,,,,,,,,,,,,,,,,,,,,,,,,,,,,,,,,,,,,,,,,,,,,,,,10,12,1,2024-10-25_15h28.48.868,uWM_experiment,2022.2.3,60.000168
,,,,,,,,,,,,,,,,,,,,2,0,2,0,,,,,2,0,2,0,,,,,,,,,,,,,,,,,,,,,,,,,,,,,,,,,,,,,,,,,,,,,,,,,,,,,,,,,,,,,,,,,,,,,,,,,,,,,,,,,,,,,,,,,,,,,,,,,,,,,,,,,,,,,,,,,,,,,,,,,,,,,,10,12,1,2024-10-25_15h28.48.868,uWM_experiment,2022.2.3,60.000168
,,,,,,,,,,,,,,,,,,,,3,0,3,0,0,0,0,0,,,,,,,,,,,,,,,,,,,,,,,,,,,,,,,,,,,,,,,,,,,,,,,,,,,,,,,,,,,,,,,,,,,,,,0.025,,,,,,,,,,,,,,,,,,,,3369.001194,3369.701221,3370.001236,3370.701257,3371.001275,3371.701294,3371.701294,3372.017998,left,0,160,30,190,1,3378.584904,3378.584904,3378.584904,None,None,1,1,4.2769897,,,,,,,None,,,,,,,,,,,,10,12,1,2024-10-25_15h28.48.868,uWM_experiment,2022.2.3,60.000168
,,,,,,,,,,,,,,,,,,,,3,0,3,0,1,0,1,0,,,,,,,,,,,,,,,,,,,,,,,,,,,,,,,,,,,,,,,,,,,,,,,,,,,,,,,,,,,,,,,,,,,,,,0.035,,,,,,,,,,,,,,,,,,,,,,,,,,,,right,0,40,-30,10,1,3388.951986,3388.951986,3388.951986,None,None,1,1,0.6857814,,,,,,,,,,,,,,,,,,,10,12,1,2024-10-25_15h28.48.868,uWM_experiment,2022.2.3,60.000168
,,,,,,,,,,,,,,,,,,,,3,0,3,0,2,0,2,0,,,,,,,,,,,,,,,,,,,,,,,,,,,,,,,,,,,,,,,,,,,,,,,,,,,,,,,,,,,,,,,,,,,,,,0,,,,,,,,,,,,,,,,,,,,,,,,,,,,left,1,40,-30,10,0,3395.535557,3395.535557,3395.535557,None,None,1,1,0.7022275,,,,,,,,,,,,,,,,,,,10,12,1,2024-10-25_15h28.48.868,uWM_experiment,2022.2.3,60.000168
,,,,,,,,,,,,,,,,,,,,3,0,3,0,3,0,3,0,,,,,,,,,,,,,,,,,,,,,,,,,,,,,,,,,,,,,,,,,,,,,,,,,,,,,,,,,,,,,,,,,,,,,,0,,,,,,,,,,,,,,,,,,,,,,,,,,,,left,1,40,-30,10,0,3406.969359,3406.969359,3406.969359,None,None,1,1,2.1963746,,,,,,,,,,,,,,,,,,,10,12,1,2024-10-25_15h28.48.868,uWM_experiment,2022.2.3,60.000168
,,,,,,,,,,,,,,,,,,,,3,0,3,0,4,0,4,0,,,,,,,,,,,,,,,,,,,,,,,,,,,,,,,,,,,,,,,,,,,,,,,,,,,,,,,,,,,,,,,,,,,,,,0.045,,,,,,,,,,,,,,,,,,,,,,,,,,,,left,1,160,-30,130,1,3419.019813,3419.019813,3419.019813,None,None,2,0,1.9377946,,,,,,,,,,,,,,,,,,,10,12,1,2024-10-25_15h28.48.868,uWM_experiment,2022.2.3,60.000168
,,,,,,,,,,,,,,,,,,,,3,0,3,0,5,0,5,0,,,,,,,,,,,,,,,,,,,,,,,,,,,,,,,,,,,,,,,,,,,,,,,,,,,,,,,,,,,,,,,,,,,,,,0,,,,,,,,,,,,,,,,,,,,,,,,,,,,left,0,100,30,130,0,3427.720166,3427.720166,3427.720166,None,None,1,1,1.4455915,,,,,,,,,,,,,,,,,,,10,12,1,2024-10-25_15h28.48.868,uWM_experiment,2022.2.3,60.000168
,,,,,,,,,,,,,,,,,,,,3,0,3,0,6,0,6,0,,,,,,,,,,,,,,,,,,,,,,,,,,,,,,,,,,,,,,,,,,,,,,,,,,,,,,,,,,,,,,,,,,,,,,0.035,,,,,,,,,,,,,,,,,,,,,,,,,,,,left,0,160,30,190,1,3435.287105,3435.287105,3435.287105,None,None,1,1,0.8224507,,,,,,,,,,,,,,,,,,,10,12,1,2024-10-25_15h28.48.868,uWM_experiment,2022.2.3,60.000168
,,,,,,,,,,,,,,,,,,,,3,0,3,0,7,0,7,0,,,,,,,,,,,,,,,,,,,,,,,,,,,,,,,,,,,,,,,,,,,,,,,,,,,,,,,,,,,,,,,,,,,,,,0,,,,,,,,,,,,,,,,,,,,,,,,,,,,right,1,40,30,70,0,3442.804084,3442.804084,3442.804084,None,None,1,1,0.9214173,,,,,,,,,,,,,,,,,,,10,12,1,2024-10-25_15h28.48.868,uWM_experiment,2022.2.3,60.000168
,,,,,,,,,,,,,,,,,,,,3,0,3,0,8,0,8,0,,,,,,,,,,,,,,,,,,,,,,,,,,,,,,,,,,,,,,,,,,,,,,,,,,,,,,,,,,,,,,,,,,,,,,0.045,,,,,,,,,,,,,,,,,,,,,,,,,,,,right,0,70,-30,40,1,3455.787927,3455.787927,3455.787927,None,None,1,1,7.8176029,,,,,,,,,,,,,,,,,,,10,12,1,2024-10-25_15h28.48.868,uWM_experiment,2022.2.3,60.000168
,,,,,,,,,,,,,,,,,,,,3,0,3,0,9,0,9,0,,,,,,,,,,,,,,,,,,,,,,,,,,,,,,,,,,,,,,,,,,,,,,,,,,,,,,,,,,,,,,,,,,,,,,0.055,,,,,,,,,,,,,,,,,,,,,,,,,,,,left,1,130,-30,100,1,3470.321803,3470.321803,3470.321803,None,None,1,1,1.0035866,,,,,,,,,,,,,,,,,,,10,12,1,2024-10-25_15h28.48.868,uWM_experiment,2022.2.3,60.000168
,,,,,,,,,,,,,,,,,,,,3,0,3,0,10,0,10,0,,,,,,,,,,,,,,,,,,,,,,,,,,,,,,,,,,,,,,,,,,,,,,,,,,,,,,,,,,,,,,,,,,,,,,0,,,,,,,,,,,,,,,,,,,,,,,,,,,,right,0,130,-30,100,0,3477.872116,3477.872116,3477.872116,None,None,2,0,1.5813694,,,,,,,,,,,,,,,,,,,10,12,1,2024-10-25_15h28.48.868,uWM_experiment,2022.2.3,60.000168
,,,,,,,,,,,,,,,,,,,,3,0,3,0,11,0,11,0,,,,,,,,,,,,,,,,,,,,,,,,,,,,,,,,,,,,,,,,,,,,,,,,,,,,,,,,,,,,,,,,,,,,,,0.065,,,,,,,,,,,,,,,,,,,,,,,,,,,,right,1,160,30,190,1,3487.42247,3487.42247,3487.42247,None,None,2,0,0.7588002,,,,,,,,,,,,,,,,,,,10,12,1,2024-10-25_15h28.48.868,uWM_experiment,2022.2.3,60.000168
,,,,,,,,,,,,,,,,,,,,3,0,3,0,12,0,12,0,,,,,,,,,,,,,,,,,,,,,,,,,,,,,,,,,,,,,,,,,,,,,,,,,,,,,,,,,,,,,,,,,,,,,,0.055,,,,,,,,,,,,,,,,,,,,,,,,,,,,left,0,40,30,70,1,3494.772777,3494.772777,3494.772777,None,None,1,1,0.8405895,,,,,,,,,,,,,,,,,,,10,12,1,2024-10-25_15h28.48.868,uWM_experiment,2022.2.3,60.000168
,,,,,,,,,,,,,,,,,,,,3,0,3,0,13,0,13,0,,,,,,,,,,,,,,,,,,,,,,,,,,,,,,,,,,,,,,,,,,,,,,,,,,,,,,,,,,,,,,,,,,,,,,0.065,,,,,,,,,,,,,,,,,,,,,,,,,,,,left,0,130,30,160,1,3501.623038,3501.623038,3501.623038,None,None,1,1,0.6621337,,,,,,,,,,,,,,,,,,,10,12,1,2024-10-25_15h28.48.868,uWM_experiment,2022.2.3,60.000168
,,,,,,,,,,,,,,,,,,,,3,0,3,0,14,0,14,0,,,,,,,,,,,,,,,,,,,,,,,,,,,,,,,,,,,,,,,,,,,,,,,,,,,,,,,,,,,,,,,,,,,,,,0,,,,,,,,,,,,,,,,,,,,,,,,,,,,right,1,10,30,40,0,3508.639973,3508.639973,3508.639973,None,None,2,0,0.8292906,,,,,,,,,,,,,,,,,,,10,12,1,2024-10-25_15h28.48.868,uWM_experiment,2022.2.3,60.000168
,,,,,,,,,,,,,,,,,,,,3,0,3,0,15,0,15,0,,,,,,,,,,,,,,,,,,,,,,,,,,,,,,,,,,,,,,,,,,,,,,,,,,,,,,,,,,,,,,,,,,,,,,0,,,,,,,,,,,,,,,,,,,,,,,,,,,,left,0,10,30,40,0,3516.123589,3516.123589,3516.123589,None,None,2,0,0.7535156,,,,,,,,,,,,,,,,,,,10,12,1,2024-10-25_15h28.48.868,uWM_experiment,2022.2.3,60.000168
,,,,,,,,,,,,,,,,,,,,3,0,3,0,16,0,16,0,,,,,,,,,,,,,,,,,,,,,,,,,,,,,,,,,,,,,,,,,,,,,,,,,,,,,,,,,,,,,,,,,,,,,,0,,,,,,,,,,,,,,,,,,,,,,,,,,,,left,1,10,-30,-20,0,3524.440593,3524.440593,3524.440593,None,None,1,1,0.8684961,,,,,,,,,,,,,,,,,,,10,12,1,2024-10-25_15h28.48.868,uWM_experiment,2022.2.3,60.000168
,,,,,,,,,,,,,,,,,,,,3,0,3,0,17,0,17,0,,,,,,,,,,,,,,,,,,,,,,,,,,,,,,,,,,,,,,,,,,,,,,,,,,,,,,,,,,,,,,,,,,,,,,0.075,,,,,,,,,,,,,,,,,,,,,,,,,,,,left,0,160,30,190,1,3536.941078,3536.941078,3536.941078,None,None,1,1,2.4800846,,,,,,,,,,,,,,,,,,,10,12,1,2024-10-25_15h28.48.868,uWM_experiment,2022.2.3,60.000168
,,,,,,,,,,,,,,,,,,,,3,0,3,0,18,0,18,0,,,,,,,,,,,,,,,,,,,,,,,,,,,,,,,,,,,,,,,,,,,,,,,,,,,,,,,,,,,,,,,,,,,,,,0.085,,,,,,,,,,,,,,,,,,,,,,,,,,,,left,1,160,-30,130,1,3548.708201,3548.708201,3548.708201,None,None,2,0,1.3047383,,,,,,,,,,,,,,,,,,,10,12,1,2024-10-25_15h28.48.868,uWM_experiment,2022.2.3,60.000168
,,,,,,,,,,,,,,,,,,,,3,0,3,0,19,0,19,0,,,,,,,,,,,,,,,,,,,,,,,,,,,,,,,,,,,,,,,,,,,,,,,,,,,,,,,,,,,,,,,,,,,,,,0.1,,,,,,,,,,,,,,,,,,,,,,,,,,,,left,1,130,-30,100,2,3558.775467,3558.775467,3558.775467,None,None,3,0,1.0294652,,,,,,,,,,,,,,,,,,,10,12,1,2024-10-25_15h28.48.868,uWM_experiment,2022.2.3,60.000168
,,,,,,,,,,,,,,,,,,,,3,0,3,0,20,0,20,0,,,,,,,,,,,,,,,,,,,,,,,,,,,,,,,,,,,,,,,,,,,,,,,,,,,,,,,,,,,,,,,,,,,,,,0.075,,,,,,,,,,,,,,,,,,,,,,,,,,,,left,0,100,30,130,1,3566.408876,3566.408876,3566.408876,None,None,1,1,0.8839568,,,,,,,,,,,,,,,,,,,10,12,1,2024-10-25_15h28.48.868,uWM_experiment,2022.2.3,60.000168
,,,,,,,,,,,,,,,,,,,,3,0,3,0,21,0,21,0,,,,,,,,,,,,,,,,,,,,,,,,,,,,,,,,,,,,,,,,,,,,,,,,,,,,,,,,,,,,,,,,,,,,,,0,,,,,,,,,,,,,,,,,,,,,,,,,,,,right,0,100,-30,70,0,3573.209173,3573.209173,3573.209173,None,None,1,1,0.7237036,,,,,,,,,,,,,,,,,,,10,12,1,2024-10-25_15h28.48.868,uWM_experiment,2022.2.3,60.000168
,,,,,,,,,,,,,,,,,,,,3,0,3,0,22,0,22,0,,,,,,,,,,,,,,,,,,,,,,,,,,,,,,,,,,,,,,,,,,,,,,,,,,,,,,,,,,,,,,,,,,,,,,0.085,,,,,,,,,,,,,,,,,,,,,,,,,,,,left,1,70,-30,40,1,3580.326075,3580.326075,3580.326075,None,None,2,0,0.8227512,,,,,,,,,,,,,,,,,,,10,12,1,2024-10-25_15h28.48.868,uWM_experiment,2022.2.3,60.000168
,,,,,,,,,,,,,,,,,,,,3,0,3,0,23,0,23,0,,,,,,,,,,,,,,,,,,,,,,,,,,,,,,,,,,,,,,,,,,,,,,,,,,,,,,,,,,,,,,,,,,,,,,0.075,,,,,,,,,,,,,,,,,,,,,,,,,,,,left,1,40,-30,10,1,3588.693076,3588.693076,3588.693076,None,None,2,0,0.7356738,,,,,,,,,,,,,,,,,,,10,12,1,2024-10-25_15h28.48.868,uWM_experiment,2022.2.3,60.000168
,,,,,,,,,,,,,,,,,,,,3,0,3,0,,,,,0,0,0,0,,,,,,,,,,,,,,,,,,,,,,,,,,,,,,,,,,,,,,,,,,,,,,,,,,,,,,,,,,,,,,,,,,,,,,,,,,,,,,,,,,,,,,,,,,,,,,,,,,,,,,,,,,,,3589.45977,3589.45977,space,30.4969388,None,None,,,,,,,,,,,,,10,12,1,2024-10-25_15h28.48.868,uWM_experiment,2022.2.3,60.000168
,,,,,,,,,,,,,,,,,,,,3,0,3,0,,,,,1,0,1,0,,,,,,,,,,,,,,,,,,,,,,,,,,,,,,,,,,,,,,,,,,,,,,,,,,,,,,,,,,,,,,,,,,,,,,,,,,,,,,,,,,,,,,,,,,,,,,,,,,,,,,,,,,,,,,,,,,,,,,,,,,,,,,10,12,1,2024-10-25_15h28.48.868,uWM_experiment,2022.2.3,60.000168
,,,,,,,,,,,,,,,,,,,,3,0,3,0,,,,,2,0,2,0,,,,,,,,,,,,,,,,,,,,,,,,,,,,,,,,,,,,,,,,,,,,,,,,,,,,,,,,,,,,,,,,,,,,,,,,,,,,,,,,,,,,,,,,,,,,,,,,,,,,,,,,,,,,,,,,,,,,,,,,,,,,,,10,12,1,2024-10-25_15h28.48.868,uWM_experiment,2022.2.3,60.000168
,,,,,,,,,,,,,,,,,,,,4,0,4,0,0,0,0,0,,,,,,,,,,,,,,,,,,,,,,,,,,,,,,,,,,,,,,,,,,,,,,,,,,,,,,,,,,,,,,,,,,,,,,0.065,,,,,,,,,,,,,,,,,,,,3619.977615,3620.677645,3620.977653,3621.677678,3621.977692,3622.677717,3622.677717,3622.994407,right,1,160,30,190,1,3628.577975,3628.577975,3628.577975,None,None,1,1,4.0265054,,,,,,,None,,,,,,,,,,,,10,12,1,2024-10-25_15h28.48.868,uWM_experiment,2022.2.3,60.000168
,,,,,,,,,,,,,,,,,,,,4,0,4,0,1,0,1,0,,,,,,,,,,,,,,,,,,,,,,,,,,,,,,,,,,,,,,,,,,,,,,,,,,,,,,,,,,,,,,,,,,,,,,0.075,,,,,,,,,,,,,,,,,,,,,,,,,,,,left,0,160,30,190,1,3638.84503,3638.84503,3638.84503,None,None,2,0,0.6714101,,,,,,,,,,,,,,,,,,,10,12,1,2024-10-25_15h28.48.868,uWM_experiment,2022.2.3,60.000168
,,,,,,,,,,,,,,,,,,,,4,0,4,0,2,0,2,0,,,,,,,,,,,,,,,,,,,,,,,,,,,,,,,,,,,,,,,,,,,,,,,,,,,,,,,,,,,,,,,,,,,,,,0.065,,,,,,,,,,,,,,,,,,,,,,,,,,,,left,0,160,30,190,1,3645.59529,3645.59529,3645.59529,None,None,1,1,0.8891668,,,,,,,,,,,,,,,,,,,10,12,1,2024-10-25_15h28.48.868,uWM_experiment,2022.2.3,60.000168
,,,,,,,,,,,,,,,,,,,,4,0,4,0,3,0,3,0,,,,,,,,,,,,,,,,,,,,,,,,,,,,,,,,,,,,,,,,,,,,,,,,,,,,,,,,,,,,,,,,,,,,,,0,,,,,,,,,,,,,,,,,,,,,,,,,,,,right,0,70,-30,40,0,3655.378977,3655.378977,3655.378977,None,None,2,0,0.6734361,,,,,,,,,,,,,,,,,,,10,12,1,2024-10-25_15h28.48.868,uWM_experiment,2022.2.3,60.000168
,,,,,,,,,,,,,,,,,,,,4,0,4,0,4,0,4,0,,,,,,,,,,,,,,,,,,,,,,,,,,,,,,,,,,,,,,,,,,,,,,,,,,,,,,,,,,,,,,,,,,,,,,0.075,,,,,,,,,,,,,,,,,,,,,,,,,,,,left,1,100,-30,70,1,3663.295982,3663.295982,3663.295982,None,None,1,1,0.9645012,,,,,,,,,,,,,,,,,,,10,12,1,2024-10-25_15h28.48.868,uWM_experiment,2022.2.3,60.000168
,,,,,,,,,,,,,,,,,,,,4,0,4,0,5,0,5,0,,,,,,,,,,,,,,,,,,,,,,,,,,,,,,,,,,,,,,,,,,,,,,,,,,,,,,,,,,,,,,,,,,,,,,0.1,,,,,,,,,,,,,,,,,,,,,,,,,,,,left,1,130,-30,100,2,3682.513391,3682.513391,3682.513391,None,None,3,0,1.2589852,,,,,,,,,,,,,,,,,,,10,12,1,2024-10-25_15h28.48.868,uWM_experiment,2022.2.3,60.000168
,,,,,,,,,,,,,,,,,,,,4,0,4,0,6,0,6,0,,,,,,,,,,,,,,,,,,,,,,,,,,,,,,,,,,,,,,,,,,,,,,,,,,,,,,,,,,,,,,,,,,,,,,0.085,,,,,,,,,,,,,,,,,,,,,,,,,,,,left,0,100,30,130,1,3690.613743,3690.613743,3690.613743,None,None,1,1,1.1105186,,,,,,,,,,,,,,,,,,,10,12,1,2024-10-25_15h28.48.868,uWM_experiment,2022.2.3,60.000168
,,,,,,,,,,,,,,,,,,,,4,0,4,0,7,0,7,0,,,,,,,,,,,,,,,,,,,,,,,,,,,,,,,,,,,,,,,,,,,,,,,,,,,,,,,,,,,,,,,,,,,,,,0.095,,,,,,,,,,,,,,,,,,,,,,,,,,,,right,0,160,-30,130,1,3702.214148,3702.214148,3702.214148,None,None,2,0,1.6620181,,,,,,,,,,,,,,,,,,,10,12,1,2024-10-25_15h28.48.868,uWM_experiment,2022.2.3,60.000168
,,,,,,,,,,,,,,,,,,,,4,0,4,0,8,0,8,0,,,,,,,,,,,,,,,,,,,,,,,,,,,,,,,,,,,,,,,,,,,,,,,,,,,,,,,,,,,,,,,,,,,,,,0.085,,,,,,,,,,,,,,,,,,,,,,,,,,,,left,1,130,-30,100,1,3714.881323,3714.881323,3714.881323,None,None,2,0,0.5707115,,,,,,,,,,,,,,,,,,,10,12,1,2024-10-25_15h28.48.868,uWM_experiment,2022.2.3,60.000168
,,,,,,,,,,,,,,,,,,,,4,0,4,0,9,0,9,0,,,,,,,,,,,,,,,,,,,,,,,,,,,,,,,,,,,,,,,,,,,,,,,,,,,,,,,,,,,,,,,,,,,,,,0.075,,,,,,,,,,,,,,,,,,,,,,,,,,,,left,1,100,-30,70,1,3722.831631,3722.831631,3722.831631,None,None,2,0,1.1644851,,,,,,,,,,,,,,,,,,,10,12,1,2024-10-25_15h28.48.868,uWM_experiment,2022.2.3,60.000168
,,,,,,,,,,,,,,,,,,,,4,0,4,0,10,0,10,0,,,,,,,,,,,,,,,,,,,,,,,,,,,,,,,,,,,,,,,,,,,,,,,,,,,,,,,,,,,,,,,,,,,,,,0.065,,,,,,,,,,,,,,,,,,,,,,,,,,,,right,1,130,30,160,1,3730.44859,3730.44859,3730.44859,None,None,2,0,1.6435144,,,,,,,,,,,,,,,,,,,10,12,1,2024-10-25_15h28.48.868,uWM_experiment,2022.2.3,60.000168
,,,,,,,,,,,,,,,,,,,,4,0,4,0,11,0,11,0,,,,,,,,,,,,,,,,,,,,,,,,,,,,,,,,,,,,,,,,,,,,,,,,,,,,,,,,,,,,,,,,,,,,,,0.055,,,,,,,,,,,,,,,,,,,,,,,,,,,,left,1,100,-30,70,1,3738.398893,3738.398893,3738.398893,None,None,2,0,1.1090797,,,,,,,,,,,,,,,,,,,10,12,1,2024-10-25_15h28.48.868,uWM_experiment,2022.2.3,60.000168
,,,,,,,,,,,,,,,,,,,,4,0,4,0,12,0,12,0,,,,,,,,,,,,,,,,,,,,,,,,,,,,,,,,,,,,,,,,,,,,,,,,,,,,,,,,,,,,,,,,,,,,,,0,,,,,,,,,,,,,,,,,,,,,,,,,,,,right,1,10,30,40,0,3745.732508,3745.732508,3745.732508,None,None,1,1,0.9435032,,,,,,,,,,,,,,,,,,,10,12,1,2024-10-25_15h28.48.868,uWM_experiment,2022.2.3,60.000168
,,,,,,,,,,,,,,,,,,,,4,0,4,0,13,0,13,0,,,,,,,,,,,,,,,,,,,,,,,,,,,,,,,,,,,,,,,,,,,,,,,,,,,,,,,,,,,,,,,,,,,,,,0.045,,,,,,,,,,,,,,,,,,,,,,,,,,,,left,0,160,30,190,1,3753.166122,3753.166122,3753.166122,None,None,1,1,1.989805,,,,,,,,,,,,,,,,,,,10,12,1,2024-10-25_15h28.48.868,uWM_experiment,2022.2.3,60.000168
,,,,,,,,,,,,,,,,,,,,4,0,4,0,14,0,14,0,,,,,,,,,,,,,,,,,,,,,,,,,,,,,,,,,,,,,,,,,,,,,,,,,,,,,,,,,,,,,,,,,,,,,,0.055,,,,,,,,,,,,,,,,,,,,,,,,,,,,left,1,10,-30,-20,1,3760.783084,3760.783084,3760.783084,None,None,1,1,0.7407647,,,,,,,,,,,,,,,,,,,10,12,1,2024-10-25_15h28.48.868,uWM_experiment,2022.2.3,60.000168
,,,,,,,,,,,,,,,,,,,,4,0,4,0,15,0,15,0,,,,,,,,,,,,,,,,,,,,,,,,,,,,,,,,,,,,,,,,,,,,,,,,,,,,,,,,,,,,,,,,,,,,,,0.065,,,,,,,,,,,,,,,,,,,,,,,,,,,,left,0,160,30,190,1,3767.633371,3767.633371,3767.633371,None,None,1,1,5.0265054,,,,,,,,,,,,,,,,,,,10,12,1,2024-10-25_15h28.48.868,uWM_experiment,2022.2.3,60.000168
,,,,,,,,,,,,,,,,,,,,4,0,4,0,16,0,16,0,,,,,,,,,,,,,,,,,,,,,,,,,,,,,,,,,,,,,,,,,,,,,,,,,,,,,,,,,,,,,,,,,,,,,,0.075,,,,,,,,,,,,,,,,,,,,,,,,,,,,right,1,40,30,70,1,3780.450546,3780.450546,3780.450546,None,None,2,0,0.7452525,,,,,,,,,,,,,,,,,,,10,12,1,2024-10-25_15h28.48.868,uWM_experiment,2022.2.3,60.000168
,,,,,,,,,,,,,,,,,,,,4,0,4,0,17,0,17,0,,,,,,,,,,,,,,,,,,,,,,,,,,,,,,,,,,,,,,,,,,,,,,,,,,,,,,,,,,,,,,,,,,,,,,0.065,,,,,,,,,,,,,,,,,,,,,,,,,,,,right,0,70,-30,40,1,3791.484286,3791.484286,3791.484286,None,None,2,0,0.6635107,,,,,,,,,,,,,,,,,,,10,12,1,2024-10-25_15h28.48.868,uWM_experiment,2022.2.3,60.000168
,,,,,,,,,,,,,,,,,,,,4,0,4,0,18,0,18,0,,,,,,,,,,,,,,,,,,,,,,,,,,,,,,,,,,,,,,,,,,,,,,,,,,,,,,,,,,,,,,,,,,,,,,0.055,,,,,,,,,,,,,,,,,,,,,,,,,,,,right,0,70,-30,40,1,3798.551238,3798.551238,3798.551238,None,None,2,0,0.6284617,,,,,,,,,,,,,,,,,,,10,12,1,2024-10-25_15h28.48.868,uWM_experiment,2022.2.3,60.000168
,,,,,,,,,,,,,,,,,,,,4,0,4,0,19,0,19,0,,,,,,,,,,,,,,,,,,,,,,,,,,,,,,,,,,,,,,,,,,,,,,,,,,,,,,,,,,,,,,,,,,,,,,0.045,,,,,,,,,,,,,,,,,,,,,,,,,,,,left,0,160,30,190,1,3805.534844,3805.534844,3805.534844,None,None,2,0,2.6047224,,,,,,,,,,,,,,,,,,,10,12,1,2024-10-25_15h28.48.868,uWM_experiment,2022.2.3,60.000168
,,,,,,,,,,,,,,,,,,,,4,0,4,0,20,0,20,0,,,,,,,,,,,,,,,,,,,,,,,,,,,,,,,,,,,,,,,,,,,,,,,,,,,,,,,,,,,,,,,,,,,,,,0,,,,,,,,,,,,,,,,,,,,,,,,,,,,left,1,70,-30,40,0,3815.168557,3815.168557,3815.168557,None,None,2,0,1.0830271,,,,,,,,,,,,,,,,,,,10,12,1,2024-10-25_15h28.48.868,uWM_experiment,2022.2.3,60.000168
,,,,,,,,,,,,,,,,,,,,4,0,4,0,21,0,21,0,,,,,,,,,,,,,,,,,,,,,,,,,,,,,,,,,,,,,,,,,,,,,,,,,,,,,,,,,,,,,,,,,,,,,,0.035,,,,,,,,,,,,,,,,,,,,,,,,,,,,left,0,40,30,70,1,3822.152141,3822.152141,3822.152141,None,None,1,1,1.3154033,,,,,,,,,,,,,,,,,,,10,12,1,2024-10-25_15h28.48.868,uWM_experiment,2022.2.3,60.000168
,,,,,,,,,,,,,,,,,,,,4,0,4,0,22,0,22,0,,,,,,,,,,,,,,,,,,,,,,,,,,,,,,,,,,,,,,,,,,,,,,,,,,,,,,,,,,,,,,,,,,,,,,0,,,,,,,,,,,,,,,,,,,,,,,,,,,,left,1,160,-30,130,0,3829.835813,3829.835813,3829.835813,None,None,2,0,0.9675913,,,,,,,,,,,,,,,,,,,10,12,1,2024-10-25_15h28.48.868,uWM_experiment,2022.2.3,60.000168
,,,,,,,,,,,,,,,,,,,,4,0,4,0,23,0,23,0,,,,,,,,,,,,,,,,,,,,,,,,,,,,,,,,,,,,,,,,,,,,,,,,,,,,,,,,,,,,,,,,,,,,,,0.045,,,,,,,,,,,,,,,,,,,,,,,,,,,,right,1,130,30,160,1,3837.036063,3837.036063,3837.036063,None,None,2,0,0.5594348,,,,,,,,,,,,,,,,,,,10,12,1,2024-10-25_15h28.48.868,uWM_experiment,2022.2.3,60.000168
,,,,,,,,,,,,,,,,,,,,4,0,4,0,,,,,0,0,0,0,,,,,,,,,,,,,,,,,,,,,,,,,,,,,,,,,,,,,,,,,,,,,,,,,,,,,,,,,,,,,,,,,,,,,,,,,,,,,,,,,,,,,,,,,,,,,,,,,,,,,,,,,,,,3837.619397,3837.619397,space,18.1120049,None,None,,,,,,,,,,,,,10,12,1,2024-10-25_15h28.48.868,uWM_experiment,2022.2.3,60.000168
,,,,,,,,,,,,,,,,,,,,4,0,4,0,,,,,1,0,1,0,,,,,,,,,,,,,,,,,,,,,,,,,,,,,,,,,,,,,,,,,,,,,,,,,,,,,,,,,,,,,,,,,,,,,,,,,,,,,,,,,,,,,,,,,,,,,,,,,,,,,,,,,,,,,,,,,,,,,,,,,,,,,,10,12,1,2024-10-25_15h28.48.868,uWM_experiment,2022.2.3,60.000168
,,,,,,,,,,,,,,,,,,,,4,0,4,0,,,,,2,0,2,0,,,,,,,,,,,,,,,,,,,,,,,,,,,,,,,,,,,,,,,,,,,,,,,,,,,,,,,,,,,,,,,,,,,,,,,,,,,,,,,,,,,,,,,,,,,,,,,,,,,,,,,,,,,,,,,,,,,,,,,,,,,,,,10,12,1,2024-10-25_15h28.48.868,uWM_experiment,2022.2.3,60.000168
,,,,,,,,,,,,,,,,,,,,5,0,5,0,0,0,0,0,,,,,,,,,,,,,,,,,,,,,,,,,,,,,,,,,,,,,,,,,,,,,,,,,,,,,,,,,,,,,,,,,,,,,,0.035,,,,,,,,,,,,,,,,,,,,3855.753465,3856.453461,3856.75348,3857.45352,3857.753544,3858.453537,3858.453537,3858.77023,right,1,160,30,190,1,3864.03709,3864.03709,3864.03709,None,None,2,0,0.6782941,,,,,,,None,,,,,,,,,,,,10,12,1,2024-10-25_15h28.48.868,uWM_experiment,2022.2.3,60.000168
,,,,,,,,,,,,,,,,,,,,5,0,5,0,1,0,1,0,,,,,,,,,,,,,,,,,,,,,,,,,,,,,,,,,,,,,,,,,,,,,,,,,,,,,,,,,,,,,,,,,,,,,,0.025,,,,,,,,,,,,,,,,,,,,,,,,,,,,left,1,100,-30,70,1,3871.004066,3871.004066,3871.004066,None,None,1,1,0.8312785,,,,,,,,,,,,,,,,,,,10,12,1,2024-10-25_15h28.48.868,uWM_experiment,2022.2.3,60.000168
,,,,,,,,,,,,,,,,,,,,5,0,5,0,2,0,2,0,,,,,,,,,,,,,,,,,,,,,,,,,,,,,,,,,,,,,,,,,,,,,,,,,,,,,,,,,,,,,,,,,,,,,,0.035,,,,,,,,,,,,,,,,,,,,,,,,,,,,right,0,70,-30,40,1,3878.621018,3878.621018,3878.621018,None,None,1,1,0.958255,,,,,,,,,,,,,,,,,,,10,12,1,2024-10-25_15h28.48.868,uWM_experiment,2022.2.3,60.000168
,,,,,,,,,,,,,,,,,,,,5,0,5,0,3,0,3,0,,,,,,,,,,,,,,,,,,,,,,,,,,,,,,,,,,,,,,,,,,,,,,,,,,,,,,,,,,,,,,,,,,,,,,0,,,,,,,,,,,,,,,,,,,,,,,,,,,,right,0,100,-30,70,0,3887.604677,3887.604677,3887.604677,None,None,2,0,1.8465918,,,,,,,,,,,,,,,,,,,10,12,1,2024-10-25_15h28.48.868,uWM_experiment,2022.2.3,60.000168
,,,,,,,,,,,,,,,,,,,,5,0,5,0,4,0,4,0,,,,,,,,,,,,,,,,,,,,,,,,,,,,,,,,,,,,,,,,,,,,,,,,,,,,,,,,,,,,,,,,,,,,,,0,,,,,,,,,,,,,,,,,,,,,,,,,,,,left,1,10,-30,-20,0,3895.638339,3895.638339,3895.638339,None,None,1,1,0.6128364,,,,,,,,,,,,,,,,,,,10,12,1,2024-10-25_15h28.48.868,uWM_experiment,2022.2.3,60.000168
,,,,,,,,,,,,,,,,,,,,5,0,5,0,5,0,5,0,,,,,,,,,,,,,,,,,,,,,,,,,,,,,,,,,,,,,,,,,,,,,,,,,,,,,,,,,,,,,,,,,,,,,,0.045,,,,,,,,,,,,,,,,,,,,,,,,,,,,right,0,100,-30,70,1,3902.238607,3902.238607,3902.238607,None,None,1,1,1.2605311,,,,,,,,,,,,,,,,,,,10,12,1,2024-10-25_15h28.48.868,uWM_experiment,2022.2.3,60.000168
,,,,,,,,,,,,,,,,,,,,5,0,5,0,6,0,6,0,,,,,,,,,,,,,,,,,,,,,,,,,,,,,,,,,,,,,,,,,,,,,,,,,,,,,,,,,,,,,,,,,,,,,,0.055,,,,,,,,,,,,,,,,,,,,,,,,,,,,left,0,160,30,190,1,3911.205602,3911.205602,3911.205602,None,None,2,0,0.8053392,,,,,,,,,,,,,,,,,,,10,12,1,2024-10-25_15h28.48.868,uWM_experiment,2022.2.3,60.000168
,,,,,,,,,,,,,,,,,,,,5,0,5,0,7,0,7,0,,,,,,,,,,,,,,,,,,,,,,,,,,,,,,,,,,,,,,,,,,,,,,,,,,,,,,,,,,,,,,,,,,,,,,0.045,,,,,,,,,,,,,,,,,,,,,,,,,,,,left,1,130,-30,100,1,3920.139291,3920.139291,3920.139291,None,None,2,0,0.5918125,,,,,,,,,,,,,,,,,,,10,12,1,2024-10-25_15h28.48.868,uWM_experiment,2022.2.3,60.000168
,,,,,,,,,,,,,,,,,,,,5,0,5,0,8,0,8,0,,,,,,,,,,,,,,,,,,,,,,,,,,,,,,,,,,,,,,,,,,,,,,,,,,,,,,,,,,,,,,,,,,,,,,0.035,,,,,,,,,,,,,,,,,,,,,,,,,,,,right,0,70,-30,40,1,3926.889565,3926.889565,3926.889565,None,None,2,0,1.4012723,,,,,,,,,,,,,,,,,,,10,12,1,2024-10-25_15h28.48.868,uWM_experiment,2022.2.3,60.000168
,,,,,,,,,,,,,,,,,,,,5,0,5,0,9,0,9,0,,,,,,,,,,,,,,,,,,,,,,,,,,,,,,,,,,,,,,,,,,,,,,,,,,,,,,,,,,,,,,,,,,,,,,0,,,,,,,,,,,,,,,,,,,,,,,,,,,,left,0,40,30,70,0,3934.68986,3934.68986,3934.68986,None,None,1,1,1.2890115,,,,,,,,,,,,,,,,,,,10,12,1,2024-10-25_15h28.48.868,uWM_experiment,2022.2.3,60.000168
,,,,,,,,,,,,,,,,,,,,5,0,5,0,10,0,10,0,,,,,,,,,,,,,,,,,,,,,,,,,,,,,,,,,,,,,,,,,,,,,,,,,,,,,,,,,,,,,,,,,,,,,,0.025,,,,,,,,,,,,,,,,,,,,,,,,,,,,left,0,130,30,160,1,3943.106833,3943.106833,3943.106833,None,None,1,1,1.5359343,,,,,,,,,,,,,,,,,,,10,12,1,2024-10-25_15h28.48.868,uWM_experiment,2022.2.3,60.000168
,,,,,,,,,,,,,,,,,,,,5,0,5,0,11,0,11,0,,,,,,,,,,,,,,,,,,,,,,,,,,,,,,,,,,,,,,,,,,,,,,,,,,,,,,,,,,,,,,,,,,,,,,0.035,,,,,,,,,,,,,,,,,,,,,,,,,,,,right,0,160,-30,130,1,3951.273842,3951.273842,3951.273842,None,None,1,1,1.8889862,,,,,,,,,,,,,,,,,,,10,12,1,2024-10-25_15h28.48.868,uWM_experiment,2022.2.3,60.000168
,,,,,,,,,,,,,,,,,,,,5,0,5,0,12,0,12,0,,,,,,,,,,,,,,,,,,,,,,,,,,,,,,,,,,,,,,,,,,,,,,,,,,,,,,,,,,,,,,,,,,,,,,0.045,,,,,,,,,,,,,,,,,,,,,,,,,,,,left,1,130,-30,100,1,3959.657508,3959.657508,3959.657508,None,None,1,1,0.8252808,,,,,,,,,,,,,,,,,,,10,12,1,2024-10-25_15h28.48.868,uWM_experiment,2022.2.3,60.000168
,,,,,,,,,,,,,,,,,,,,5,0,5,0,13,0,13,0,,,,,,,,,,,,,,,,,,,,,,,,,,,,,,,,,,,,,,,,,,,,,,,,,,,,,,,,,,,,,,,,,,,,,,0,,,,,,,,,,,,,,,,,,,,,,,,,,,,left,0,10,30,40,0,3966.624443,3966.624443,3966.624443,None,None,2,0,0.946302,,,,,,,,,,,,,,,,,,,10,12,1,2024-10-25_15h28.48.868,uWM_experiment,2022.2.3,60.000168
,,,,,,,,,,,,,,,,,,,,5,0,5,0,14,0,14,0,,,,,,,,,,,,,,,,,,,,,,,,,,,,,,,,,,,,,,,,,,,,,,,,,,,,,,,,,,,,,,,,,,,,,,0.055,,,,,,,,,,,,,,,,,,,,,,,,,,,,left,1,130,-30,100,1,3973.774692,3973.774692,3973.774692,None,None,1,1,0.6679346,,,,,,,,,,,,,,,,,,,10,12,1,2024-10-25_15h28.48.868,uWM_experiment,2022.2.3,60.000168
,,,,,,,,,,,,,,,,,,,,5,0,5,0,15,0,15,0,,,,,,,,,,,,,,,,,,,,,,,,,,,,,,,,,,,,,,,,,,,,,,,,,,,,,,,,,,,,,,,,,,,,,,0.1,,,,,,,,,,,,,,,,,,,,,,,,,,,,right,1,40,30,70,2,3986.758547,3986.758547,3986.758547,None,None,4,0,2.5241599,,,,,,,,,,,,,,,,,,,10,12,1,2024-10-25_15h28.48.868,uWM_experiment,2022.2.3,60.000168
,,,,,,,,,,,,,,,,,,,,5,0,5,0,16,0,16,0,,,,,,,,,,,,,,,,,,,,,,,,,,,,,,,,,,,,,,,,,,,,,,,,,,,,,,,,,,,,,,,,,,,,,,0,,,,,,,,,,,,,,,,,,,,,,,,,,,,left,1,100,-30,70,0,3995.708881,3995.708881,3995.708881,None,None,1,1,1.2696251,,,,,,,,,,,,,,,,,,,10,12,1,2024-10-25_15h28.48.868,uWM_experiment,2022.2.3,60.000168
,,,,,,,,,,,,,,,,,,,,5,0,5,0,17,0,17,0,,,,,,,,,,,,,,,,,,,,,,,,,,,,,,,,,,,,,,,,,,,,,,,,,,,,,,,,,,,,,,,,,,,,,,0.065,,,,,,,,,,,,,,,,,,,,,,,,,,,,right,1,100,30,130,1,4005.309258,4005.309258,4005.309258,None,None,2,0,0.93335,,,,,,,,,,,,,,,,,,,10,12,1,2024-10-25_15h28.48.868,uWM_experiment,2022.2.3,60.000168
,,,,,,,,,,,,,,,,,,,,5,0,5,0,18,0,18,0,,,,,,,,,,,,,,,,,,,,,,,,,,,,,,,,,,,,,,,,,,,,,,,,,,,,,,,,,,,,,,,,,,,,,,0.055,,,,,,,,,,,,,,,,,,,,,,,,,,,,left,1,100,-30,70,1,4012.326217,4012.326217,4012.326217,None,None,2,0,0.740231,,,,,,,,,,,,,,,,,,,10,12,1,2024-10-25_15h28.48.868,uWM_experiment,2022.2.3,60.000168
,,,,,,,,,,,,,,,,,,,,5,0,5,0,19,0,19,0,,,,,,,,,,,,,,,,,,,,,,,,,,,,,,,,,,,,,,,,,,,,,,,,,,,,,,,,,,,,,,,,,,,,,,0.045,,,,,,,,,,,,,,,,,,,,,,,,,,,,left,0,130,30,160,1,4020.526548,4020.526548,4020.526548,None,None,1,1,0.7319726,,,,,,,,,,,,,,,,,,,10,12,1,2024-10-25_15h28.48.868,uWM_experiment,2022.2.3,60.000168
,,,,,,,,,,,,,,,,,,,,5,0,5,0,20,0,20,0,,,,,,,,,,,,,,,,,,,,,,,,,,,,,,,,,,,,,,,,,,,,,,,,,,,,,,,,,,,,,,,,,,,,,,0.055,,,,,,,,,,,,,,,,,,,,,,,,,,,,left,1,40,-30,10,1,4027.410144,4027.410144,4027.410144,None,None,2,0,0.6881851,,,,,,,,,,,,,,,,,,,10,12,1,2024-10-25_15h28.48.868,uWM_experiment,2022.2.3,60.000168
,,,,,,,,,,,,,,,,,,,,5,0,5,0,21,0,21,0,,,,,,,,,,,,,,,,,,,,,,,,,,,,,,,,,,,,,,,,,,,,,,,,,,,,,,,,,,,,,,,,,,,,,,0.045,,,,,,,,,,,,,,,,,,,,,,,,,,,,left,0,100,30,130,1,4035.877116,4035.877116,4035.877116,None,None,2,0,0.6051439,,,,,,,,,,,,,,,,,,,10,12,1,2024-10-25_15h28.48.868,uWM_experiment,2022.2.3,60.000168
,,,,,,,,,,,,,,,,,,,,5,0,5,0,22,0,22,0,,,,,,,,,,,,,,,,,,,,,,,,,,,,,,,,,,,,,,,,,,,,,,,,,,,,,,,,,,,,,,,,,,,,,,0,,,,,,,,,,,,,,,,,,,,,,,,,,,,left,1,10,-30,-20,0,4044.044098,4044.044098,4044.044098,None,None,1,1,1.494268,,,,,,,,,,,,,,,,,,,10,12,1,2024-10-25_15h28.48.868,uWM_experiment,2022.2.3,60.000168
,,,,,,,,,,,,,,,,,,,,5,0,5,0,23,0,23,0,,,,,,,,,,,,,,,,,,,,,,,,,,,,,,,,,,,,,,,,,,,,,,,,,,,,,,,,,,,,,,,,,,,,,,0.035,,,,,,,,,,,,,,,,,,,,,,,,,,,,right,1,100,30,130,1,4051.594414,4051.594414,4051.594414,None,None,1,1,1.1357746,,,,,,,,,,,,,,,,,,,10,12,1,2024-10-25_15h28.48.868,uWM_experiment,2022.2.3,60.000168
,,,,,,,,,,,,,,,,,,,,5,0,5,0,,,,,0,0,0,0,,,,,,,,,,,,,,,,,,,,,,,,,,,,,,,,,,,,,,,,,,,,,,,,,,,,,,,,,,,,,,,,,,,,,,,,,,,,,,,,,,,,,,,,,,,,,,,,,,,,,,,,,,,,4052.761093,4052.761093,space,9.7131869,space,None,,4062.494811,4062.494811,73.5950267,,,,,,,,,10,12,1,2024-10-25_15h28.48.868,uWM_experiment,2022.2.3,60.000168
,,,,,,,,,,,,,,,,,,,,5,0,5,0,,,,,1,0,1,0,,,,,,,,,,,,,,,,,,,,,,,,,,,,,,,,,,,,,,,,,,,,,,,,,,,,,,,,,,,,,,,,,,,,,,,,,,,,,,,,,,,,,,,,,,,,,,,,,,,,,,,,,,,,,,,,,,,,,,,,,,,,,,10,12,1,2024-10-25_15h28.48.868,uWM_experiment,2022.2.3,60.000168
,,,,,,,,,,,,,,,,,,,,5,0,5,0,,,,,2,0,2,0,,,,,,,,,,,,,,,,,,,,,,,,,,,,,,,,,,,,,,,,,,,,,,,,,,,,,,,,,,,,,,,,,,,,,,,,,,,,,,,,,,,,,,,,,,,,,,,,,,,,,,,,,,,,,,,,,,,,,,,,,,,,,,10,12,1,2024-10-25_15h28.48.868,uWM_experiment,2022.2.3,60.000168
,,,,,,,,,,,,,,,,,,,,6,0,6,0,0,0,0,0,,,,,,,,,,,,,,,,,,,,,,,,,,,,,,,,,,,,,,,,,,,,,,,,,,,,,,,,,,,,,,,,,,,,,,0.045,,,,,,,,,,,,,,,,,,,,4136.114369,4136.814357,4137.114368,4137.814402,4138.114453,4138.814443,4138.814443,4139.131128,left,1,160,-30,130,1,4144.581363,4144.581363,4144.581363,None,None,1,1,12.2924177,,,,,,,None,,,,,,,,,,,,10,12,1,2024-10-25_15h28.48.868,uWM_experiment,2022.2.3,60.000168
,,,,,,,,,,,,,,,,,,,,6,0,6,0,1,0,1,0,,,,,,,,,,,,,,,,,,,,,,,,,,,,,,,,,,,,,,,,,,,,,,,,,,,,,,,,,,,,,,,,,,,,,,0.055,,,,,,,,,,,,,,,,,,,,,,,,,,,,right,0,70,-30,40,1,4164.082115,4164.082115,4164.082115,None,None,1,1,1.26361,,,,,,,,,,,,,,,,,,,10,12,1,2024-10-25_15h28.48.868,uWM_experiment,2022.2.3,60.000168
,,,,,,,,,,,,,,,,,,,,6,0,6,0,2,0,2,0,,,,,,,,,,,,,,,,,,,,,,,,,,,,,,,,,,,,,,,,,,,,,,,,,,,,,,,,,,,,,,,,,,,,,,0.065,,,,,,,,,,,,,,,,,,,,,,,,,,,,right,0,160,-30,130,1,4172.832458,4172.832458,4172.832458,None,None,2,0,1.441275,,,,,,,,,,,,,,,,,,,10,12,1,2024-10-25_15h28.48.868,uWM_experiment,2022.2.3,60.000168
,,,,,,,,,,,,,,,,,,,,6,0,6,0,3,0,3,0,,,,,,,,,,,,,,,,,,,,,,,,,,,,,,,,,,,,,,,,,,,,,,,,,,,,,,,,,,,,,,,,,,,,,,0.055,,,,,,,,,,,,,,,,,,,,,,,,,,,,left,0,160,30,190,1,4180.799434,4180.799434,4180.799434,None,None,2,0,0.754079,,,,,,,,,,,,,,,,,,,10,12,1,2024-10-25_15h28.48.868,uWM_experiment,2022.2.3,60.000168
,,,,,,,,,,,,,,,,,,,,6,0,6,0,4,0,4,0,,,,,,,,,,,,,,,,,,,,,,,,,,,,,,,,,,,,,,,,,,,,,,,,,,,,,,,,,,,,,,,,,,,,,,0,,,,,,,,,,,,,,,,,,,,,,,,,,,,left,0,40,30,70,0,4187.699685,4187.699685,4187.699685,None,None,1,1,1.5099284,,,,,,,,,,,,,,,,,,,10,12,1,2024-10-25_15h28.48.868,uWM_experiment,2022.2.3,60.000168
,,,,,,,,,,,,,,,,,,,,6,0,6,0,5,0,5,0,,,,,,,,,,,,,,,,,,,,,,,,,,,,,,,,,,,,,,,,,,,,,,,,,,,,,,,,,,,,,,,,,,,,,,0,,,,,,,,,,,,,,,,,,,,,,,,,,,,right,0,100,-30,70,0,4195.733345,4195.733345,4195.733345,None,None,1,1,3.6601861,,,,,,,,,,,,,,,,,,,10,12,1,2024-10-25_15h28.48.868,uWM_experiment,2022.2.3,60.000168
,,,,,,,,,,,,,,,,,,,,6,0,6,0,6,0,6,0,,,,,,,,,,,,,,,,,,,,,,,,,,,,,,,,,,,,,,,,,,,,,,,,,,,,,,,,,,,,,,,,,,,,,,0.1,,,,,,,,,,,,,,,,,,,,,,,,,,,,left,0,40,30,70,2,4209.317195,4209.317195,4209.317195,None,None,2,0,2.3802624,,,,,,,,,,,,,,,,,,,10,12,1,2024-10-25_15h28.48.868,uWM_experiment,2022.2.3,60.000168
,,,,,,,,,,,,,,,,,,,,6,0,6,0,7,0,7,0,,,,,,,,,,,,,,,,,,,,,,,,,,,,,,,,,,,,,,,,,,,,,,,,,,,,,,,,,,,,,,,,,,,,,,0.045,,,,,,,,,,,,,,,,,,,,,,,,,,,,left,0,10,30,40,1,4217.884195,4217.884195,4217.884195,None,None,1,1,2.1972254,,,,,,,,,,,,,,,,,,,10,12,1,2024-10-25_15h28.48.868,uWM_experiment,2022.2.3,60.000168
,,,,,,,,,,,,,,,,,,,,6,0,6,0,8,0,8,0,,,,,,,,,,,,,,,,,,,,,,,,,,,,,,,,,,,,,,,,,,,,,,,,,,,,,,,,,,,,,,,,,,,,,,0.1,,,,,,,,,,,,,,,,,,,,,,,,,,,,left,1,70,-30,40,2,4228.384597,4228.384597,4228.384597,None,None,4,0,0.6886613,,,,,,,,,,,,,,,,,,,10,12,1,2024-10-25_15h28.48.868,uWM_experiment,2022.2.3,60.000168
,,,,,,,,,,,,,,,,,,,,6,0,6,0,9,0,9,0,,,,,,,,,,,,,,,,,,,,,,,,,,,,,,,,,,,,,,,,,,,,,,,,,,,,,,,,,,,,,,,,,,,,,,0,,,,,,,,,,,,,,,,,,,,,,,,,,,,left,0,10,30,40,0,4235.084852,4235.084852,4235.084852,None,None,1,1,0.8444807,,,,,,,,,,,,,,,,,,,10,12,1,2024-10-25_15h28.48.868,uWM_experiment,2022.2.3,60.000168
,,,,,,,,,,,,,,,,,,,,6,0,6,0,10,0,10,0,,,,,,,,,,,,,,,,,,,,,,,,,,,,,,,,,,,,,,,,,,,,,,,,,,,,,,,,,,,,,,,,,,,,,,0.055,,,,,,,,,,,,,,,,,,,,,,,,,,,,left,0,70,30,100,1,4250.252136,4250.252136,4250.252136,None,None,2,0,0.725091,,,,,,,,,,,,,,,,,,,10,12,1,2024-10-25_15h28.48.868,uWM_experiment,2022.2.3,60.000168
,,,,,,,,,,,,,,,,,,,,6,0,6,0,11,0,11,0,,,,,,,,,,,,,,,,,,,,,,,,,,,,,,,,,,,,,,,,,,,,,,,,,,,,,,,,,,,,,,,,,,,,,,0.045,,,,,,,,,,,,,,,,,,,,,,,,,,,,right,0,40,-30,10,1,4262.652657,4262.652657,4262.652657,None,None,1,1,1.7565557,,,,,,,,,,,,,,,,,,,10,12,1,2024-10-25_15h28.48.868,uWM_experiment,2022.2.3,60.000168
,,,,,,,,,,,,,,,,,,,,6,0,6,0,12,0,12,0,,,,,,,,,,,,,,,,,,,,,,,,,,,,,,,,,,,,,,,,,,,,,,,,,,,,,,,,,,,,,,,,,,,,,,0.055,,,,,,,,,,,,,,,,,,,,,,,,,,,,right,1,130,30,160,1,4275.386448,4275.386448,4275.386448,None,None,2,0,0.8786002,,,,,,,,,,,,,,,,,,,10,12,1,2024-10-25_15h28.48.868,uWM_experiment,2022.2.3,60.000168
,,,,,,,,,,,,,,,,,,,,6,0,6,0,13,0,13,0,,,,,,,,,,,,,,,,,,,,,,,,,,,,,,,,,,,,,,,,,,,,,,,,,,,,,,,,,,,,,,,,,,,,,,0,,,,,,,,,,,,,,,,,,,,,,,,,,,,left,0,130,30,160,0,4282.870064,4282.870064,4282.870064,None,None,2,0,1.4910432,,,,,,,,,,,,,,,,,,,10,12,1,2024-10-25_15h28.48.868,uWM_experiment,2022.2.3,60.000168
,,,,,,,,,,,,,,,,,,,,6,0,6,0,14,0,14,0,,,,,,,,,,,,,,,,,,,,,,,,,,,,,,,,,,,,,,,,,,,,,,,,,,,,,,,,,,,,,,,,,,,,,,0.045,,,,,,,,,,,,,,,,,,,,,,,,,,,,left,1,10,-30,-20,1,4293.003798,4293.003798,4293.003798,None,None,1,1,2.2210771,,,,,,,,,,,,,,,,,,,10,12,1,2024-10-25_15h28.48.868,uWM_experiment,2022.2.3,60.000168
,,,,,,,,,,,,,,,,,,,,6,0,6,0,15,0,15,0,,,,,,,,,,,,,,,,,,,,,,,,,,,,,,,,,,,,,,,,,,,,,,,,,,,,,,,,,,,,,,,,,,,,,,0.055,,,,,,,,,,,,,,,,,,,,,,,,,,,,left,0,70,30,100,1,4301.354114,4301.354114,4301.354114,None,None,1,1,0.7427837,,,,,,,,,,,,,,,,,,,10,12,1,2024-10-25_15h28.48.868,uWM_experiment,2022.2.3,60.000168
,,,,,,,,,,,,,,,,,,,,6,0,6,0,16,0,16,0,,,,,,,,,,,,,,,,,,,,,,,,,,,,,,,,,,,,,,,,,,,,,,,,,,,,,,,,,,,,,,,,,,,,,,0.065,,,,,,,,,,,,,,,,,,,,,,,,,,,,left,0,10,30,40,1,4308.771071,4308.771071,4308.771071,None,None,1,1,0.7017747,,,,,,,,,,,,,,,,,,,10,12,1,2024-10-25_15h28.48.868,uWM_experiment,2022.2.3,60.000168
,,,,,,,,,,,,,,,,,,,,6,0,6,0,17,0,17,0,,,,,,,,,,,,,,,,,,,,,,,,,,,,,,,,,,,,,,,,,,,,,,,,,,,,,,,,,,,,,,,,,,,,,,0.075,,,,,,,,,,,,,,,,,,,,,,,,,,,,left,1,130,-30,100,1,4320.45485,4320.45485,4320.45485,None,None,2,0,0.9698773,,,,,,,,,,,,,,,,,,,10,12,1,2024-10-25_15h28.48.868,uWM_experiment,2022.2.3,60.000168
,,,,,,,,,,,,,,,,,,,,6,0,6,0,18,0,18,0,,,,,,,,,,,,,,,,,,,,,,,,,,,,,,,,,,,,,,,,,,,,,,,,,,,,,,,,,,,,,,,,,,,,,,0,,,,,,,,,,,,,,,,,,,,,,,,,,,,left,0,10,30,40,0,4327.221814,4327.221814,4327.221814,None,None,1,1,0.7709252,,,,,,,,,,,,,,,,,,,10,12,1,2024-10-25_15h28.48.868,uWM_experiment,2022.2.3,60.000168
,,,,,,,,,,,,,,,,,,,,6,0,6,0,19,0,19,0,,,,,,,,,,,,,,,,,,,,,,,,,,,,,,,,,,,,,,,,,,,,,,,,,,,,,,,,,,,,,,,,,,,,,,0.065,,,,,,,,,,,,,,,,,,,,,,,,,,,,right,1,100,30,130,1,4334.588714,4334.588714,4334.588714,None,None,1,1,1.1559287,,,,,,,,,,,,,,,,,,,10,12,1,2024-10-25_15h28.48.868,uWM_experiment,2022.2.3,60.000168
,,,,,,,,,,,,,,,,,,,,6,0,6,0,20,0,20,0,,,,,,,,,,,,,,,,,,,,,,,,,,,,,,,,,,,,,,,,,,,,,,,,,,,,,,,,,,,,,,,,,,,,,,0.075,,,,,,,,,,,,,,,,,,,,,,,,,,,,left,0,70,30,100,1,4346.55591,4346.55591,4346.55591,None,None,2,0,1.1328811,,,,,,,,,,,,,,,,,,,10,12,1,2024-10-25_15h28.48.868,uWM_experiment,2022.2.3,60.000168
,,,,,,,,,,,,,,,,,,,,6,0,6,0,21,0,21,0,,,,,,,,,,,,,,,,,,,,,,,,,,,,,,,,,,,,,,,,,,,,,,,,,,,,,,,,,,,,,,,,,,,,,,0.065,,,,,,,,,,,,,,,,,,,,,,,,,,,,right,1,130,30,160,1,4355.039526,4355.039526,4355.039526,None,None,2,0,0.7530235,,,,,,,,,,,,,,,,,,,10,12,1,2024-10-25_15h28.48.868,uWM_experiment,2022.2.3,60.000168
,,,,,,,,,,,,,,,,,,,,6,0,6,0,22,0,22,0,,,,,,,,,,,,,,,,,,,,,,,,,,,,,,,,,,,,,,,,,,,,,,,,,,,,,,,,,,,,,,,,,,,,,,0.055,,,,,,,,,,,,,,,,,,,,,,,,,,,,left,1,70,-30,40,1,4361.7398,4361.7398,4361.7398,None,None,1,1,0.8687405,,,,,,,,,,,,,,,,,,,10,12,1,2024-10-25_15h28.48.868,uWM_experiment,2022.2.3,60.000168
,,,,,,,,,,,,,,,,,,,,6,0,6,0,23,0,23,0,,,,,,,,,,,,,,,,,,,,,,,,,,,,,,,,,,,,,,,,,,,,,,,,,,,,,,,,,,,,,,,,,,,,,,0.065,,,,,,,,,,,,,,,,,,,,,,,,,,,,right,0,160,-30,130,1,4368.573403,4368.573403,4368.573403,None,None,2,0,1.6751881,,,,,,,,,,,,,,,,,,,10,12,1,2024-10-25_15h28.48.868,uWM_experiment,2022.2.3,60.000168
,,,,,,,,,,,,,,,,,,,,6,0,6,0,,,,,0,0,0,0,,,,,,,,,,,,,,,,,,,,,,,,,,,,,,,,,,,,,,,,,,,,,,,,,,,,,,,,,,,,,,,,,,,,,,,,,,,,,,,,,,,,,,,,,,,,,,,,,,,,,,,,,,,,4370.273448,4370.273448,space,18.7590722,None,space,,,,,4389.057496,4389.057496,80.0305954,,,,,,10,12,1,2024-10-25_15h28.48.868,uWM_experiment,2022.2.3,60.000168
,,,,,,,,,,,,,,,,,,,,6,0,6,0,,,,,1,0,1,0,,,,,,,,,,,,,,,,,,,,,,,,,,,,,,,,,,,,,,,,,,,,,,,,,,,,,,,,,,,,,,,,,,,,,,,,,,,,,,,,,,,,,,,,,,,,,,,,,,,,,,,,,,,,,,,,,,,,,,,,,,,,,,10,12,1,2024-10-25_15h28.48.868,uWM_experiment,2022.2.3,60.000168
,,,,,,,,,,,,,,,,,,,,6,0,6,0,,,,,2,0,2,0,,,,,,,,,,,,,,,,,,,,,,,,,,,,,,,,,,,,,,,,,,,,,,,,,,,,,,,,,,,,,,,,,,,,,,,,,,,,,,,,,,,,,,,,,,,,,,,,,,,,,,,,,,,,,,,,,,,,,,,,,,,,,,10,12,1,2024-10-25_15h28.48.868,uWM_experiment,2022.2.3,60.000168
,,,,,,,,,,,,,,,,,,,,7,0,7,0,0,0,0,0,,,,,,,,,,,,,,,,,,,,,,,,,,,,,,,,,,,,,,,,,,,,,,,,,,,,,,,,,,,,,,,,,,,,,,0.055,,,,,,,,,,,,,,,,,,,,4504.662034,4505.362024,4505.64537,4506.345395,4506.645408,4507.345449,4507.345449,4507.662121,left,0,130,30,160,1,4515.629086,4515.629086,4515.629086,None,None,1,1,1.5865815,,,,,,,space,,,,,,,4491.594841,4491.594841,13.0370748,,,10,12,1,2024-10-25_15h28.48.868,uWM_experiment,2022.2.3,60.000168
,,,,,,,,,,,,,,,,,,,,7,0,7,0,1,0,1,0,,,,,,,,,,,,,,,,,,,,,,,,,,,,,,,,,,,,,,,,,,,,,,,,,,,,,,,,,,,,,,,,,,,,,,0.065,,,,,,,,,,,,,,,,,,,,,,,,,,,,right,1,10,30,40,1,4524.62946,4524.62946,4524.62946,None,None,1,1,0.6983027,,,,,,,,,,,,,,,,,,,10,12,1,2024-10-25_15h28.48.868,uWM_experiment,2022.2.3,60.000168
,,,,,,,,,,,,,,,,,,,,7,0,7,0,2,0,2,0,,,,,,,,,,,,,,,,,,,,,,,,,,,,,,,,,,,,,,,,,,,,,,,,,,,,,,,,,,,,,,,,,,,,,,0.075,,,,,,,,,,,,,,,,,,,,,,,,,,,,right,1,40,30,70,1,4532.546422,4532.546422,4532.546422,None,None,1,1,0.7572772,,,,,,,,,,,,,,,,,,,10,12,1,2024-10-25_15h28.48.868,uWM_experiment,2022.2.3,60.000168
,,,,,,,,,,,,,,,,,,,,7,0,7,0,3,0,3,0,,,,,,,,,,,,,,,,,,,,,,,,,,,,,,,,,,,,,,,,,,,,,,,,,,,,,,,,,,,,,,,,,,,,,,0.085,,,,,,,,,,,,,,,,,,,,,,,,,,,,left,1,100,-30,70,1,4539.996718,4539.996718,4539.996718,None,None,2,0,0.6590238,,,,,,,,,,,,,,,,,,,10,12,1,2024-10-25_15h28.48.868,uWM_experiment,2022.2.3,60.000168
,,,,,,,,,,,,,,,,,,,,7,0,7,0,4,0,4,0,,,,,,,,,,,,,,,,,,,,,,,,,,,,,,,,,,,,,,,,,,,,,,,,,,,,,,,,,,,,,,,,,,,,,,0.075,,,,,,,,,,,,,,,,,,,,,,,,,,,,right,0,100,-30,70,1,4546.780289,4546.780289,4546.780289,None,None,1,1,0.6512241,,,,,,,,,,,,,,,,,,,10,12,1,2024-10-25_15h28.48.868,uWM_experiment,2022.2.3,60.000168
,,,,,,,,,,,,,,,,,,,,7,0,7,0,5,0,5,0,,,,,,,,,,,,,,,,,,,,,,,,,,,,,,,,,,,,,,,,,,,,,,,,,,,,,,,,,,,,,,,,,,,,,,0.085,,,,,,,,,,,,,,,,,,,,,,,,,,,,right,1,40,30,70,1,4553.530566,4553.530566,4553.530566,None,None,2,0,1.6289668,,,,,,,,,,,,,,,,,,,10,12,1,2024-10-25_15h28.48.868,uWM_experiment,2022.2.3,60.000168
,,,,,,,,,,,,,,,,,,,,7,0,7,0,6,0,6,0,,,,,,,,,,,,,,,,,,,,,,,,,,,,,,,,,,,,,,,,,,,,,,,,,,,,,,,,,,,,,,,,,,,,,,0.075,,,,,,,,,,,,,,,,,,,,,,,,,,,,left,0,10,30,40,1,4561.464229,4561.464229,4561.464229,None,None,1,1,2.7112755,,,,,,,,,,,,,,,,,,,10,12,1,2024-10-25_15h28.48.868,uWM_experiment,2022.2.3,60.000168
,,,,,,,,,,,,,,,,,,,,7,0,7,0,7,0,7,0,,,,,,,,,,,,,,,,,,,,,,,,,,,,,,,,,,,,,,,,,,,,,,,,,,,,,,,,,,,,,,,,,,,,,,0,,,,,,,,,,,,,,,,,,,,,,,,,,,,right,0,130,-30,100,0,4569.797887,4569.797887,4569.797887,None,None,1,1,0.6656874,,,,,,,,,,,,,,,,,,,10,12,1,2024-10-25_15h28.48.868,uWM_experiment,2022.2.3,60.000168
,,,,,,,,,,,,,,,,,,,,7,0,7,0,8,0,8,0,,,,,,,,,,,,,,,,,,,,,,,,,,,,,,,,,,,,,,,,,,,,,,,,,,,,,,,,,,,,,,,,,,,,,,0.085,,,,,,,,,,,,,,,,,,,,,,,,,,,,left,1,10,-30,-20,1,4576.41478,4576.41478,4576.41478,None,None,2,0,0.5845832,,,,,,,,,,,,,,,,,,,10,12,1,2024-10-25_15h28.48.868,uWM_experiment,2022.2.3,60.000168
,,,,,,,,,,,,,,,,,,,,7,0,7,0,9,0,9,0,,,,,,,,,,,,,,,,,,,,,,,,,,,,,,,,,,,,,,,,,,,,,,,,,,,,,,,,,,,,,,,,,,,,,,0.075,,,,,,,,,,,,,,,,,,,,,,,,,,,,right,1,100,30,130,1,4585.748504,4585.748504,4585.748504,None,None,2,0,1.6589471,,,,,,,,,,,,,,,,,,,10,12,1,2024-10-25_15h28.48.868,uWM_experiment,2022.2.3,60.000168
,,,,,,,,,,,,,,,,,,,,7,0,7,0,10,0,10,0,,,,,,,,,,,,,,,,,,,,,,,,,,,,,,,,,,,,,,,,,,,,,,,,,,,,,,,,,,,,,,,,,,,,,,0,,,,,,,,,,,,,,,,,,,,,,,,,,,,left,1,70,-30,40,0,4592.81544,4592.81544,4592.81544,None,None,1,1,0.8558217,,,,,,,,,,,,,,,,,,,10,12,1,2024-10-25_15h28.48.868,uWM_experiment,2022.2.3,60.000168
,,,,,,,,,,,,,,,,,,,,7,0,7,0,11,0,11,0,,,,,,,,,,,,,,,,,,,,,,,,,,,,,,,,,,,,,,,,,,,,,,,,,,,,,,,,,,,,,,,,,,,,,,0.1,,,,,,,,,,,,,,,,,,,,,,,,,,,,right,1,70,30,100,2,4608.449388,4608.449388,4608.449388,None,None,3,0,2.7578833,,,,,,,,,,,,,,,,,,,10,12,1,2024-10-25_15h28.48.868,uWM_experiment,2022.2.3,60.000168
,,,,,,,,,,,,,,,,,,,,7,0,7,0,12,0,12,0,,,,,,,,,,,,,,,,,,,,,,,,,,,,,,,,,,,,,,,,,,,,,,,,,,,,,,,,,,,,,,,,,,,,,,0.065,,,,,,,,,,,,,,,,,,,,,,,,,,,,left,1,70,-30,40,1,4617.016371,4617.016371,4617.016371,None,None,1,1,0.6387719,,,,,,,,,,,,,,,,,,,10,12,1,2024-10-25_15h28.48.868,uWM_experiment,2022.2.3,60.000168
,,,,,,,,,,,,,,,,,,,,7,0,7,0,13,0,13,0,,,,,,,,,,,,,,,,,,,,,,,,,,,,,,,,,,,,,,,,,,,,,,,,,,,,,,,,,,,,,,,,,,,,,,0,,,,,,,,,,,,,,,,,,,,,,,,,,,,left,0,10,30,40,0,4623.283278,4623.283278,4623.283278,None,None,1,1,1.6038562,,,,,,,,,,,,,,,,,,,10,12,1,2024-10-25_15h28.48.868,uWM_experiment,2022.2.3,60.000168
,,,,,,,,,,,,,,,,,,,,7,0,7,0,14,0,14,0,,,,,,,,,,,,,,,,,,,,,,,,,,,,,,,,,,,,,,,,,,,,,,,,,,,,,,,,,,,,,,,,,,,,,,0.075,,,,,,,,,,,,,,,,,,,,,,,,,,,,left,1,40,-30,10,1,4631.050248,4631.050248,4631.050248,None,None,2,0,0.7728991,,,,,,,,,,,,,,,,,,,10,12,1,2024-10-25_15h28.48.868,uWM_experiment,2022.2.3,60.000168
,,,,,,,,,,,,,,,,,,,,7,0,7,0,15,0,15,0,,,,,,,,,,,,,,,,,,,,,,,,,,,,,,,,,,,,,,,,,,,,,,,,,,,,,,,,,,,,,,,,,,,,,,0,,,,,,,,,,,,,,,,,,,,,,,,,,,,left,0,160,30,190,0,4637.883865,4637.883865,4637.883865,None,None,2,0,0.6432937,,,,,,,,,,,,,,,,,,,10,12,1,2024-10-25_15h28.48.868,uWM_experiment,2022.2.3,60.000168
,,,,,,,,,,,,,,,,,,,,7,0,7,0,16,0,16,0,,,,,,,,,,,,,,,,,,,,,,,,,,,,,,,,,,,,,,,,,,,,,,,,,,,,,,,,,,,,,,,,,,,,,,0.065,,,,,,,,,,,,,,,,,,,,,,,,,,,,right,0,10,-30,-20,1,4644.867467,4644.867467,4644.867467,None,None,2,0,1.2195231,,,,,,,,,,,,,,,,,,,10,12,1,2024-10-25_15h28.48.868,uWM_experiment,2022.2.3,60.000168
,,,,,,,,,,,,,,,,,,,,7,0,7,0,17,0,17,0,,,,,,,,,,,,,,,,,,,,,,,,,,,,,,,,,,,,,,,,,,,,,,,,,,,,,,,,,,,,,,,,,,,,,,0.055,,,,,,,,,,,,,,,,,,,,,,,,,,,,left,0,160,30,190,1,4653.634483,4653.634483,4653.634483,None,None,1,1,0.6124978,,,,,,,,,,,,,,,,,,,10,12,1,2024-10-25_15h28.48.868,uWM_experiment,2022.2.3,60.000168
,,,,,,,,,,,,,,,,,,,,7,0,7,0,18,0,18,0,,,,,,,,,,,,,,,,,,,,,,,,,,,,,,,,,,,,,,,,,,,,,,,,,,,,,,,,,,,,,,,,,,,,,,0.065,,,,,,,,,,,,,,,,,,,,,,,,,,,,right,0,100,-30,70,1,4659.984718,4659.984718,4659.984718,None,None,1,1,0.6623379,,,,,,,,,,,,,,,,,,,10,12,1,2024-10-25_15h28.48.868,uWM_experiment,2022.2.3,60.000168
,,,,,,,,,,,,,,,,,,,,7,0,7,0,19,0,19,0,,,,,,,,,,,,,,,,,,,,,,,,,,,,,,,,,,,,,,,,,,,,,,,,,,,,,,,,,,,,,,,,,,,,,,0,,,,,,,,,,,,,,,,,,,,,,,,,,,,left,0,40,30,70,0,4666.584959,4666.584959,4666.584959,None,None,1,1,1.0460495,,,,,,,,,,,,,,,,,,,10,12,1,2024-10-25_15h28.48.868,uWM_experiment,2022.2.3,60.000168
,,,,,,,,,,,,,,,,,,,,7,0,7,0,20,0,20,0,,,,,,,,,,,,,,,,,,,,,,,,,,,,,,,,,,,,,,,,,,,,,,,,,,,,,,,,,,,,,,,,,,,,,,0.075,,,,,,,,,,,,,,,,,,,,,,,,,,,,right,0,10,-30,-20,1,4676.302025,4676.302025,4676.302025,None,None,2,0,0.6088497,,,,,,,,,,,,,,,,,,,10,12,1,2024-10-25_15h28.48.868,uWM_experiment,2022.2.3,60.000168
,,,,,,,,,,,,,,,,,,,,7,0,7,0,21,0,21,0,,,,,,,,,,,,,,,,,,,,,,,,,,,,,,,,,,,,,,,,,,,,,,,,,,,,,,,,,,,,,,,,,,,,,,0.065,,,,,,,,,,,,,,,,,,,,,,,,,,,,left,1,160,-30,130,1,4682.868909,4682.868909,4682.868909,None,None,1,1,0.6259246,,,,,,,,,,,,,,,,,,,10,12,1,2024-10-25_15h28.48.868,uWM_experiment,2022.2.3,60.000168
,,,,,,,,,,,,,,,,,,,,7,0,7,0,22,0,22,0,,,,,,,,,,,,,,,,,,,,,,,,,,,,,,,,,,,,,,,,,,,,,,,,,,,,,,,,,,,,,,,,,,,,,,0,,,,,,,,,,,,,,,,,,,,,,,,,,,,left,0,160,30,190,0,4689.502567,4689.502567,4689.502567,None,None,1,1,0.8323179,,,,,,,,,,,,,,,,,,,10,12,1,2024-10-25_15h28.48.868,uWM_experiment,2022.2.3,60.000168
,,,,,,,,,,,,,,,,,,,,7,0,7,0,23,0,23,0,,,,,,,,,,,,,,,,,,,,,,,,,,,,,,,,,,,,,,,,,,,,,,,,,,,,,,,,,,,,,,,,,,,,,,0,,,,,,,,,,,,,,,,,,,,,,,,,,,,left,1,160,-30,130,0,4696.202782,4696.202782,4696.202782,None,None,1,1,1.2600907,,,,,,,,,,,,,,,,,,,10,12,1,2024-10-25_15h28.48.868,uWM_experiment,2022.2.3,60.000168
,,,,,,,,,,,,,,,,,,,,7,0,7,0,,,,,0,0,0,0,,,,,,,,,,,,,,,,,,,,,,,,,,,,,,,,,,,,,,,,,,,,,,,,,,,,,,,,,,,,,,,,,,,,,,,,,,,,,,,,,,,,,,,,,,,,,,,,,,,,,,,,,,,,4697.486148,4697.486148,space,9.2886698,None,None,,,,,,,,,,,,,10,12,1,2024-10-25_15h28.48.868,uWM_experiment,2022.2.3,60.000168
,,,,,,,,,,,,,,,,,,,,7,0,7,0,,,,,1,0,1,0,,,,,,,,,,,,,,,,,,,,,,,,,,,,,,,,,,,,,,,,,,,,,,,,,,,,,,,,,,,,,,,,,,,,,,,,,,,,,,,,,,,,,,,,,,,,,,,,,,,,,,,,,,,,,,,,,,,,,,,,,,,,,,10,12,1,2024-10-25_15h28.48.868,uWM_experiment,2022.2.3,60.000168
,,,,,,,,,,,,,,,,,,,,7,0,7,0,,,,,2,0,2,0,,,,,,,,,,,,,,,,,,,,,,,,,,,,,,,,,,,,,,,,,,,,,,,,,,,,,,,,,,,,,,,,,,,,,,,,,,,,,,,,,,,,,,,,,,,,,,,,,,,,,,,,,,,,,,,,,,,,,,,,,,,,,,10,12,1,2024-10-25_15h28.48.868,uWM_experiment,2022.2.3,60.000168
,,,,,,,,,,,,,,,,,,,,8,0,8,0,0,0,0,0,,,,,,,,,,,,,,,,,,,,,,,,,,,,,,,,,,,,,,,,,,,,,,,,,,,,,,,,,,,,,,,,,,,,,,0.075,,,,,,,,,,,,,,,,,,,,4706.803186,4707.503213,4707.803225,4708.503271,4708.803271,4709.503292,4709.503292,4709.819972,left,1,160,-30,130,1,4714.736826,4714.736826,4714.736826,None,None,1,1,0.5819376,,,,,,,None,,,,,,,,,,,,10,12,1,2024-10-25_15h28.48.868,uWM_experiment,2022.2.3,60.000168
,,,,,,,,,,,,,,,,,,,,8,0,8,0,1,0,1,0,,,,,,,,,,,,,,,,,,,,,,,,,,,,,,,,,,,,,,,,,,,,,,,,,,,,,,,,,,,,,,,,,,,,,,0.085,,,,,,,,,,,,,,,,,,,,,,,,,,,,left,0,70,30,100,1,4722.520486,4722.520486,4722.520486,None,None,1,1,0.5661451,,,,,,,,,,,,,,,,,,,10,12,1,2024-10-25_15h28.48.868,uWM_experiment,2022.2.3,60.000168
,,,,,,,,,,,,,,,,,,,,8,0,8,0,2,0,2,0,,,,,,,,,,,,,,,,,,,,,,,,,,,,,,,,,,,,,,,,,,,,,,,,,,,,,,,,,,,,,,,,,,,,,,0.095,,,,,,,,,,,,,,,,,,,,,,,,,,,,right,1,130,30,160,1,4730.104108,4730.104108,4730.104108,None,None,2,0,0.5344505,,,,,,,,,,,,,,,,,,,10,12,1,2024-10-25_15h28.48.868,uWM_experiment,2022.2.3,60.000168
,,,,,,,,,,,,,,,,,,,,8,0,8,0,3,0,3,0,,,,,,,,,,,,,,,,,,,,,,,,,,,,,,,,,,,,,,,,,,,,,,,,,,,,,,,,,,,,,,,,,,,,,,0,,,,,,,,,,,,,,,,,,,,,,,,,,,,left,1,70,-30,40,0,4736.654354,4736.654354,4736.654354,None,None,1,1,0.8642854,,,,,,,,,,,,,,,,,,,10,12,1,2024-10-25_15h28.48.868,uWM_experiment,2022.2.3,60.000168
,,,,,,,,,,,,,,,,,,,,8,0,8,0,4,0,4,0,,,,,,,,,,,,,,,,,,,,,,,,,,,,,,,,,,,,,,,,,,,,,,,,,,,,,,,,,,,,,,,,,,,,,,0,,,,,,,,,,,,,,,,,,,,,,,,,,,,left,1,100,-30,70,0,4743.854644,4743.854644,4743.854644,None,None,1,1,0.63195,,,,,,,,,,,,,,,,,,,10,12,1,2024-10-25_15h28.48.868,uWM_experiment,2022.2.3,60.000168
,,,,,,,,,,,,,,,,,,,,8,0,8,0,5,0,5,0,,,,,,,,,,,,,,,,,,,,,,,,,,,,,,,,,,,,,,,,,,,,,,,,,,,,,,,,,,,,,,,,,,,,,,0,,,,,,,,,,,,,,,,,,,,,,,,,,,,right,1,10,30,40,0,4750.821566,4750.821566,4750.821566,None,None,1,1,0.8008816,,,,,,,,,,,,,,,,,,,10,12,1,2024-10-25_15h28.48.868,uWM_experiment,2022.2.3,60.000168
,,,,,,,,,,,,,,,,,,,,8,0,8,0,6,0,6,0,,,,,,,,,,,,,,,,,,,,,,,,,,,,,,,,,,,,,,,,,,,,,,,,,,,,,,,,,,,,,,,,,,,,,,0.085,,,,,,,,,,,,,,,,,,,,,,,,,,,,right,1,130,30,160,1,4761.738642,4761.738642,4761.738642,None,None,2,0,0.7638466,,,,,,,,,,,,,,,,,,,10,12,1,2024-10-25_15h28.48.868,uWM_experiment,2022.2.3,60.000168
,,,,,,,,,,,,,,,,,,,,8,0,8,0,7,0,7,0,,,,,,,,,,,,,,,,,,,,,,,,,,,,,,,,,,,,,,,,,,,,,,,,,,,,,,,,,,,,,,,,,,,,,,0.075,,,,,,,,,,,,,,,,,,,,,,,,,,,,left,0,100,30,130,1,4768.205567,4768.205567,4768.205567,None,None,1,1,0.8088756,,,,,,,,,,,,,,,,,,,10,12,1,2024-10-25_15h28.48.868,uWM_experiment,2022.2.3,60.000168
,,,,,,,,,,,,,,,,,,,,8,0,8,0,8,0,8,0,,,,,,,,,,,,,,,,,,,,,,,,,,,,,,,,,,,,,,,,,,,,,,,,,,,,,,,,,,,,,,,,,,,,,,0,,,,,,,,,,,,,,,,,,,,,,,,,,,,left,0,100,30,130,0,4775.189193,4775.189193,4775.189193,None,None,1,1,0.689313,,,,,,,,,,,,,,,,,,,10,12,1,2024-10-25_15h28.48.868,uWM_experiment,2022.2.3,60.000168
,,,,,,,,,,,,,,,,,,,,8,0,8,0,9,0,9,0,,,,,,,,,,,,,,,,,,,,,,,,,,,,,,,,,,,,,,,,,,,,,,,,,,,,,,,,,,,,,,,,,,,,,,0.085,,,,,,,,,,,,,,,,,,,,,,,,,,,,left,1,10,-30,-20,1,4781.889464,4781.889464,4781.889464,None,None,1,1,0.6367695,,,,,,,,,,,,,,,,,,,10,12,1,2024-10-25_15h28.48.868,uWM_experiment,2022.2.3,60.000168
,,,,,,,,,,,,,,,,,,,,8,0,8,0,10,0,10,0,,,,,,,,,,,,,,,,,,,,,,,,,,,,,,,,,,,,,,,,,,,,,,,,,,,,,,,,,,,,,,,,,,,,,,0.095,,,,,,,,,,,,,,,,,,,,,,,,,,,,right,1,160,30,190,1,4789.473084,4789.473084,4789.473084,None,None,2,0,0.6531502,,,,,,,,,,,,,,,,,,,10,12,1,2024-10-25_15h28.48.868,uWM_experiment,2022.2.3,60.000168
,,,,,,,,,,,,,,,,,,,,8,0,8,0,11,0,11,0,,,,,,,,,,,,,,,,,,,,,,,,,,,,,,,,,,,,,,,,,,,,,,,,,,,,,,,,,,,,,,,,,,,,,,0,,,,,,,,,,,,,,,,,,,,,,,,,,,,left,1,130,-30,100,0,4796.10666,4796.10666,4796.10666,None,None,2,0,2.1076541,,,,,,,,,,,,,,,,,,,10,12,1,2024-10-25_15h28.48.868,uWM_experiment,2022.2.3,60.000168
,,,,,,,,,,,,,,,,,,,,8,0,8,0,12,0,12,0,,,,,,,,,,,,,,,,,,,,,,,,,,,,,,,,,,,,,,,,,,,,,,,,,,,,,,,,,,,,,,,,,,,,,,0.085,,,,,,,,,,,,,,,,,,,,,,,,,,,,left,1,40,-30,10,1,4804.540334,4804.540334,4804.540334,None,None,2,0,1.633964,,,,,,,,,,,,,,,,,,,10,12,1,2024-10-25_15h28.48.868,uWM_experiment,2022.2.3,60.000168
,,,,,,,,,,,,,,,,,,,,8,0,8,0,13,0,13,0,,,,,,,,,,,,,,,,,,,,,,,,,,,,,,,,,,,,,,,,,,,,,,,,,,,,,,,,,,,,,,,,,,,,,,0.075,,,,,,,,,,,,,,,,,,,,,,,,,,,,left,1,130,-30,100,1,4812.140639,4812.140639,4812.140639,None,None,1,1,0.9054653,,,,,,,,,,,,,,,,,,,10,12,1,2024-10-25_15h28.48.868,uWM_experiment,2022.2.3,60.000168
,,,,,,,,,,,,,,,,,,,,8,0,8,0,14,0,14,0,,,,,,,,,,,,,,,,,,,,,,,,,,,,,,,,,,,,,,,,,,,,,,,,,,,,,,,,,,,,,,,,,,,,,,0.085,,,,,,,,,,,,,,,,,,,,,,,,,,,,left,0,100,30,130,1,4819.390891,4819.390891,4819.390891,None,None,2,0,2.9833268,,,,,,,,,,,,,,,,,,,10,12,1,2024-10-25_15h28.48.868,uWM_experiment,2022.2.3,60.000168
,,,,,,,,,,,,,,,,,,,,8,0,8,0,15,0,15,0,,,,,,,,,,,,,,,,,,,,,,,,,,,,,,,,,,,,,,,,,,,,,,,,,,,,,,,,,,,,,,,,,,,,,,0.075,,,,,,,,,,,,,,,,,,,,,,,,,,,,right,1,40,30,70,1,4829.207935,4829.207935,4829.207935,None,None,3,0,1.4460768,,,,,,,,,,,,,,,,,,,10,12,1,2024-10-25_15h28.48.868,uWM_experiment,2022.2.3,60.000168
,,,,,,,,,,,,,,,,,,,,8,0,8,0,16,0,16,0,,,,,,,,,,,,,,,,,,,,,,,,,,,,,,,,,,,,,,,,,,,,,,,,,,,,,,,,,,,,,,,,,,,,,,0.1,,,,,,,,,,,,,,,,,,,,,,,,,,,,right,1,130,30,160,2,4838.024971,4838.024971,4838.024971,None,None,4,0,0.9089834,,,,,,,,,,,,,,,,,,,10,12,1,2024-10-25_15h28.48.868,uWM_experiment,2022.2.3,60.000168
,,,,,,,,,,,,,,,,,,,,8,0,8,0,17,0,17,0,,,,,,,,,,,,,,,,,,,,,,,,,,,,,,,,,,,,,,,,,,,,,,,,,,,,,,,,,,,,,,,,,,,,,,0.065,,,,,,,,,,,,,,,,,,,,,,,,,,,,left,1,130,-30,100,1,4844.825236,4844.825236,4844.825236,None,None,1,1,0.5567442,,,,,,,,,,,,,,,,,,,10,12,1,2024-10-25_15h28.48.868,uWM_experiment,2022.2.3,60.000168
,,,,,,,,,,,,,,,,,,,,8,0,8,0,18,0,18,0,,,,,,,,,,,,,,,,,,,,,,,,,,,,,,,,,,,,,,,,,,,,,,,,,,,,,,,,,,,,,,,,,,,,,,0.075,,,,,,,,,,,,,,,,,,,,,,,,,,,,left,0,70,30,100,1,4851.508826,4851.508826,4851.508826,None,None,1,1,1.2892131,,,,,,,,,,,,,,,,,,,10,12,1,2024-10-25_15h28.48.868,uWM_experiment,2022.2.3,60.000168
,,,,,,,,,,,,,,,,,,,,8,0,8,0,19,0,19,0,,,,,,,,,,,,,,,,,,,,,,,,,,,,,,,,,,,,,,,,,,,,,,,,,,,,,,,,,,,,,,,,,,,,,,0,,,,,,,,,,,,,,,,,,,,,,,,,,,,left,0,130,30,160,0,4859.425783,4859.425783,4859.425783,None,None,1,1,0.7560682,,,,,,,,,,,,,,,,,,,10,12,1,2024-10-25_15h28.48.868,uWM_experiment,2022.2.3,60.000168
,,,,,,,,,,,,,,,,,,,,8,0,8,0,20,0,20,0,,,,,,,,,,,,,,,,,,,,,,,,,,,,,,,,,,,,,,,,,,,,,,,,,,,,,,,,,,,,,,,,,,,,,,0.085,,,,,,,,,,,,,,,,,,,,,,,,,,,,left,1,100,-30,70,1,4866.609405,4866.609405,4866.609405,None,None,1,1,0.5885221,,,,,,,,,,,,,,,,,,,10,12,1,2024-10-25_15h28.48.868,uWM_experiment,2022.2.3,60.000168
,,,,,,,,,,,,,,,,,,,,8,0,8,0,21,0,21,0,,,,,,,,,,,,,,,,,,,,,,,,,,,,,,,,,,,,,,,,,,,,,,,,,,,,,,,,,,,,,,,,,,,,,,0,,,,,,,,,,,,,,,,,,,,,,,,,,,,right,1,130,30,160,0,4873.126319,4873.126319,4873.126319,None,None,1,1,1.4554337,,,,,,,,,,,,,,,,,,,10,12,1,2024-10-25_15h28.48.868,uWM_experiment,2022.2.3,60.000168
,,,,,,,,,,,,,,,,,,,,8,0,8,0,22,0,22,0,,,,,,,,,,,,,,,,,,,,,,,,,,,,,,,,,,,,,,,,,,,,,,,,,,,,,,,,,,,,,,,,,,,,,,0.095,,,,,,,,,,,,,,,,,,,,,,,,,,,,left,1,40,-30,10,1,4882.510008,4882.510008,4882.510008,None,None,2,0,0.8556532,,,,,,,,,,,,,,,,,,,10,12,1,2024-10-25_15h28.48.868,uWM_experiment,2022.2.3,60.000168
,,,,,,,,,,,,,,,,,,,,8,0,8,0,23,0,23,0,,,,,,,,,,,,,,,,,,,,,,,,,,,,,,,,,,,,,,,,,,,,,,,,,,,,,,,,,,,,,,,,,,,,,,0.085,,,,,,,,,,,,,,,,,,,,,,,,,,,,left,0,10,30,40,1,4888.976943,4888.976943,4888.976943,None,None,1,1,0.6767988,,,,,,,,,,,,,,,,,,,10,12,1,2024-10-25_15h28.48.868,uWM_experiment,2022.2.3,60.000168
,,,,,,,,,,,,,,,,,,,,8,0,8,0,,,,,0,0,0,0,,,,,,,,,,,,,,,,,,,,,,,,,,,,,,,,,,,,,,,,,,,,,,,,,,,,,,,,,,,,,,,,,,,,,,,,,,,,,,,,,,,,,,,,,,,,,,,,,,,,,,,,,,,,4889.676949,4889.676949,space,18.8248151,space,None,,4908.527706,4908.527706,12.0138367,,,,,,,,,10,12,1,2024-10-25_15h28.48.868,uWM_experiment,2022.2.3,60.000168
,,,,,,,,,,,,,,,,,,,,8,0,8,0,,,,,1,0,1,0,,,,,,,,,,,,,,,,,,,,,,,,,,,,,,,,,,,,,,,,,,,,,,,,,,,,,,,,,,,,,,,,,,,,,,,,,,,,,,,,,,,,,,,,,,,,,,,,,,,,,,,,,,,,,,,,,,,,,,,,,,,,,,10,12,1,2024-10-25_15h28.48.868,uWM_experiment,2022.2.3,60.000168
,,,,,,,,,,,,,,,,,,,,8,0,8,0,,,,,2,0,2,0,,,,,,,,,,,,,,,,,,,,,,,,,,,,,,,,,,,,,,,,,,,,,,,,,,,,,,,,,,,,,,,,,,,,,,,,,,,,,,,,,,,,,,,,,,,,,,,,,,,,,,,,,,,,,,,,,,,,,,,,,,,,,,10,12,1,2024-10-25_15h28.48.868,uWM_experiment,2022.2.3,60.000168
,,,,,,,,,,,,,,,,,,,,9,0,9,0,0,0,0,0,,,,,,,,,,,,,,,,,,,,,,,,,,,,,,,,,,,,,,,,,,,,,,,,,,,,,,,,,,,,,,,,,,,,,,0.1,,,,,,,,,,,,,,,,,,,,4920.561466,4921.261506,4921.561523,4922.261553,4922.561589,4923.261593,4923.261593,4923.578278,right,1,70,30,100,2,4935.87873,4935.87873,4935.87873,None,None,4,0,2.0307141,,,,,,,None,,,,,,,,,,,,10,12,1,2024-10-25_15h28.48.868,uWM_experiment,2022.2.3,60.000168
,,,,,,,,,,,,,,,,,,,,9,0,9,0,1,0,1,0,,,,,,,,,,,,,,,,,,,,,,,,,,,,,,,,,,,,,,,,,,,,,,,,,,,,,,,,,,,,,,,,,,,,,,0,,,,,,,,,,,,,,,,,,,,,,,,,,,,left,0,160,30,190,0,4943.979095,4943.979095,4943.979095,None,None,1,1,1.1623018,,,,,,,,,,,,,,,,,,,10,12,1,2024-10-25_15h28.48.868,uWM_experiment,2022.2.3,60.000168
,,,,,,,,,,,,,,,,,,,,9,0,9,0,2,0,2,0,,,,,,,,,,,,,,,,,,,,,,,,,,,,,,,,,,,,,,,,,,,,,,,,,,,,,,,,,,,,,,,,,,,,,,0,,,,,,,,,,,,,,,,,,,,,,,,,,,,right,0,10,-30,-20,0,4951.096015,4951.096015,4951.096015,None,None,1,1,0.6373179,,,,,,,,,,,,,,,,,,,10,12,1,2024-10-25_15h28.48.868,uWM_experiment,2022.2.3,60.000168
,,,,,,,,,,,,,,,,,,,,9,0,9,0,3,0,3,0,,,,,,,,,,,,,,,,,,,,,,,,,,,,,,,,,,,,,,,,,,,,,,,,,,,,,,,,,,,,,,,,,,,,,,0.095,,,,,,,,,,,,,,,,,,,,,,,,,,,,left,1,40,-30,10,1,4958.096292,4958.096292,4958.096292,None,None,3,0,1.1651813,,,,,,,,,,,,,,,,,,,10,12,1,2024-10-25_15h28.48.868,uWM_experiment,2022.2.3,60.000168
,,,,,,,,,,,,,,,,,,,,9,0,9,0,4,0,4,0,,,,,,,,,,,,,,,,,,,,,,,,,,,,,,,,,,,,,,,,,,,,,,,,,,,,,,,,,,,,,,,,,,,,,,0.1,,,,,,,,,,,,,,,,,,,,,,,,,,,,left,1,10,-30,-20,2,4965.896581,4965.896581,4965.896581,None,None,4,0,1.0526453,,,,,,,,,,,,,,,,,,,10,12,1,2024-10-25_15h28.48.868,uWM_experiment,2022.2.3,60.000168
,,,,,,,,,,,,,,,,,,,,9,0,9,0,5,0,5,0,,,,,,,,,,,,,,,,,,,,,,,,,,,,,,,,,,,,,,,,,,,,,,,,,,,,,,,,,,,,,,,,,,,,,,0.085,,,,,,,,,,,,,,,,,,,,,,,,,,,,left,1,70,-30,40,1,4973.080206,4973.080206,4973.080206,None,None,1,1,0.6770833,,,,,,,,,,,,,,,,,,,10,12,1,2024-10-25_15h28.48.868,uWM_experiment,2022.2.3,60.000168
,,,,,,,,,,,,,,,,,,,,9,0,9,0,6,0,6,0,,,,,,,,,,,,,,,,,,,,,,,,,,,,,,,,,,,,,,,,,,,,,,,,,,,,,,,,,,,,,,,,,,,,,,0,,,,,,,,,,,,,,,,,,,,,,,,,,,,right,0,130,-30,100,0,4980.197157,4980.197157,4980.197157,None,None,2,0,1.0640401,,,,,,,,,,,,,,,,,,,10,12,1,2024-10-25_15h28.48.868,uWM_experiment,2022.2.3,60.000168
,,,,,,,,,,,,,,,,,,,,9,0,9,0,7,0,7,0,,,,,,,,,,,,,,,,,,,,,,,,,,,,,,,,,,,,,,,,,,,,,,,,,,,,,,,,,,,,,,,,,,,,,,0.095,,,,,,,,,,,,,,,,,,,,,,,,,,,,left,0,70,30,100,1,4987.347403,4987.347403,4987.347403,None,None,2,0,0.7217947,,,,,,,,,,,,,,,,,,,10,12,1,2024-10-25_15h28.48.868,uWM_experiment,2022.2.3,60.000168
,,,,,,,,,,,,,,,,,,,,9,0,9,0,8,0,8,0,,,,,,,,,,,,,,,,,,,,,,,,,,,,,,,,,,,,,,,,,,,,,,,,,,,,,,,,,,,,,,,,,,,,,,0,,,,,,,,,,,,,,,,,,,,,,,,,,,,right,0,40,-30,10,0,4993.931022,4993.931022,4993.931022,None,None,1,1,0.8981747,,,,,,,,,,,,,,,,,,,10,12,1,2024-10-25_15h28.48.868,uWM_experiment,2022.2.3,60.000168
,,,,,,,,,,,,,,,,,,,,9,0,9,0,9,0,9,0,,,,,,,,,,,,,,,,,,,,,,,,,,,,,,,,,,,,,,,,,,,,,,,,,,,,,,,,,,,,,,,,,,,,,,0,,,,,,,,,,,,,,,,,,,,,,,,,,,,left,1,40,-30,10,0,5002.731371,5002.731371,5002.731371,None,None,2,0,0.5298128,,,,,,,,,,,,,,,,,,,10,12,1,2024-10-25_15h28.48.868,uWM_experiment,2022.2.3,60.000168
,,,,,,,,,,,,,,,,,,,,9,0,9,0,10,0,10,0,,,,,,,,,,,,,,,,,,,,,,,,,,,,,,,,,,,,,,,,,,,,,,,,,,,,,,,,,,,,,,,,,,,,,,0.085,,,,,,,,,,,,,,,,,,,,,,,,,,,,left,1,130,-30,100,1,5015.698535,5015.698535,5015.698535,None,None,2,0,0.8265163,,,,,,,,,,,,,,,,,,,10,12,1,2024-10-25_15h28.48.868,uWM_experiment,2022.2.3,60.000168
,,,,,,,,,,,,,,,,,,,,9,0,9,0,11,0,11,0,,,,,,,,,,,,,,,,,,,,,,,,,,,,,,,,,,,,,,,,,,,,,,,,,,,,,,,,,,,,,,,,,,,,,,0.075,,,,,,,,,,,,,,,,,,,,,,,,,,,,right,1,100,30,130,1,5023.215478,5023.215478,5023.215478,None,None,3,0,1.3575991,,,,,,,,,,,,,,,,,,,10,12,1,2024-10-25_15h28.48.868,uWM_experiment,2022.2.3,60.000168
