PreTrainingPAS4_loop.thisRepN,PreTrainingPAS4_loop.thisTrialN,PreTrainingPAS4_loop.thisN,PreTrainingPAS4_loop.thisIndex,PreTrainingPAS1_loop.thisRepN,PreTrainingPAS1_loop.thisTrialN,PreTrainingPAS1_loop.thisN,PreTrainingPAS1_loop.thisIndex,RepeatCV_loop.thisRepN,RepeatCV_loop.thisTrialN,RepeatCV_loop.thisN,RepeatCV_loop.thisIndex,TrainingCV_loop.thisRepN,TrainingCV_loop.thisTrialN,TrainingCV_loop.thisN,TrainingCV_loop.thisIndex,TrainingCAL_loop.thisRepN,TrainingCAL_loop.thisTrialN,TrainingCAL_loop.thisN,TrainingCAL_loop.thisIndex,blocks_loop.thisRepN,blocks_loop.thisTrialN,blocks_loop.thisN,blocks_loop.thisIndex,trials_loop.thisRepN,trials_loop.thisTrialN,trials_loop.thisN,trials_loop.thisIndex,TrainingPAS1_loop.thisRepN,TrainingPAS1_loop.thisTrialN,TrainingPAS1_loop.thisN,TrainingPAS1_loop.thisIndex,spacebarWelcome0.started,spacebarWelcome0.keys,spacebarWelcome0.rt,spacebarWelcome1.started,gaborWelcome1.started,maskWelcome1.started,textMaskWelcome1.started,spacebarWelcome1.keys,spacebarWelcome1.rt,spacebarWelcome2.started,spacebarWelcome2.keys,spacebarWelcome2.rt,textInst_PreTrainingPAS4.started,spacebarPreTrainingPAS4.started,spacebarPreTrainingPAS4.keys,spacebarPreTrainingPAS4.rt,textPreTrainingPAS1.started,spacebarPreTrainingPAS1.started,spacebarPreTrainingPAS1.keys,spacebarPreTrainingPAS1.rt,textQUEST0.started,spacebarQUEST0.started,spacebarQUEST0.keys,spacebarQUEST0.rt,spacebar0.started,spacebar0.keys,spacebar0.rt,spacebar1.started,spacebar1.keys,spacebar1.rt,textInstructions2.started,spacebar2.started,Gabor1Inst2.started,Gabor2Inst2.started,Gabor3Inst2.started,Gabor4Inst2.started,spacebar2.keys,spacebar2.rt,textInstructionsPAS.started,spacebarInstPAS.started,spacebarInstPAS.keys,spacebarInstPAS.rt,textInstructions3.started,spacebar3.started,spacebar3.keys,spacebar3.rt,WMresp_CV,WMresp_CV_acc,oriMemo_CV,gyre_CV,oriTest_CV,feedbackText.started,sliderCV.started,PAStextCV.started,PASkeyCV.started,sliderCV.response,sliderCV.rt,PASkeyCV.keys,PASkeyCV.corr,PASkeyCV.rt,feedbackText.stopped,TextInstructionsCAL.started,spacebarCAL.started,spacebarCAL.keys,spacebarCAL.rt,contrast,WMresp_CAL,WMresp_CAL_acc,oriMemo_CAL,gyre_CAL,oriTest_CAL,cue_CAL,sliderCAL.started,PAStextCAL.started,PASkeyCAL.started,sliderCAL.response,sliderCAL.rt,PASkeyCAL.keys,PASkeyCAL.corr,PASkeyCAL.rt,propUnseen_CAL,textStart.started,spacebar4.started,spacebar4.keys,spacebar4.rt,three.started,three.stopped,two.started,two.stopped,one.started,one.stopped,blank_countdown.started,blank_countdown.stopped,WMresp,WMresp_acc,oriMemo,gyre,oriTest,cue,slider.started,textPAS_firstGabor.started,PASkey.started,slider.response,slider.rt,PASkey.keys,PASkey.corr,PASkey.rt,spacebarContinue.started,textBreak.started,spacebarContinue.keys,spacebarContinue.rt,spacebar_reminder.keys,spacebar_TrainingPAS1.keys,spacebar_endpractice.keys,spacebar_reminder.started,textReminder.started,spacebar_reminder.rt,textInst_TrainingPAS1.started,spacebar_TrainingPAS1.started,spacebar_TrainingPAS1.rt,textend_practicePAS1.started,spacebar_endpractice.started,spacebar_endpractice.rt,textThanks.started,buttonURL.started,buttonURL.numClicks,buttonURL.timesOn,buttonURL.timesOff,laboratory,participant,session,date,expName,psychopyVersion,frameRate
,,,,,,,,,,,,,,,,,,,,,,,,,,,,,,,,64.0553773,space,50.5081608,,,,,,,,,,,,,,,,,,,,,,,,,,,,,,,,,,,,,,,,,,,,,,,,,,,,,,,,,,,,,,,,,,,,,,,,,,,,,,,,,,,,,,,,,,,,,,,,,,,,,,,,,,,,,,,,,,,,,,,,,,,,,,10,12,2,2024-11-01_14h18.00.415,uWM_experiment,2022.2.3,60.00495641
,,,,,,,,,,,,,,,,,,,,,,,,,,,,,,,,,,,114.6072089,114.6072089,114.6072089,114.6072089,space,73.7800981,,,,,,,,,,,,,,,,,,,,,,,,,,,,,,,,,,,,,,,,,,,,,,,,,,,,,,,,,,,,,,,,,,,,,,,,,,,,,,,,,,,,,,,,,,,,,,,,,,,,,,,,,,,,,,,,,,,,,,,,10,12,2,2024-11-01_14h18.00.415,uWM_experiment,2022.2.3,60.00495641
,,,,,,,,,,,,,,,,,,,,,,,,,,,,,,,,,,,,,,,,,188.4100939,space,26.2970703,,,,,,,,,,,,,,,,,,,,,,,,,,,,,,,,,,,,,,,,,,,,,,,,,,,,,,,,,,,,,,,,,,,,,,,,,,,,,,,,,,,,,,,,,,,,,,,,,,,,,,,,,,,,,,,,,,,,,10,12,2,2024-11-01_14h18.00.415,uWM_experiment,2022.2.3,60.00495641
,,,,,,,,,,,,,,,,,,,,,,,,,,,,,,,,,,,,,,,,,,,,214.7278086,214.7278086,space,65.3550626,,,,,,,,,,,,,,,,,,,,,,,,,,,,,,,,,,,,,,,,,,,,,,,,,,,,,,,,,,,,,,,,,,,,,,,,,,,,,,,,,,,,,,,,,,,,,,,,,,,,,,,,,,,,,,,,,10,12,2,2024-11-01_14h18.00.415,uWM_experiment,2022.2.3,60.00495641
0,0,0,0,,,,,,,,,,,,,,,,,,,,,,,,,,,,,,,,,,,,,,,,,,,,,,,,,,,,,,,,,,,,,,,,,,,,,,,,,,,,,,,,,,,,,,,,,,,,,,,,,,,,,,,,,,,,,,,,,,,,,,,,,,,,,,,,,,,,,,,,,,,,,,,,,,,,,,,,,,,,,10,12,2,2024-11-01_14h18.00.415,uWM_experiment,2022.2.3,60.00495641
1,0,1,0,,,,,,,,,,,,,,,,,,,,,,,,,,,,,,,,,,,,,,,,,,,,,,,,,,,,,,,,,,,,,,,,,,,,,,,,,,,,,,,,,,,,,,,,,,,,,,,,,,,,,,,,,,,,,,,,,,,,,,,,,,,,,,,,,,,,,,,,,,,,,,,,,,,,,,,,,,,,,10,12,2,2024-11-01_14h18.00.415,uWM_experiment,2022.2.3,60.00495641
2,0,2,0,,,,,,,,,,,,,,,,,,,,,,,,,,,,,,,,,,,,,,,,,,,,,,,,,,,,,,,,,,,,,,,,,,,,,,,,,,,,,,,,,,,,,,,,,,,,,,,,,,,,,,,,,,,,,,,,,,,,,,,,,,,,,,,,,,,,,,,,,,,,,,,,,,,,,,,,,,,,,10,12,2,2024-11-01_14h18.00.415,uWM_experiment,2022.2.3,60.00495641
,,,,,,,,,,,,,,,,,,,,,,,,,,,,,,,,,,,,,,,,,,,,,,,,322.6988238,322.6988238,space,62.34366,,,,,,,,,,,,,,,,,,,,,,,,,,,,,,,,,,,,,,,,,,,,,,,,,,,,,,,,,,,,,,,,,,,,,,,,,,,,,,,,,,,,,,,,,,,,,,,,,,,,,,,,,,,,,10,12,2,2024-11-01_14h18.00.415,uWM_experiment,2022.2.3,60.00495641
,,,,0,0,0,0,,,,,,,,,,,,,,,,,,,,,,,,,,,,,,,,,,,,,,,,,,,,,,,,,,,,,,,,,,,,,,,,,,,,,,,,,,,,,,,,,,,,,,,,,,,,,,,,,,,,,,,,,,,,,,,,,,,,,,,,,,,,,,,,,,,,,,,,,,,,,,,,,,,,,,,,,10,12,2,2024-11-01_14h18.00.415,uWM_experiment,2022.2.3,60.00495641
,,,,1,0,1,0,,,,,,,,,,,,,,,,,,,,,,,,,,,,,,,,,,,,,,,,,,,,,,,,,,,,,,,,,,,,,,,,,,,,,,,,,,,,,,,,,,,,,,,,,,,,,,,,,,,,,,,,,,,,,,,,,,,,,,,,,,,,,,,,,,,,,,,,,,,,,,,,,,,,,,,,,10,12,2,2024-11-01_14h18.00.415,uWM_experiment,2022.2.3,60.00495641
,,,,2,0,2,0,,,,,,,,,,,,,,,,,,,,,,,,,,,,,,,,,,,,,,,,,,,,,,,,,,,,,,,,,,,,,,,,,,,,,,,,,,,,,,,,,,,,,,,,,,,,,,,,,,,,,,,,,,,,,,,,,,,,,,,,,,,,,,,,,,,,,,,,,,,,,,,,,,,,,,,,,10,12,2,2024-11-01_14h18.00.415,uWM_experiment,2022.2.3,60.00495641
,,,,,,,,,,,,,,,,,,,,,,,,,,,,,,,,,,,,,,,,,,,,,,,,,,,,396.2684452,396.2684452,space,41.1499172,,,,,,,,,,,,,,,,,,,,,,,,,,,,,,,,,,,,,,,,,,,,,,,,,,,,,,,,,,,,,,,,,,,,,,,,,,,,,,,,,,,,,,,,,,,,,,,,,,,,,,,,,10,12,2,2024-11-01_14h18.00.415,uWM_experiment,2022.2.3,60.00495641
,,,,,,,,,,,,,,,,,,,,,,,,,,,,,,,,,,,,,,,,,,,,,,,,,,,,,,,,584.2593337,space,43.0222265,,,,,,,,,,,,,,,,,,,,,,,,,,,,,,,,,,,,,,,,,,,,,,,,,,,,,,,,,,,,,,,,,,,,,,,,,,,,,,,,,,,,,,,,,,,,,,,,,,,,,,10,12,2,2024-11-01_14h18.00.415,uWM_experiment,2022.2.3,60.00495641
,,,,,,,,,,,,,,,,,,,,,,,,,,,,,,,,,,,,,,,,,,,,,,,,,,,,,,,,,,,627.3110532,space,141.5700671,,,,,,,,,,,,,,,,,,,,,,,,,,,,,,,,,,,,,,,,,,,,,,,,,,,,,,,,,,,,,,,,,,,,,,,,,,,,,,,,,,,,,,,,,,,,,,,,,,,10,12,2,2024-11-01_14h18.00.415,uWM_experiment,2022.2.3,60.00495641
,,,,,,,,,,,,,,,,,,,,,,,,,,,,,,,,,,,,,,,,,,,,,,,,,,,,,,,,,,,,,,768.9000699,768.9000699,768.9000699,768.9000699,768.9000699,768.9000699,space,34.3247691,,,,,,,,,,,,,,,,,,,,,,,,,,,,,,,,,,,,,,,,,,,,,,,,,,,,,,,,,,,,,,,,,,,,,,,,,,,,,,,,,,,,,,,,,,,10,12,2,2024-11-01_14h18.00.415,uWM_experiment,2022.2.3,60.00495641
,,,,,,,,,,,,,,,,,,,,,,,,,,,,,,,,,,,,,,,,,,,,,,,,,,,,,,,,,,,,,,,,,,,,,,803.2514652,803.2514652,space,3.7493516,,,,,,,,,,,,,,,,,,,,,,,,,,,,,,,,,,,,,,,,,,,,,,,,,,,,,,,,,,,,,,,,,,,,,,,,,,,,,,,,,,,,,,,10,12,2,2024-11-01_14h18.00.415,uWM_experiment,2022.2.3,60.00495641
,,,,,,,,,,,,,,,,,,,,,,,,,,,,,,,,,,,,,,,,,,,,,,,,,,,,,,,,,,,,,,,,,,,,,,,,,,807.0182363,807.0182363,space,21.8545609,,,,,,,,,,,,,,,,,,,,,,,,,,,,,,,,,,,,,,,,,,,,,,,,,,,,,,,,,,,,,,,,,,,,,,,,,,,,,,,,,,,10,12,2,2024-11-01_14h18.00.415,uWM_experiment,2022.2.3,60.00495641
,,,,,,,,0,0,0,0,0,0,0,0,,,,,,,,,,,,,,,,,,,,,,,,,,,,,,,,,,,,,,,,,,,,,,,,,,,,,,,,,,,,,,,left,1,130,-30,100,840.3029565,841.302977,841.302977,841.302977,None,None,4,0,6.3056617,,,,,,,,,,,,,,,,,,,,,,,,,,,,,,,,,,,,,,,,,,,,,,,,,,,,,,,,,,,,,,,,,,,,,10,12,2,2024-11-01_14h18.00.415,uWM_experiment,2022.2.3,60.00495641
,,,,,,,,0,0,0,0,1,0,1,0,,,,,,,,,,,,,,,,,,,,,,,,,,,,,,,,,,,,,,,,,,,,,,,,,,,,,,,,,,,,,,,right,0,100,-30,70,877.5044345,878.5044631,878.5044631,878.5044631,None,None,3,0,8.2241505,,,,,,,,,,,,,,,,,,,,,,,,,,,,,,,,,,,,,,,,,,,,,,,,,,,,,,,,,,,,,,,,,,,,,10,12,2,2024-11-01_14h18.00.415,uWM_experiment,2022.2.3,60.00495641
,,,,,,,,0,0,0,0,2,0,2,0,,,,,,,,,,,,,,,,,,,,,,,,,,,,,,,,,,,,,,,,,,,,,,,,,,,,,,,,,,,,,,,left,1,160,-30,130,894.7217996,895.721911,895.721911,895.721911,None,None,4,0,3.3906391,895.721911,,,,,,,,,,,,,,,,,,,,,,,,,,,,,,,,,,,,,,,,,,,,,,,,,,,,,,,,,,,,,,,,,,,,10,12,2,2024-11-01_14h18.00.415,uWM_experiment,2022.2.3,60.00495641
,,,,,,,,0,0,0,0,3,0,3,0,,,,,,,,,,,,,,,,,,,,,,,,,,,,,,,,,,,,,,,,,,,,,,,,,,,,,,,,,,,,,,,right,1,40,30,70,907.1389644,908.1390056,908.1390056,908.1390056,None,None,4,0,5.7095051,908.1390056,,,,,,,,,,,,,,,,,,,,,,,,,,,,,,,,,,,,,,,,,,,,,,,,,,,,,,,,,,,,,,,,,,,,10,12,2,2024-11-01_14h18.00.415,uWM_experiment,2022.2.3,60.00495641
,,,,,,,,0,0,0,0,4,0,4,0,,,,,,,,,,,,,,,,,,,,,,,,,,,,,,,,,,,,,,,,,,,,,,,,,,,,,,,,,,,,,,,left,1,130,-30,100,922.2729345,923.2729471,923.2729471,923.2729471,None,None,4,0,0.9995239,923.2729471,,,,,,,,,,,,,,,,,,,,,,,,,,,,,,,,,,,,,,,,,,,,,,,,,,,,,,,,,,,,,,,,,,,,10,12,2,2024-11-01_14h18.00.415,uWM_experiment,2022.2.3,60.00495641
,,,,,,,,0,0,0,0,5,0,5,0,,,,,,,,,,,,,,,,,,,,,,,,,,,,,,,,,,,,,,,,,,,,,,,,,,,,,,,,,,,,,,,right,1,70,30,100,935.5234326,936.5234852,936.5234852,936.5234852,None,None,4,0,1.3569074,,,,,,,,,,,,,,,,,,,,,,,,,,,,,,,,,,,,,,,,,,,,,,,,,,,,,,,,,,,,,,,,,,,,,10,12,2,2024-11-01_14h18.00.415,uWM_experiment,2022.2.3,60.00495641
,,,,,,,,0,0,0,0,,,,,,,,,,,,,,,,,,,,,,,,,,,,,,,,,,,,,,,,,,,,,,,,,,,,,,,,,,,,,,,,,,,,,,,,,,,,,,,,,,,,,,,,,,,,,,,,,,,,,,,,,,,,,,,,,,,,,,,,,,,,,,,,,,,,,,,,,,,,,,,,,,,,,10,12,2,2024-11-01_14h18.00.415,uWM_experiment,2022.2.3,60.00495641
,,,,,,,,1,0,1,0,0,0,0,0,,,,,,,,,,,,,,,,,,,,,,,,,,,,,,,,,,,,,,,,,,,,,,,,,,,,,,,,,,,,,,,left,1,10,-30,-20,999.9426822,1000.942734,1000.942734,1000.942734,None,None,4,0,0.793446,1000.942734,,,,,,,,,,,,,,,,,,,,,,,,,,,,,,,,,,,,,,,,,,,,,,,,,,,,,,,,,,,,,,,,,,,,10,12,2,2024-11-01_14h18.00.415,uWM_experiment,2022.2.3,60.00495641
,,,,,,,,1,0,1,0,1,0,1,0,,,,,,,,,,,,,,,,,,,,,,,,,,,,,,,,,,,,,,,,,,,,,,,,,,,,,,,,,,,,,,,left,1,40,-30,10,1008.259701,1009.259735,1009.259735,1009.259735,None,None,4,0,2.9723142,,,,,,,,,,,,,,,,,,,,,,,,,,,,,,,,,,,,,,,,,,,,,,,,,,,,,,,,,,,,,,,,,,,,,10,12,2,2024-11-01_14h18.00.415,uWM_experiment,2022.2.3,60.00495641
,,,,,,,,1,0,1,0,2,0,2,0,,,,,,,,,,,,,,,,,,,,,,,,,,,,,,,,,,,,,,,,,,,,,,,,,,,,,,,,,,,,,,,right,1,100,30,130,1019.210157,1020.210173,1020.210173,1020.210173,None,None,4,0,1.9899365,,,,,,,,,,,,,,,,,,,,,,,,,,,,,,,,,,,,,,,,,,,,,,,,,,,,,,,,,,,,,,,,,,,,,10,12,2,2024-11-01_14h18.00.415,uWM_experiment,2022.2.3,60.00495641
,,,,,,,,1,0,1,0,3,0,3,0,,,,,,,,,,,,,,,,,,,,,,,,,,,,,,,,,,,,,,,,,,,,,,,,,,,,,,,,,,,,,,,right,1,160,30,190,1029.177204,1030.177238,1030.177238,1030.177238,None,None,4,0,2.5186859,1030.177238,,,,,,,,,,,,,,,,,,,,,,,,,,,,,,,,,,,,,,,,,,,,,,,,,,,,,,,,,,,,,,,,,,,,10,12,2,2024-11-01_14h18.00.415,uWM_experiment,2022.2.3,60.00495641
,,,,,,,,1,0,1,0,4,0,4,0,,,,,,,,,,,,,,,,,,,,,,,,,,,,,,,,,,,,,,,,,,,,,,,,,,,,,,,,,,,,,,,right,1,70,30,100,1045.377863,1046.377888,1046.377888,1046.377888,None,None,4,0,1.550131,1046.377888,,,,,,,,,,,,,,,,,,,,,,,,,,,,,,,,,,,,,,,,,,,,,,,,,,,,,,,,,,,,,,,,,,,,10,12,2,2024-11-01_14h18.00.415,uWM_experiment,2022.2.3,60.00495641
,,,,,,,,1,0,1,0,5,0,5,0,,,,,,,,,,,,,,,,,,,,,,,,,,,,,,,,,,,,,,,,,,,,,,,,,,,,,,,,,,,,,,,right,1,10,30,40,1055.144906,1056.144947,1056.144947,1056.144947,None,None,4,0,3.0868848,1056.144947,,,,,,,,,,,,,,,,,,,,,,,,,,,,,,,,,,,,,,,,,,,,,,,,,,,,,,,,,,,,,,,,,,,,10,12,2,2024-11-01_14h18.00.415,uWM_experiment,2022.2.3,60.00495641
,,,,,,,,1,0,1,0,,,,,,,,,,,,,,,,,,,,,,,,,,,,,,,,,,,,,,,,,,,,,,,,,,,,,,,,,,,,,,,,,,,,,,,,,,,,,,,,,,,,,,,,,,,,,,,,,,,,,,,,,,,,,,,,,,,,,,,,,,,,,,,,,,,,,,,,,,,,,,,,,,,,,10,12,2,2024-11-01_14h18.00.415,uWM_experiment,2022.2.3,60.00495641
,,,,,,,,,,,,,,,,,,,,,,,,,,,,,,,,,,,,,,,,,,,,,,,,,,,,,,,,,,,,,,,,,,,,,,,,,,,,,,,,,,,,,,,,,,,,,1059.261731,1059.261731,space,5.1622493,,,,,,,,,,,,,,,,,,,,,,,,,,,,,,,,,,,,,,,,,,,,,,,,,,,,,,,,,,,,,,,,10,12,2,2024-11-01_14h18.00.415,uWM_experiment,2022.2.3,60.00495641
,,,,,,,,,,,,,,,,0,0,0,0,,,,,,,,,,,,,,,,,,,,,,,,,,,,,,,,,,,,,,,,,,,,,,,,,,,,,,,,,,,,,,,,,,,,,,,,,,,,,,0.056948767,left,1,160,-30,130,1,1072.795624,1072.795624,1072.795624,None,None,2,0,1.0841401,,,,,,,,,,,,,,,,,,,,,,,,,,,,,,,,,,,,,,,,,,,,,,,,,10,12,2,2024-11-01_14h18.00.415,uWM_experiment,2022.2.3,60.00495641
,,,,,,,,,,,,,,,,1,0,1,0,,,,,,,,,,,,,,,,,,,,,,,,,,,,,,,,,,,,,,,,,,,,,,,,,,,,,,,,,,,,,,,,,,,,,,,,,,,,,,0.1,left,1,40,-30,10,2,1080.97929,1080.97929,1080.97929,None,None,4,0,0.9645556,0,,,,,,,,,,,,,,,,,,,,,,,,,,,,,,,,,,,,,,,,,,,,,,,,10,12,2,2024-11-01_14h18.00.415,uWM_experiment,2022.2.3,60.00495641
,,,,,,,,,,,,,,,,2,0,2,0,,,,,,,,,,,,,,,,,,,,,,,,,,,,,,,,,,,,,,,,,,,,,,,,,,,,,,,,,,,,,,,,,,,,,,,,,,,,,,0.046948767,left,1,100,-30,70,1,1090.646363,1090.646363,1090.646363,None,None,2,0,0.6734355,0,,,,,,,,,,,,,,,,,,,,,,,,,,,,,,,,,,,,,,,,,,,,,,,,10,12,2,2024-11-01_14h18.00.415,uWM_experiment,2022.2.3,60.00495641
,,,,,,,,,,,,,,,,3,0,3,0,,,,,,,,,,,,,,,,,,,,,,,,,,,,,,,,,,,,,,,,,,,,,,,,,,,,,,,,,,,,,,,,,,,,,,,,,,,,,,0.1,right,1,10,30,40,2,1097.746628,1097.746628,1097.746628,None,None,4,0,1.1731397,0,,,,,,,,,,,,,,,,,,,,,,,,,,,,,,,,,,,,,,,,,,,,,,,,10,12,2,2024-11-01_14h18.00.415,uWM_experiment,2022.2.3,60.00495641
,,,,,,,,,,,,,,,,4,0,4,0,,,,,,,,,,,,,,,,,,,,,,,,,,,,,,,,,,,,,,,,,,,,,,,,,,,,,,,,,,,,,,,,,,,,,,,,,,,,,,0.036948767,left,0,130,30,160,1,1105.046914,1105.046914,1105.046914,None,None,2,0,0.5608904,0,,,,,,,,,,,,,,,,,,,,,,,,,,,,,,,,,,,,,,,,,,,,,,,,10,12,2,2024-11-01_14h18.00.415,uWM_experiment,2022.2.3,60.00495641
,,,,,,,,,,,,,,,,5,0,5,0,,,,,,,,,,,,,,,,,,,,,,,,,,,,,,,,,,,,,,,,,,,,,,,,,,,,,,,,,,,,,,,,,,,,,,,,,,,,,,0.1,left,0,70,30,100,2,1112.313865,1112.313865,1112.313865,None,None,4,0,0.6059151,0,,,,,,,,,,,,,,,,,,,,,,,,,,,,,,,,,,,,,,,,,,,,,,,,10,12,2,2024-11-01_14h18.00.415,uWM_experiment,2022.2.3,60.00495641
,,,,,,,,,,,,,,,,,,,,,,,,,,,,,,,,,,,,,,,,,,,,,,,,,,,,,,,,,,,,,,,,,,,,,,,,,,,,,,,,,,,,,,,,,,,,,,,,,,,,,,,,,,,,,,,,,1112.947213,1113.94724,space,32.3963351,,,,,,,,,,,,,,,,,,,,,,,,,,,,,,,,,,,,,,,,,,,,10,12,2,2024-11-01_14h18.00.415,uWM_experiment,2022.2.3,60.00495641
,,,,,,,,,,,,,,,,,,,,0,0,0,0,0,0,0,0,,,,,,,,,,,,,,,,,,,,,,,,,,,,,,,,,,,,,,,,,,,,,,,,,,,,,,,,,,,,,,,,,,,,,,0.036948767,,,,,,,,,,,,,,,,,,,,1146.365228,1147.065251,1147.348596,1148.048628,1148.34864,1149.048667,1149.048667,1149.398693,left,1,130,-30,100,1,1159.782438,1159.782438,1159.782438,None,None,2,0,2.0331142,,,,,,,,,,,,,,,,,,,,,,10,12,2,2024-11-01_14h18.00.415,uWM_experiment,2022.2.3,60.00495641
,,,,,,,,,,,,,,,,,,,,0,0,0,0,1,0,1,0,,,,,,,,,,,,,,,,,,,,,,,,,,,,,,,,,,,,,,,,,,,,,,,,,,,,,,,,,,,,,,,,,,,,,,0.1,,,,,,,,,,,,,,,,,,,,,,,,,,,,right,1,70,30,100,2,1179.966571,1179.966571,1179.966571,None,None,3,0,1.2249476,,,,,,,,,,,,,,,,,,,,,,10,12,2,2024-11-01_14h18.00.415,uWM_experiment,2022.2.3,60.00495641
,,,,,,,,,,,,,,,,,,,,0,0,0,0,2,0,2,0,,,,,,,,,,,,,,,,,,,,,,,,,,,,,,,,,,,,,,,,,,,,,,,,,,,,,,,,,,,,,,,,,,,,,,0.026948767,,,,,,,,,,,,,,,,,,,,,,,,,,,,left,1,160,-30,130,1,1187.333563,1187.333563,1187.333563,None,None,2,0,1.1779226,,,,,,,,,,,,,,,,,,,,,,10,12,2,2024-11-01_14h18.00.415,uWM_experiment,2022.2.3,60.00495641
,,,,,,,,,,,,,,,,,,,,0,0,0,0,3,0,3,0,,,,,,,,,,,,,,,,,,,,,,,,,,,,,,,,,,,,,,,,,,,,,,,,,,,,,,,,,,,,,,,,,,,,,,0.016948767,,,,,,,,,,,,,,,,,,,,,,,,,,,,right,1,160,30,190,1,1194.233906,1194.233906,1194.233906,None,None,1,1,0.6533771,,,,,,,,,,,,,,,,,,,,,,10,12,2,2024-11-01_14h18.00.415,uWM_experiment,2022.2.3,60.00495641
,,,,,,,,,,,,,,,,,,,,0,0,0,0,4,0,4,0,,,,,,,,,,,,,,,,,,,,,,,,,,,,,,,,,,,,,,,,,,,,,,,,,,,,,,,,,,,,,,,,,,,,,,0.026948767,,,,,,,,,,,,,,,,,,,,,,,,,,,,left,1,100,-30,70,1,1200.450724,1200.450724,1200.450724,None,None,1,1,0.7005586,,,,,,,,,,,,,,,,,,,,,,10,12,2,2024-11-01_14h18.00.415,uWM_experiment,2022.2.3,60.00495641
,,,,,,,,,,,,,,,,,,,,0,0,0,0,5,0,5,0,,,,,,,,,,,,,,,,,,,,,,,,,,,,,,,,,,,,,,,,,,,,,,,,,,,,,,,,,,,,,,,,,,,,,,0,,,,,,,,,,,,,,,,,,,,,,,,,,,,left,1,40,-30,10,0,1208.567719,1208.567719,1208.567719,None,None,1,1,0.7436883,,,,,,,,,,,,,,,,,,,,,,10,12,2,2024-11-01_14h18.00.415,uWM_experiment,2022.2.3,60.00495641
,,,,,,,,,,,,,,,,,,,,0,0,0,0,6,0,6,0,,,,,,,,,,,,,,,,,,,,,,,,,,,,,,,,,,,,,,,,,,,,,,,,,,,,,,,,,,,,,,,,,,,,,,0,,,,,,,,,,,,,,,,,,,,,,,,,,,,left,1,160,-30,130,0,1215.534679,1215.534679,1215.534679,None,None,1,1,2.3685383,,,,,,,,,,,,,,,,,,,,,,10,12,2,2024-11-01_14h18.00.415,uWM_experiment,2022.2.3,60.00495641
,,,,,,,,,,,,,,,,,,,,0,0,0,0,7,0,7,0,,,,,,,,,,,,,,,,,,,,,,,,,,,,,,,,,,,,,,,,,,,,,,,,,,,,,,,,,,,,,,,,,,,,,,0,,,,,,,,,,,,,,,,,,,,,,,,,,,,left,0,70,30,100,0,1224.885028,1224.885028,1224.885028,None,None,1,1,2.5623099,,,,,,,,,,,,,,,,,,,,,,10,12,2,2024-11-01_14h18.00.415,uWM_experiment,2022.2.3,60.00495641
,,,,,,,,,,,,,,,,,,,,0,0,0,0,8,0,8,0,,,,,,,,,,,,,,,,,,,,,,,,,,,,,,,,,,,,,,,,,,,,,,,,,,,,,,,,,,,,,,,,,,,,,,0,,,,,,,,,,,,,,,,,,,,,,,,,,,,left,1,160,-30,130,0,1233.402055,1233.402055,1233.402055,None,None,2,0,0.7892759,,,,,,,,,,,,,,,,,,,,,,10,12,2,2024-11-01_14h18.00.415,uWM_experiment,2022.2.3,60.00495641
,,,,,,,,,,,,,,,,,,,,0,0,0,0,9,0,9,0,,,,,,,,,,,,,,,,,,,,,,,,,,,,,,,,,,,,,,,,,,,,,,,,,,,,,,,,,,,,,,,,,,,,,,0,,,,,,,,,,,,,,,,,,,,,,,,,,,,left,0,130,30,160,0,1239.852295,1239.852295,1239.852295,None,None,1,1,0.5868431,,,,,,,,,,,,,,,,,,,,,,10,12,2,2024-11-01_14h18.00.415,uWM_experiment,2022.2.3,60.00495641
,,,,,,,,,,,,,,,,,,,,0,0,0,0,10,0,10,0,,,,,,,,,,,,,,,,,,,,,,,,,,,,,,,,,,,,,,,,,,,,,,,,,,,,,,,,,,,,,,,,,,,,,,0.036948767,,,,,,,,,,,,,,,,,,,,,,,,,,,,left,0,130,30,160,1,1246.352564,1246.352564,1246.352564,None,None,2,0,1.0307001,,,,,,,,,,,,,,,,,,,,,,10,12,2,2024-11-01_14h18.00.415,uWM_experiment,2022.2.3,60.00495641
,,,,,,,,,,,,,,,,,,,,0,0,0,0,11,0,11,0,,,,,,,,,,,,,,,,,,,,,,,,,,,,,,,,,,,,,,,,,,,,,,,,,,,,,,,,,,,,,,,,,,,,,,0,,,,,,,,,,,,,,,,,,,,,,,,,,,,left,0,70,30,100,0,1253.069533,1253.069533,1253.069533,None,None,1,1,0.5616509,,,,,,,,,,,,,,,,,,,,,,10,12,2,2024-11-01_14h18.00.415,uWM_experiment,2022.2.3,60.00495641
,,,,,,,,,,,,,,,,,,,,0,0,0,0,12,0,12,0,,,,,,,,,,,,,,,,,,,,,,,,,,,,,,,,,,,,,,,,,,,,,,,,,,,,,,,,,,,,,,,,,,,,,,0,,,,,,,,,,,,,,,,,,,,,,,,,,,,left,1,70,-30,40,0,1259.603124,1259.603124,1259.603124,None,None,2,0,1.0920414,,,,,,,,,,,,,,,,,,,,,,10,12,2,2024-11-01_14h18.00.415,uWM_experiment,2022.2.3,60.00495641
,,,,,,,,,,,,,,,,,,,,0,0,0,0,13,0,13,0,,,,,,,,,,,,,,,,,,,,,,,,,,,,,,,,,,,,,,,,,,,,,,,,,,,,,,,,,,,,,,,,,,,,,,0.026948767,,,,,,,,,,,,,,,,,,,,,,,,,,,,left,1,130,-30,100,1,1266.45339,1266.45339,1266.45339,None,None,1,1,0.537699,,,,,,,,,,,,,,,,,,,,,,10,12,2,2024-11-01_14h18.00.415,uWM_experiment,2022.2.3,60.00495641
,,,,,,,,,,,,,,,,,,,,0,0,0,0,14,0,14,0,,,,,,,,,,,,,,,,,,,,,,,,,,,,,,,,,,,,,,,,,,,,,,,,,,,,,,,,,,,,,,,,,,,,,,0.036948767,,,,,,,,,,,,,,,,,,,,,,,,,,,,left,1,10,-30,-20,1,1273.103652,1273.103652,1273.103652,None,None,1,1,0.6314469,,,,,,,,,,,,,,,,,,,,,,10,12,2,2024-11-01_14h18.00.415,uWM_experiment,2022.2.3,60.00495641
,,,,,,,,,,,,,,,,,,,,0,0,0,0,15,0,15,0,,,,,,,,,,,,,,,,,,,,,,,,,,,,,,,,,,,,,,,,,,,,,,,,,,,,,,,,,,,,,,,,,,,,,,0.1,,,,,,,,,,,,,,,,,,,,,,,,,,,,left,0,70,30,100,2,1282.687362,1282.687362,1282.687362,None,None,4,0,0.5036286,,,,,,,,,,,,,,,,,,,,,,10,12,2,2024-11-01_14h18.00.415,uWM_experiment,2022.2.3,60.00495641
,,,,,,,,,,,,,,,,,,,,0,0,0,0,16,0,16,0,,,,,,,,,,,,,,,,,,,,,,,,,,,,,,,,,,,,,,,,,,,,,,,,,,,,,,,,,,,,,,,,,,,,,,0.046948767,,,,,,,,,,,,,,,,,,,,,,,,,,,,left,1,130,-30,100,1,1289.020955,1289.020955,1289.020955,None,None,1,1,0.5539976,,,,,,,,,,,,,,,,,,,,,,10,12,2,2024-11-01_14h18.00.415,uWM_experiment,2022.2.3,60.00495641
,,,,,,,,,,,,,,,,,,,,0,0,0,0,17,0,17,0,,,,,,,,,,,,,,,,,,,,,,,,,,,,,,,,,,,,,,,,,,,,,,,,,,,,,,,,,,,,,,,,,,,,,,0.056948767,,,,,,,,,,,,,,,,,,,,,,,,,,,,left,0,160,30,190,1,1295.504577,1295.504577,1295.504577,None,None,2,0,0.454373,,,,,,,,,,,,,,,,,,,,,,10,12,2,2024-11-01_14h18.00.415,uWM_experiment,2022.2.3,60.00495641
,,,,,,,,,,,,,,,,,,,,0,0,0,0,18,0,18,0,,,,,,,,,,,,,,,,,,,,,,,,,,,,,,,,,,,,,,,,,,,,,,,,,,,,,,,,,,,,,,,,,,,,,,0.046948767,,,,,,,,,,,,,,,,,,,,,,,,,,,,left,1,100,-30,70,1,1301.554785,1301.554785,1301.554785,None,None,1,1,0.6123147,,,,,,,,,,,,,,,,,,,,,,10,12,2,2024-11-01_14h18.00.415,uWM_experiment,2022.2.3,60.00495641
,,,,,,,,,,,,,,,,,,,,0,0,0,0,19,0,19,0,,,,,,,,,,,,,,,,,,,,,,,,,,,,,,,,,,,,,,,,,,,,,,,,,,,,,,,,,,,,,,,,,,,,,,0.056948767,,,,,,,,,,,,,,,,,,,,,,,,,,,,left,0,10,30,40,1,1308.721741,1308.721741,1308.721741,None,None,1,1,1.1011366,,,,,,,,,,,,,,,,,,,,,,10,12,2,2024-11-01_14h18.00.415,uWM_experiment,2022.2.3,60.00495641
,,,,,,,,,,,,,,,,,,,,0,0,0,0,20,0,20,0,,,,,,,,,,,,,,,,,,,,,,,,,,,,,,,,,,,,,,,,,,,,,,,,,,,,,,,,,,,,,,,,,,,,,,0.066948767,,,,,,,,,,,,,,,,,,,,,,,,,,,,right,1,160,30,190,1,1315.522008,1315.522008,1315.522008,None,None,1,1,0.5809511,,,,,,,,,,,,,,,,,,,,,,10,12,2,2024-11-01_14h18.00.415,uWM_experiment,2022.2.3,60.00495641
,,,,,,,,,,,,,,,,,,,,0,0,0,0,21,0,21,0,,,,,,,,,,,,,,,,,,,,,,,,,,,,,,,,,,,,,,,,,,,,,,,,,,,,,,,,,,,,,,,,,,,,,,0.1,,,,,,,,,,,,,,,,,,,,,,,,,,,,left,1,70,-30,40,2,1323.355659,1323.355659,1323.355659,None,None,4,0,0.5711785,,,,,,,,,,,,,,,,,,,,,,10,12,2,2024-11-01_14h18.00.415,uWM_experiment,2022.2.3,60.00495641
,,,,,,,,,,,,,,,,,,,,0,0,0,0,22,0,22,0,,,,,,,,,,,,,,,,,,,,,,,,,,,,,,,,,,,,,,,,,,,,,,,,,,,,,,,,,,,,,,,,,,,,,,0,,,,,,,,,,,,,,,,,,,,,,,,,,,,left,0,160,30,190,0,1329.972587,1329.972587,1329.972587,None,None,2,0,0.5303331,,,,,,,,,,,,,,,,,,,,,,10,12,2,2024-11-01_14h18.00.415,uWM_experiment,2022.2.3,60.00495641
,,,,,,,,,,,,,,,,,,,,0,0,0,0,23,0,23,0,,,,,,,,,,,,,,,,,,,,,,,,,,,,,,,,,,,,,,,,,,,,,,,,,,,,,,,,,,,,,,,,,,,,,,0.076948767,,,,,,,,,,,,,,,,,,,,,,,,,,,,left,0,130,30,160,1,1337.006209,1337.006209,1337.006209,None,None,2,0,0.5205672,,,,,,,,,,,,,,,,,,,,,,10,12,2,2024-11-01_14h18.00.415,uWM_experiment,2022.2.3,60.00495641
,,,,,,,,,,,,,,,,,,,,0,0,0,0,,,,,0,0,0,0,,,,,,,,,,,,,,,,,,,,,,,,,,,,,,,,,,,,,,,,,,,,,,,,,,,,,,,,,,,,,,,,,,,,,,,,,,,,,,,,,,,,,,,,,,,,,,,,,,,,,,,,,,,,1337.556217,1337.556217,space,23.8905197,None,None,,,,,,,,,,,,,,,,10,12,2,2024-11-01_14h18.00.415,uWM_experiment,2022.2.3,60.00495641
,,,,,,,,,,,,,,,,,,,,0,0,0,0,,,,,1,0,1,0,,,,,,,,,,,,,,,,,,,,,,,,,,,,,,,,,,,,,,,,,,,,,,,,,,,,,,,,,,,,,,,,,,,,,,,,,,,,,,,,,,,,,,,,,,,,,,,,,,,,,,,,,,,,,,,,,,,,,,,,,,,,,,,,,10,12,2,2024-11-01_14h18.00.415,uWM_experiment,2022.2.3,60.00495641
,,,,,,,,,,,,,,,,,,,,0,0,0,0,,,,,2,0,2,0,,,,,,,,,,,,,,,,,,,,,,,,,,,,,,,,,,,,,,,,,,,,,,,,,,,,,,,,,,,,,,,,,,,,,,,,,,,,,,,,,,,,,,,,,,,,,,,,,,,,,,,,,,,,,,,,,,,,,,,,,,,,,,,,,10,12,2,2024-11-01_14h18.00.415,uWM_experiment,2022.2.3,60.00495641
,,,,,,,,,,,,,,,,,,,,1,0,1,0,0,0,0,0,,,,,,,,,,,,,,,,,,,,,,,,,,,,,,,,,,,,,,,,,,,,,,,,,,,,,,,,,,,,,,,,,,,,,,0.066948767,,,,,,,,,,,,,,,,,,,,1361.473859,1362.173878,1362.47389,1363.17393,1363.473929,1364.173992,1364.173992,1364.490635,left,1,160,-30,130,1,1369.92421,1369.92421,1369.92421,None,None,1,1,1.3065431,,,,,,,None,,,,,,,,,,,,,,,10,12,2,2024-11-01_14h18.00.415,uWM_experiment,2022.2.3,60.00495641
,,,,,,,,,,,,,,,,,,,,1,0,1,0,1,0,1,0,,,,,,,,,,,,,,,,,,,,,,,,,,,,,,,,,,,,,,,,,,,,,,,,,,,,,,,,,,,,,,,,,,,,,,0.076948767,,,,,,,,,,,,,,,,,,,,,,,,,,,,left,1,130,-30,100,1,1377.841172,1377.841172,1377.841172,None,None,3,0,1.3894794,,,,,,,,,,,,,,,,,,,,,,10,12,2,2024-11-01_14h18.00.415,uWM_experiment,2022.2.3,60.00495641
,,,,,,,,,,,,,,,,,,,,1,0,1,0,2,0,2,0,,,,,,,,,,,,,,,,,,,,,,,,,,,,,,,,,,,,,,,,,,,,,,,,,,,,,,,,,,,,,,,,,,,,,,0,,,,,,,,,,,,,,,,,,,,,,,,,,,,left,0,100,30,130,0,1384.87478,1384.87478,1384.87478,None,None,1,1,1.2759796,,,,,,,,,,,,,,,,,,,,,,10,12,2,2024-11-01_14h18.00.415,uWM_experiment,2022.2.3,60.00495641
,,,,,,,,,,,,,,,,,,,,1,0,1,0,3,0,3,0,,,,,,,,,,,,,,,,,,,,,,,,,,,,,,,,,,,,,,,,,,,,,,,,,,,,,,,,,,,,,,,,,,,,,,0.066948767,,,,,,,,,,,,,,,,,,,,,,,,,,,,left,0,160,30,190,1,1391.74174,1391.74174,1391.74174,None,None,1,1,0.9528533,,,,,,,,,,,,,,,,,,,,,,10,12,2,2024-11-01_14h18.00.415,uWM_experiment,2022.2.3,60.00495641
,,,,,,,,,,,,,,,,,,,,1,0,1,0,4,0,4,0,,,,,,,,,,,,,,,,,,,,,,,,,,,,,,,,,,,,,,,,,,,,,,,,,,,,,,,,,,,,,,,,,,,,,,0.076948767,,,,,,,,,,,,,,,,,,,,,,,,,,,,left,1,10,-30,-20,1,1398.425366,1398.425366,1398.425366,None,None,1,1,0.5653221,,,,,,,,,,,,,,,,,,,,,,10,12,2,2024-11-01_14h18.00.415,uWM_experiment,2022.2.3,60.00495641
,,,,,,,,,,,,,,,,,,,,1,0,1,0,5,0,5,0,,,,,,,,,,,,,,,,,,,,,,,,,,,,,,,,,,,,,,,,,,,,,,,,,,,,,,,,,,,,,,,,,,,,,,0.1,,,,,,,,,,,,,,,,,,,,,,,,,,,,left,1,160,-30,130,2,1407.259028,1407.259028,1407.259028,None,None,3,0,0.9316424,,,,,,,,,,,,,,,,,,,,,,10,12,2,2024-11-01_14h18.00.415,uWM_experiment,2022.2.3,60.00495641
,,,,,,,,,,,,,,,,,,,,1,0,1,0,6,0,6,0,,,,,,,,,,,,,,,,,,,,,,,,,,,,,,,,,,,,,,,,,,,,,,,,,,,,,,,,,,,,,,,,,,,,,,0,,,,,,,,,,,,,,,,,,,,,,,,,,,,left,1,130,-30,100,0,1414.775986,1414.775986,1414.775986,None,None,1,1,0.5985767,,,,,,,,,,,,,,,,,,,,,,10,12,2,2024-11-01_14h18.00.415,uWM_experiment,2022.2.3,60.00495641
,,,,,,,,,,,,,,,,,,,,1,0,1,0,7,0,7,0,,,,,,,,,,,,,,,,,,,,,,,,,,,,,,,,,,,,,,,,,,,,,,,,,,,,,,,,,,,,,,,,,,,,,,0.086948767,,,,,,,,,,,,,,,,,,,,,,,,,,,,left,0,160,30,190,1,1421.576277,1421.576277,1421.576277,None,None,2,0,0.41432,,,,,,,,,,,,,,,,,,,,,,10,12,2,2024-11-01_14h18.00.415,uWM_experiment,2022.2.3,60.00495641
,,,,,,,,,,,,,,,,,,,,1,0,1,0,8,0,8,0,,,,,,,,,,,,,,,,,,,,,,,,,,,,,,,,,,,,,,,,,,,,,,,,,,,,,,,,,,,,,,,,,,,,,,0.076948767,,,,,,,,,,,,,,,,,,,,,,,,,,,,right,0,130,-30,100,1,1427.543172,1427.543172,1427.543172,None,None,2,0,2.0953232,,,,,,,,,,,,,,,,,,,,,,10,12,2,2024-11-01_14h18.00.415,uWM_experiment,2022.2.3,60.00495641
,,,,,,,,,,,,,,,,,,,,1,0,1,0,9,0,9,0,,,,,,,,,,,,,,,,,,,,,,,,,,,,,,,,,,,,,,,,,,,,,,,,,,,,,,,,,,,,,,,,,,,,,,0,,,,,,,,,,,,,,,,,,,,,,,,,,,,left,0,70,30,100,0,1435.593507,1435.593507,1435.593507,None,None,2,0,0.5169548,,,,,,,,,,,,,,,,,,,,,,10,12,2,2024-11-01_14h18.00.415,uWM_experiment,2022.2.3,60.00495641
,,,,,,,,,,,,,,,,,,,,1,0,1,0,10,0,10,0,,,,,,,,,,,,,,,,,,,,,,,,,,,,,,,,,,,,,,,,,,,,,,,,,,,,,,,,,,,,,,,,,,,,,,0.066948767,,,,,,,,,,,,,,,,,,,,,,,,,,,,left,1,100,-30,70,1,1442.160408,1442.160408,1442.160408,None,None,2,0,1.190138,,,,,,,,,,,,,,,,,,,,,,10,12,2,2024-11-01_14h18.00.415,uWM_experiment,2022.2.3,60.00495641
,,,,,,,,,,,,,,,,,,,,1,0,1,0,11,0,11,0,,,,,,,,,,,,,,,,,,,,,,,,,,,,,,,,,,,,,,,,,,,,,,,,,,,,,,,,,,,,,,,,,,,,,,0,,,,,,,,,,,,,,,,,,,,,,,,,,,,left,0,40,30,70,0,1449.127381,1449.127381,1449.127381,None,None,1,1,2.191137,,,,,,,,,,,,,,,,,,,,,,10,12,2,2024-11-01_14h18.00.415,uWM_experiment,2022.2.3,60.00495641
,,,,,,,,,,,,,,,,,,,,1,0,1,0,12,0,12,0,,,,,,,,,,,,,,,,,,,,,,,,,,,,,,,,,,,,,,,,,,,,,,,,,,,,,,,,,,,,,,,,,,,,,,0,,,,,,,,,,,,,,,,,,,,,,,,,,,,left,1,40,-30,10,0,1457.177672,1457.177672,1457.177672,None,None,1,1,0.596652,,,,,,,,,,,,,,,,,,,,,,10,12,2,2024-11-01_14h18.00.415,uWM_experiment,2022.2.3,60.00495641
,,,,,,,,,,,,,,,,,,,,1,0,1,0,13,0,13,0,,,,,,,,,,,,,,,,,,,,,,,,,,,,,,,,,,,,,,,,,,,,,,,,,,,,,,,,,,,,,,,,,,,,,,0,,,,,,,,,,,,,,,,,,,,,,,,,,,,left,1,70,-30,40,0,1463.711271,1463.711271,1463.711271,None,None,1,1,0.4710182,,,,,,,,,,,,,,,,,,,,,,10,12,2,2024-11-01_14h18.00.415,uWM_experiment,2022.2.3,60.00495641
,,,,,,,,,,,,,,,,,,,,1,0,1,0,14,0,14,0,,,,,,,,,,,,,,,,,,,,,,,,,,,,,,,,,,,,,,,,,,,,,,,,,,,,,,,,,,,,,,,,,,,,,,0.056948767,,,,,,,,,,,,,,,,,,,,,,,,,,,,left,1,40,-30,10,1,1472.361634,1472.361634,1472.361634,None,None,2,0,0.6366174,,,,,,,,,,,,,,,,,,,,,,10,12,2,2024-11-01_14h18.00.415,uWM_experiment,2022.2.3,60.00495641
,,,,,,,,,,,,,,,,,,,,1,0,1,0,15,0,15,0,,,,,,,,,,,,,,,,,,,,,,,,,,,,,,,,,,,,,,,,,,,,,,,,,,,,,,,,,,,,,,,,,,,,,,0.046948767,,,,,,,,,,,,,,,,,,,,,,,,,,,,left,0,130,30,160,1,1479.078548,1479.078548,1479.078548,None,None,1,1,0.7356994,,,,,,,,,,,,,,,,,,,,,,10,12,2,2024-11-01_14h18.00.415,uWM_experiment,2022.2.3,60.00495641
,,,,,,,,,,,,,,,,,,,,1,0,1,0,16,0,16,0,,,,,,,,,,,,,,,,,,,,,,,,,,,,,,,,,,,,,,,,,,,,,,,,,,,,,,,,,,,,,,,,,,,,,,0,,,,,,,,,,,,,,,,,,,,,,,,,,,,left,0,10,30,40,0,1485.462134,1485.462134,1485.462134,None,None,2,0,0.5121348,,,,,,,,,,,,,,,,,,,,,,10,12,2,2024-11-01_14h18.00.415,uWM_experiment,2022.2.3,60.00495641
,,,,,,,,,,,,,,,,,,,,1,0,1,0,17,0,17,0,,,,,,,,,,,,,,,,,,,,,,,,,,,,,,,,,,,,,,,,,,,,,,,,,,,,,,,,,,,,,,,,,,,,,,0.056948767,,,,,,,,,,,,,,,,,,,,,,,,,,,,left,1,70,-30,40,1,1491.712404,1491.712404,1491.712404,None,None,1,1,0.6218403,,,,,,,,,,,,,,,,,,,,,,10,12,2,2024-11-01_14h18.00.415,uWM_experiment,2022.2.3,60.00495641
,,,,,,,,,,,,,,,,,,,,1,0,1,0,18,0,18,0,,,,,,,,,,,,,,,,,,,,,,,,,,,,,,,,,,,,,,,,,,,,,,,,,,,,,,,,,,,,,,,,,,,,,,0.066948767,,,,,,,,,,,,,,,,,,,,,,,,,,,,left,0,10,30,40,1,1499.346038,1499.346038,1499.346038,None,None,2,0,1.0201191,,,,,,,,,,,,,,,,,,,,,,10,12,2,2024-11-01_14h18.00.415,uWM_experiment,2022.2.3,60.00495641
,,,,,,,,,,,,,,,,,,,,1,0,1,0,19,0,19,0,,,,,,,,,,,,,,,,,,,,,,,,,,,,,,,,,,,,,,,,,,,,,,,,,,,,,,,,,,,,,,,,,,,,,,0.056948767,,,,,,,,,,,,,,,,,,,,,,,,,,,,left,1,70,-30,40,1,1507.546368,1507.546368,1507.546368,None,None,1,1,0.6758217,,,,,,,,,,,,,,,,,,,,,,10,12,2,2024-11-01_14h18.00.415,uWM_experiment,2022.2.3,60.00495641
,,,,,,,,,,,,,,,,,,,,1,0,1,0,20,0,20,0,,,,,,,,,,,,,,,,,,,,,,,,,,,,,,,,,,,,,,,,,,,,,,,,,,,,,,,,,,,,,,,,,,,,,,0.066948767,,,,,,,,,,,,,,,,,,,,,,,,,,,,right,1,40,30,70,1,1515.813373,1515.813373,1515.813373,None,None,2,0,1.0007197,,,,,,,,,,,,,,,,,,,,,,10,12,2,2024-11-01_14h18.00.415,uWM_experiment,2022.2.3,60.00495641
,,,,,,,,,,,,,,,,,,,,1,0,1,0,21,0,21,0,,,,,,,,,,,,,,,,,,,,,,,,,,,,,,,,,,,,,,,,,,,,,,,,,,,,,,,,,,,,,,,,,,,,,,0.056948767,,,,,,,,,,,,,,,,,,,,,,,,,,,,left,1,130,-30,100,1,1522.88034,1522.88034,1522.88034,None,None,1,1,0.7017901,,,,,,,,,,,,,,,,,,,,,,10,12,2,2024-11-01_14h18.00.415,uWM_experiment,2022.2.3,60.00495641
,,,,,,,,,,,,,,,,,,,,1,0,1,0,22,0,22,0,,,,,,,,,,,,,,,,,,,,,,,,,,,,,,,,,,,,,,,,,,,,,,,,,,,,,,,,,,,,,,,,,,,,,,0.066948767,,,,,,,,,,,,,,,,,,,,,,,,,,,,left,1,100,-30,70,1,1529.480588,1529.480588,1529.480588,None,None,2,0,0.6694571,,,,,,,,,,,,,,,,,,,,,,10,12,2,2024-11-01_14h18.00.415,uWM_experiment,2022.2.3,60.00495641
,,,,,,,,,,,,,,,,,,,,1,0,1,0,23,0,23,0,,,,,,,,,,,,,,,,,,,,,,,,,,,,,,,,,,,,,,,,,,,,,,,,,,,,,,,,,,,,,,,,,,,,,,0.056948767,,,,,,,,,,,,,,,,,,,,,,,,,,,,left,0,10,30,40,1,1536.097539,1536.097539,1536.097539,None,None,2,0,2.9085368,,,,,,,,,,,,,,,,,,,,,,10,12,2,2024-11-01_14h18.00.415,uWM_experiment,2022.2.3,60.00495641
,,,,,,,,,,,,,,,,,,,,1,0,1,0,,,,,0,0,0,0,,,,,,,,,,,,,,,,,,,,,,,,,,,,,,,,,,,,,,,,,,,,,,,,,,,,,,,,,,,,,,,,,,,,,,,,,,,,,,,,,,,,,,,,,,,,,,,,,,,,,,,,,,,,1539.030971,1539.030971,space,17.8471113,None,None,,,,,,,,,,,,,,,,10,12,2,2024-11-01_14h18.00.415,uWM_experiment,2022.2.3,60.00495641
,,,,,,,,,,,,,,,,,,,,1,0,1,0,,,,,1,0,1,0,,,,,,,,,,,,,,,,,,,,,,,,,,,,,,,,,,,,,,,,,,,,,,,,,,,,,,,,,,,,,,,,,,,,,,,,,,,,,,,,,,,,,,,,,,,,,,,,,,,,,,,,,,,,,,,,,,,,,,,,,,,,,,,,,10,12,2,2024-11-01_14h18.00.415,uWM_experiment,2022.2.3,60.00495641
,,,,,,,,,,,,,,,,,,,,1,0,1,0,,,,,2,0,2,0,,,,,,,,,,,,,,,,,,,,,,,,,,,,,,,,,,,,,,,,,,,,,,,,,,,,,,,,,,,,,,,,,,,,,,,,,,,,,,,,,,,,,,,,,,,,,,,,,,,,,,,,,,,,,,,,,,,,,,,,,,,,,,,,,10,12,2,2024-11-01_14h18.00.415,uWM_experiment,2022.2.3,60.00495641
,,,,,,,,,,,,,,,,,,,,2,0,2,0,0,0,0,0,,,,,,,,,,,,,,,,,,,,,,,,,,,,,,,,,,,,,,,,,,,,,,,,,,,,,,,,,,,,,,,,,,,,,,0.046948767,,,,,,,,,,,,,,,,,,,,1556.898351,1557.598376,1557.89839,1558.598414,1558.898434,1559.59846,1559.59846,1559.91514,left,1,130,-30,100,1,1564.598656,1564.598656,1564.598656,None,None,1,1,1.1273176,,,,,,,None,,,,,,,,,,,,,,,10,12,2,2024-11-01_14h18.00.415,uWM_experiment,2022.2.3,60.00495641
,,,,,,,,,,,,,,,,,,,,2,0,2,0,1,0,1,0,,,,,,,,,,,,,,,,,,,,,,,,,,,,,,,,,,,,,,,,,,,,,,,,,,,,,,,,,,,,,,,,,,,,,,0.1,,,,,,,,,,,,,,,,,,,,,,,,,,,,right,1,160,30,190,2,1572.215638,1572.215638,1572.215638,None,None,4,0,0.5022686,,,,,,,,,,,,,,,,,,,,,,10,12,2,2024-11-01_14h18.00.415,uWM_experiment,2022.2.3,60.00495641
,,,,,,,,,,,,,,,,,,,,2,0,2,0,2,0,2,0,,,,,,,,,,,,,,,,,,,,,,,,,,,,,,,,,,,,,,,,,,,,,,,,,,,,,,,,,,,,,,,,,,,,,,0.056948767,,,,,,,,,,,,,,,,,,,,,,,,,,,,left,0,160,30,190,1,1578.732553,1578.732553,1578.732553,None,None,1,1,0.5693337,,,,,,,,,,,,,,,,,,,,,,10,12,2,2024-11-01_14h18.00.415,uWM_experiment,2022.2.3,60.00495641
,,,,,,,,,,,,,,,,,,,,2,0,2,0,3,0,3,0,,,,,,,,,,,,,,,,,,,,,,,,,,,,,,,,,,,,,,,,,,,,,,,,,,,,,,,,,,,,,,,,,,,,,,0.066948767,,,,,,,,,,,,,,,,,,,,,,,,,,,,left,1,160,-30,130,1,1585.032802,1585.032802,1585.032802,None,None,2,0,0.5491537,,,,,,,,,,,,,,,,,,,,,,10,12,2,2024-11-01_14h18.00.415,uWM_experiment,2022.2.3,60.00495641
,,,,,,,,,,,,,,,,,,,,2,0,2,0,4,0,4,0,,,,,,,,,,,,,,,,,,,,,,,,,,,,,,,,,,,,,,,,,,,,,,,,,,,,,,,,,,,,,,,,,,,,,,0.056948767,,,,,,,,,,,,,,,,,,,,,,,,,,,,left,1,70,-30,40,1,1592.499801,1592.499801,1592.499801,None,None,2,0,0.5621167,,,,,,,,,,,,,,,,,,,,,,10,12,2,2024-11-01_14h18.00.415,uWM_experiment,2022.2.3,60.00495641
,,,,,,,,,,,,,,,,,,,,2,0,2,0,5,0,5,0,,,,,,,,,,,,,,,,,,,,,,,,,,,,,,,,,,,,,,,,,,,,,,,,,,,,,,,,,,,,,,,,,,,,,,0.046948767,,,,,,,,,,,,,,,,,,,,,,,,,,,,left,0,40,30,70,1,1598.783376,1598.783376,1598.783376,None,None,1,1,1.2863928,,,,,,,,,,,,,,,,,,,,,,10,12,2,2024-11-01_14h18.00.415,uWM_experiment,2022.2.3,60.00495641
,,,,,,,,,,,,,,,,,,,,2,0,2,0,6,0,6,0,,,,,,,,,,,,,,,,,,,,,,,,,,,,,,,,,,,,,,,,,,,,,,,,,,,,,,,,,,,,,,,,,,,,,,0,,,,,,,,,,,,,,,,,,,,,,,,,,,,left,0,160,30,190,0,1605.800314,1605.800314,1605.800314,None,None,1,1,0.597473,,,,,,,,,,,,,,,,,,,,,,10,12,2,2024-11-01_14h18.00.415,uWM_experiment,2022.2.3,60.00495641
,,,,,,,,,,,,,,,,,,,,2,0,2,0,7,0,7,0,,,,,,,,,,,,,,,,,,,,,,,,,,,,,,,,,,,,,,,,,,,,,,,,,,,,,,,,,,,,,,,,,,,,,,0,,,,,,,,,,,,,,,,,,,,,,,,,,,,left,1,10,-30,-20,0,1612.95061,1612.95061,1612.95061,None,None,1,1,0.5510947,,,,,,,,,,,,,,,,,,,,,,10,12,2,2024-11-01_14h18.00.415,uWM_experiment,2022.2.3,60.00495641
,,,,,,,,,,,,,,,,,,,,2,0,2,0,8,0,8,0,,,,,,,,,,,,,,,,,,,,,,,,,,,,,,,,,,,,,,,,,,,,,,,,,,,,,,,,,,,,,,,,,,,,,,0.056948767,,,,,,,,,,,,,,,,,,,,,,,,,,,,left,1,160,-30,130,1,1619.817563,1619.817563,1619.817563,None,None,1,1,1.1082214,,,,,,,,,,,,,,,,,,,,,,10,12,2,2024-11-01_14h18.00.415,uWM_experiment,2022.2.3,60.00495641
,,,,,,,,,,,,,,,,,,,,2,0,2,0,9,0,9,0,,,,,,,,,,,,,,,,,,,,,,,,,,,,,,,,,,,,,,,,,,,,,,,,,,,,,,,,,,,,,,,,,,,,,,0.066948767,,,,,,,,,,,,,,,,,,,,,,,,,,,,left,0,160,30,190,1,1626.967844,1626.967844,1626.967844,None,None,2,0,0.5419175,,,,,,,,,,,,,,,,,,,,,,10,12,2,2024-11-01_14h18.00.415,uWM_experiment,2022.2.3,60.00495641
,,,,,,,,,,,,,,,,,,,,2,0,2,0,10,0,10,0,,,,,,,,,,,,,,,,,,,,,,,,,,,,,,,,,,,,,,,,,,,,,,,,,,,,,,,,,,,,,,,,,,,,,,0.056948767,,,,,,,,,,,,,,,,,,,,,,,,,,,,left,1,100,-30,70,1,1633.801451,1633.801451,1633.801451,None,None,1,1,0.6521927,,,,,,,,,,,,,,,,,,,,,,10,12,2,2024-11-01_14h18.00.415,uWM_experiment,2022.2.3,60.00495641
,,,,,,,,,,,,,,,,,,,,2,0,2,0,11,0,11,0,,,,,,,,,,,,,,,,,,,,,,,,,,,,,,,,,,,,,,,,,,,,,,,,,,,,,,,,,,,,,,,,,,,,,,0,,,,,,,,,,,,,,,,,,,,,,,,,,,,left,0,100,30,130,0,1640.335043,1640.335043,1640.335043,None,None,1,1,0.7587167,,,,,,,,,,,,,,,,,,,,,,10,12,2,2024-11-01_14h18.00.415,uWM_experiment,2022.2.3,60.00495641
,,,,,,,,,,,,,,,,,,,,2,0,2,0,12,0,12,0,,,,,,,,,,,,,,,,,,,,,,,,,,,,,,,,,,,,,,,,,,,,,,,,,,,,,,,,,,,,,,,,,,,,,,0.066948767,,,,,,,,,,,,,,,,,,,,,,,,,,,,right,1,70,30,100,1,1647.568656,1647.568656,1647.568656,None,None,2,0,0.629068,,,,,,,,,,,,,,,,,,,,,,10,12,2,2024-11-01_14h18.00.415,uWM_experiment,2022.2.3,60.00495641
,,,,,,,,,,,,,,,,,,,,2,0,2,0,13,0,13,0,,,,,,,,,,,,,,,,,,,,,,,,,,,,,,,,,,,,,,,,,,,,,,,,,,,,,,,,,,,,,,,,,,,,,,0.056948767,,,,,,,,,,,,,,,,,,,,,,,,,,,,left,0,40,30,70,1,1654.952289,1654.952289,1654.952289,None,None,2,0,0.9012483,,,,,,,,,,,,,,,,,,,,,,10,12,2,2024-11-01_14h18.00.415,uWM_experiment,2022.2.3,60.00495641
,,,,,,,,,,,,,,,,,,,,2,0,2,0,14,0,14,0,,,,,,,,,,,,,,,,,,,,,,,,,,,,,,,,,,,,,,,,,,,,,,,,,,,,,,,,,,,,,,,,,,,,,,0.046948767,,,,,,,,,,,,,,,,,,,,,,,,,,,,left,0,130,30,160,1,1661.535899,1661.535899,1661.535899,None,None,1,1,0.5257873,,,,,,,,,,,,,,,,,,,,,,10,12,2,2024-11-01_14h18.00.415,uWM_experiment,2022.2.3,60.00495641
,,,,,,,,,,,,,,,,,,,,2,0,2,0,15,0,15,0,,,,,,,,,,,,,,,,,,,,,,,,,,,,,,,,,,,,,,,,,,,,,,,,,,,,,,,,,,,,,,,,,,,,,,0,,,,,,,,,,,,,,,,,,,,,,,,,,,,left,1,160,-30,130,0,1671.069601,1671.069601,1671.069601,None,None,1,1,2.2718952,,,,,,,,,,,,,,,,,,,,,,10,12,2,2024-11-01_14h18.00.415,uWM_experiment,2022.2.3,60.00495641
,,,,,,,,,,,,,,,,,,,,2,0,2,0,16,0,16,0,,,,,,,,,,,,,,,,,,,,,,,,,,,,,,,,,,,,,,,,,,,,,,,,,,,,,,,,,,,,,,,,,,,,,,0.056948767,,,,,,,,,,,,,,,,,,,,,,,,,,,,left,1,160,-30,130,1,1680.670002,1680.670002,1680.670002,None,None,1,1,0.8955964,,,,,,,,,,,,,,,,,,,,,,10,12,2,2024-11-01_14h18.00.415,uWM_experiment,2022.2.3,60.00495641
,,,,,,,,,,,,,,,,,,,,2,0,2,0,17,0,17,0,,,,,,,,,,,,,,,,,,,,,,,,,,,,,,,,,,,,,,,,,,,,,,,,,,,,,,,,,,,,,,,,,,,,,,0.066948767,,,,,,,,,,,,,,,,,,,,,,,,,,,,left,1,40,-30,10,1,1687.503612,1687.503612,1687.503612,None,None,1,1,0.8778967,,,,,,,,,,,,,,,,,,,,,,10,12,2,2024-11-01_14h18.00.415,uWM_experiment,2022.2.3,60.00495641
,,,,,,,,,,,,,,,,,,,,2,0,2,0,18,0,18,0,,,,,,,,,,,,,,,,,,,,,,,,,,,,,,,,,,,,,,,,,,,,,,,,,,,,,,,,,,,,,,,,,,,,,,0,,,,,,,,,,,,,,,,,,,,,,,,,,,,left,1,40,-30,10,0,1694.48721,1694.48721,1694.48721,None,None,1,1,0.6302964,,,,,,,,,,,,,,,,,,,,,,10,12,2,2024-11-01_14h18.00.415,uWM_experiment,2022.2.3,60.00495641
,,,,,,,,,,,,,,,,,,,,2,0,2,0,19,0,19,0,,,,,,,,,,,,,,,,,,,,,,,,,,,,,,,,,,,,,,,,,,,,,,,,,,,,,,,,,,,,,,,,,,,,,,0.076948767,,,,,,,,,,,,,,,,,,,,,,,,,,,,right,1,40,30,70,1,1702.28753,1702.28753,1702.28753,None,None,1,1,0.6938548,,,,,,,,,,,,,,,,,,,,,,10,12,2,2024-11-01_14h18.00.415,uWM_experiment,2022.2.3,60.00495641
,,,,,,,,,,,,,,,,,,,,2,0,2,0,20,0,20,0,,,,,,,,,,,,,,,,,,,,,,,,,,,,,,,,,,,,,,,,,,,,,,,,,,,,,,,,,,,,,,,,,,,,,,0.086948767,,,,,,,,,,,,,,,,,,,,,,,,,,,,right,1,10,30,40,1,1710.604553,1710.604553,1710.604553,None,None,2,0,0.7609467,,,,,,,,,,,,,,,,,,,,,,10,12,2,2024-11-01_14h18.00.415,uWM_experiment,2022.2.3,60.00495641
,,,,,,,,,,,,,,,,,,,,2,0,2,0,21,0,21,0,,,,,,,,,,,,,,,,,,,,,,,,,,,,,,,,,,,,,,,,,,,,,,,,,,,,,,,,,,,,,,,,,,,,,,0,,,,,,,,,,,,,,,,,,,,,,,,,,,,left,0,160,30,190,0,1717.071518,1717.071518,1717.071518,None,None,1,1,0.8217874,,,,,,,,,,,,,,,,,,,,,,10,12,2,2024-11-01_14h18.00.415,uWM_experiment,2022.2.3,60.00495641
,,,,,,,,,,,,,,,,,,,,2,0,2,0,22,0,22,0,,,,,,,,,,,,,,,,,,,,,,,,,,,,,,,,,,,,,,,,,,,,,,,,,,,,,,,,,,,,,,,,,,,,,,0,,,,,,,,,,,,,,,,,,,,,,,,,,,,left,0,70,30,100,0,1723.721744,1723.721744,1723.721744,None,None,1,1,1.0836397,,,,,,,,,,,,,,,,,,,,,,10,12,2,2024-11-01_14h18.00.415,uWM_experiment,2022.2.3,60.00495641
,,,,,,,,,,,,,,,,,,,,2,0,2,0,23,0,23,0,,,,,,,,,,,,,,,,,,,,,,,,,,,,,,,,,,,,,,,,,,,,,,,,,,,,,,,,,,,,,,,,,,,,,,0,,,,,,,,,,,,,,,,,,,,,,,,,,,,left,1,130,-30,100,0,1731.155353,1731.155353,1731.155353,None,None,1,1,0.7699656,,,,,,,,,,,,,,,,,,,,,,10,12,2,2024-11-01_14h18.00.415,uWM_experiment,2022.2.3,60.00495641
,,,,,,,,,,,,,,,,,,,,2,0,2,0,,,,,0,0,0,0,,,,,,,,,,,,,,,,,,,,,,,,,,,,,,,,,,,,,,,,,,,,,,,,,,,,,,,,,,,,,,,,,,,,,,,,,,,,,,,,,,,,,,,,,,,,,,,,,,,,,,,,,,,,1731.955383,1731.955383,space,10.8259432,space,None,,1742.805831,1742.805831,57.6953768,,,,,,,,,,,,10,12,2,2024-11-01_14h18.00.415,uWM_experiment,2022.2.3,60.00495641
,,,,,,,,,,,,,,,,,,,,2,0,2,0,,,,,1,0,1,0,,,,,,,,,,,,,,,,,,,,,,,,,,,,,,,,,,,,,,,,,,,,,,,,,,,,,,,,,,,,,,,,,,,,,,,,,,,,,,,,,,,,,,,,,,,,,,,,,,,,,,,,,,,,,,,,,,,,,,,,,,,,,,,,,10,12,2,2024-11-01_14h18.00.415,uWM_experiment,2022.2.3,60.00495641
,,,,,,,,,,,,,,,,,,,,2,0,2,0,,,,,2,0,2,0,,,,,,,,,,,,,,,,,,,,,,,,,,,,,,,,,,,,,,,,,,,,,,,,,,,,,,,,,,,,,,,,,,,,,,,,,,,,,,,,,,,,,,,,,,,,,,,,,,,,,,,,,,,,,,,,,,,,,,,,,,,,,,,,,10,12,2,2024-11-01_14h18.00.415,uWM_experiment,2022.2.3,60.00495641
,,,,,,,,,,,,,,,,,,,,3,0,3,0,0,0,0,0,,,,,,,,,,,,,,,,,,,,,,,,,,,,,,,,,,,,,,,,,,,,,,,,,,,,,,,,,,,,,,,,,,,,,,0,,,,,,,,,,,,,,,,,,,,1800.524809,1801.224895,1801.524875,1802.224879,1802.524934,1803.22493,1803.22493,1803.541626,left,1,130,-30,100,0,1808.391795,1808.391795,1808.391795,None,None,1,1,0.9333747,,,,,,,None,,,,,,,,,,,,,,,10,12,2,2024-11-01_14h18.00.415,uWM_experiment,2022.2.3,60.00495641
,,,,,,,,,,,,,,,,,,,,3,0,3,0,1,0,1,0,,,,,,,,,,,,,,,,,,,,,,,,,,,,,,,,,,,,,,,,,,,,,,,,,,,,,,,,,,,,,,,,,,,,,,0.076948767,,,,,,,,,,,,,,,,,,,,,,,,,,,,left,1,10,-30,-20,1,1815.525441,1815.525441,1815.525441,None,None,1,1,1.4636507,,,,,,,,,,,,,,,,,,,,,,10,12,2,2024-11-01_14h18.00.415,uWM_experiment,2022.2.3,60.00495641
,,,,,,,,,,,,,,,,,,,,3,0,3,0,2,0,2,0,,,,,,,,,,,,,,,,,,,,,,,,,,,,,,,,,,,,,,,,,,,,,,,,,,,,,,,,,,,,,,,,,,,,,,0.1,,,,,,,,,,,,,,,,,,,,,,,,,,,,right,1,10,30,40,2,1825.175791,1825.175791,1825.175791,None,None,4,0,0.5652181,,,,,,,,,,,,,,,,,,,,,,10,12,2,2024-11-01_14h18.00.415,uWM_experiment,2022.2.3,60.00495641
,,,,,,,,,,,,,,,,,,,,3,0,3,0,3,0,3,0,,,,,,,,,,,,,,,,,,,,,,,,,,,,,,,,,,,,,,,,,,,,,,,,,,,,,,,,,,,,,,,,,,,,,,0.086948767,,,,,,,,,,,,,,,,,,,,,,,,,,,,left,0,40,30,70,1,1831.492718,1831.492718,1831.492718,None,None,2,0,0.6643067,,,,,,,,,,,,,,,,,,,,,,10,12,2,2024-11-01_14h18.00.415,uWM_experiment,2022.2.3,60.00495641
,,,,,,,,,,,,,,,,,,,,3,0,3,0,4,0,4,0,,,,,,,,,,,,,,,,,,,,,,,,,,,,,,,,,,,,,,,,,,,,,,,,,,,,,,,,,,,,,,,,,,,,,,0.076948767,,,,,,,,,,,,,,,,,,,,,,,,,,,,left,0,70,30,100,1,1838.959685,1838.959685,1838.959685,None,None,2,0,1.4051354,,,,,,,,,,,,,,,,,,,,,,10,12,2,2024-11-01_14h18.00.415,uWM_experiment,2022.2.3,60.00495641
,,,,,,,,,,,,,,,,,,,,3,0,3,0,5,0,5,0,,,,,,,,,,,,,,,,,,,,,,,,,,,,,,,,,,,,,,,,,,,,,,,,,,,,,,,,,,,,,,,,,,,,,,0.066948767,,,,,,,,,,,,,,,,,,,,,,,,,,,,left,0,10,30,40,1,1846.409997,1846.409997,1846.409997,None,None,1,1,1.0109568,,,,,,,,,,,,,,,,,,,,,,10,12,2,2024-11-01_14h18.00.415,uWM_experiment,2022.2.3,60.00495641
,,,,,,,,,,,,,,,,,,,,3,0,3,0,6,0,6,0,,,,,,,,,,,,,,,,,,,,,,,,,,,,,,,,,,,,,,,,,,,,,,,,,,,,,,,,,,,,,,,,,,,,,,0.076948767,,,,,,,,,,,,,,,,,,,,,,,,,,,,left,0,70,30,100,1,1853.143609,1853.143609,1853.143609,None,None,1,1,0.6132406,,,,,,,,,,,,,,,,,,,,,,10,12,2,2024-11-01_14h18.00.415,uWM_experiment,2022.2.3,60.00495641
,,,,,,,,,,,,,,,,,,,,3,0,3,0,7,0,7,0,,,,,,,,,,,,,,,,,,,,,,,,,,,,,,,,,,,,,,,,,,,,,,,,,,,,,,,,,,,,,,,,,,,,,,0.086948767,,,,,,,,,,,,,,,,,,,,,,,,,,,,left,0,100,30,130,1,1859.51052,1859.51052,1859.51052,None,None,1,1,0.5743659,,,,,,,,,,,,,,,,,,,,,,10,12,2,2024-11-01_14h18.00.415,uWM_experiment,2022.2.3,60.00495641
,,,,,,,,,,,,,,,,,,,,3,0,3,0,8,0,8,0,,,,,,,,,,,,,,,,,,,,,,,,,,,,,,,,,,,,,,,,,,,,,,,,,,,,,,,,,,,,,,,,,,,,,,0,,,,,,,,,,,,,,,,,,,,,,,,,,,,left,1,160,-30,130,0,1866.394112,1866.394112,1866.394112,None,None,1,1,1.0186214,,,,,,,,,,,,,,,,,,,,,,10,12,2,2024-11-01_14h18.00.415,uWM_experiment,2022.2.3,60.00495641
,,,,,,,,,,,,,,,,,,,,3,0,3,0,9,0,9,0,,,,,,,,,,,,,,,,,,,,,,,,,,,,,,,,,,,,,,,,,,,,,,,,,,,,,,,,,,,,,,,,,,,,,,0,,,,,,,,,,,,,,,,,,,,,,,,,,,,left,1,100,-30,70,0,1873.211065,1873.211065,1873.211065,None,None,1,1,0.7138259,,,,,,,,,,,,,,,,,,,,,,10,12,2,2024-11-01_14h18.00.415,uWM_experiment,2022.2.3,60.00495641
,,,,,,,,,,,,,,,,,,,,3,0,3,0,10,0,10,0,,,,,,,,,,,,,,,,,,,,,,,,,,,,,,,,,,,,,,,,,,,,,,,,,,,,,,,,,,,,,,,,,,,,,,0.096948767,,,,,,,,,,,,,,,,,,,,,,,,,,,,left,1,40,-30,10,1,1880.594716,1880.594716,1880.594716,None,None,2,0,0.6741632,,,,,,,,,,,,,,,,,,,,,,10,12,2,2024-11-01_14h18.00.415,uWM_experiment,2022.2.3,60.00495641
,,,,,,,,,,,,,,,,,,,,3,0,3,0,11,0,11,0,,,,,,,,,,,,,,,,,,,,,,,,,,,,,,,,,,,,,,,,,,,,,,,,,,,,,,,,,,,,,,,,,,,,,,0.086948767,,,,,,,,,,,,,,,,,,,,,,,,,,,,left,0,40,30,70,1,1888.511688,1888.511688,1888.511688,None,None,2,0,0.8131298,,,,,,,,,,,,,,,,,,,,,,10,12,2,2024-11-01_14h18.00.415,uWM_experiment,2022.2.3,60.00495641
,,,,,,,,,,,,,,,,,,,,3,0,3,0,12,0,12,0,,,,,,,,,,,,,,,,,,,,,,,,,,,,,,,,,,,,,,,,,,,,,,,,,,,,,,,,,,,,,,,,,,,,,,0.076948767,,,,,,,,,,,,,,,,,,,,,,,,,,,,left,1,100,-30,70,1,1895.645303,1895.645303,1895.645303,None,None,1,1,1.6794344,,,,,,,,,,,,,,,,,,,,,,10,12,2,2024-11-01_14h18.00.415,uWM_experiment,2022.2.3,60.00495641
,,,,,,,,,,,,,,,,,,,,3,0,3,0,13,0,13,0,,,,,,,,,,,,,,,,,,,,,,,,,,,,,,,,,,,,,,,,,,,,,,,,,,,,,,,,,,,,,,,,,,,,,,0.086948767,,,,,,,,,,,,,,,,,,,,,,,,,,,,left,0,130,30,160,1,1903.828972,1903.828972,1903.828972,None,None,2,0,0.6637807,,,,,,,,,,,,,,,,,,,,,,10,12,2,2024-11-01_14h18.00.415,uWM_experiment,2022.2.3,60.00495641
,,,,,,,,,,,,,,,,,,,,3,0,3,0,14,0,14,0,,,,,,,,,,,,,,,,,,,,,,,,,,,,,,,,,,,,,,,,,,,,,,,,,,,,,,,,,,,,,,,,,,,,,,0,,,,,,,,,,,,,,,,,,,,,,,,,,,,left,0,130,30,160,0,1910.445907,1910.445907,1910.445907,None,None,1,1,0.9748208,,,,,,,,,,,,,,,,,,,,,,10,12,2,2024-11-01_14h18.00.415,uWM_experiment,2022.2.3,60.00495641
,,,,,,,,,,,,,,,,,,,,3,0,3,0,15,0,15,0,,,,,,,,,,,,,,,,,,,,,,,,,,,,,,,,,,,,,,,,,,,,,,,,,,,,,,,,,,,,,,,,,,,,,,0.1,,,,,,,,,,,,,,,,,,,,,,,,,,,,left,1,10,-30,-20,2,1920.112966,1920.112966,1920.112966,None,None,4,0,0.547683,,,,,,,,,,,,,,,,,,,,,,10,12,2,2024-11-01_14h18.00.415,uWM_experiment,2022.2.3,60.00495641
,,,,,,,,,,,,,,,,,,,,3,0,3,0,16,0,16,0,,,,,,,,,,,,,,,,,,,,,,,,,,,,,,,,,,,,,,,,,,,,,,,,,,,,,,,,,,,,,,,,,,,,,,0.076948767,,,,,,,,,,,,,,,,,,,,,,,,,,,,left,0,100,30,130,1,1926.563229,1926.563229,1926.563229,None,None,1,1,1.9532824,,,,,,,,,,,,,,,,,,,,,,10,12,2,2024-11-01_14h18.00.415,uWM_experiment,2022.2.3,60.00495641
,,,,,,,,,,,,,,,,,,,,3,0,3,0,17,0,17,0,,,,,,,,,,,,,,,,,,,,,,,,,,,,,,,,,,,,,,,,,,,,,,,,,,,,,,,,,,,,,,,,,,,,,,0.086948767,,,,,,,,,,,,,,,,,,,,,,,,,,,,left,0,70,30,100,1,1934.346859,1934.346859,1934.346859,None,None,1,1,0.8817519,,,,,,,,,,,,,,,,,,,,,,10,12,2,2024-11-01_14h18.00.415,uWM_experiment,2022.2.3,60.00495641
,,,,,,,,,,,,,,,,,,,,3,0,3,0,18,0,18,0,,,,,,,,,,,,,,,,,,,,,,,,,,,,,,,,,,,,,,,,,,,,,,,,,,,,,,,,,,,,,,,,,,,,,,0.096948767,,,,,,,,,,,,,,,,,,,,,,,,,,,,left,1,70,-30,40,1,1942.497203,1942.497203,1942.497203,None,None,1,1,0.6352733,,,,,,,,,,,,,,,,,,,,,,10,12,2,2024-11-01_14h18.00.415,uWM_experiment,2022.2.3,60.00495641
,,,,,,,,,,,,,,,,,,,,3,0,3,0,19,0,19,0,,,,,,,,,,,,,,,,,,,,,,,,,,,,,,,,,,,,,,,,,,,,,,,,,,,,,,,,,,,,,,,,,,,,,,0.106948767,,,,,,,,,,,,,,,,,,,,,,,,,,,,left,1,40,-30,10,1,1949.130771,1949.130771,1949.130771,None,None,1,1,0.6578201,,,,,,,,,,,,,,,,,,,,,,10,12,2,2024-11-01_14h18.00.415,uWM_experiment,2022.2.3,60.00495641
,,,,,,,,,,,,,,,,,,,,3,0,3,0,20,0,20,0,,,,,,,,,,,,,,,,,,,,,,,,,,,,,,,,,,,,,,,,,,,,,,,,,,,,,,,,,,,,,,,,,,,,,,0.116948767,,,,,,,,,,,,,,,,,,,,,,,,,,,,left,1,70,-30,40,1,1956.381069,1956.381069,1956.381069,None,None,1,1,0.6153946,,,,,,,,,,,,,,,,,,,,,,10,12,2,2024-11-01_14h18.00.415,uWM_experiment,2022.2.3,60.00495641
,,,,,,,,,,,,,,,,,,,,3,0,3,0,21,0,21,0,,,,,,,,,,,,,,,,,,,,,,,,,,,,,,,,,,,,,,,,,,,,,,,,,,,,,,,,,,,,,,,,,,,,,,0.126948767,,,,,,,,,,,,,,,,,,,,,,,,,,,,right,0,10,-30,-20,1,1965.081426,1965.081426,1965.081426,None,None,2,0,1.0269931,,,,,,,,,,,,,,,,,,,,,,10,12,2,2024-11-01_14h18.00.415,uWM_experiment,2022.2.3,60.00495641
,,,,,,,,,,,,,,,,,,,,3,0,3,0,22,0,22,0,,,,,,,,,,,,,,,,,,,,,,,,,,,,,,,,,,,,,,,,,,,,,,,,,,,,,,,,,,,,,,,,,,,,,,0.116948767,,,,,,,,,,,,,,,,,,,,,,,,,,,,left,0,10,30,40,1,1971.815048,1971.815048,1971.815048,None,None,1,1,0.8133279,,,,,,,,,,,,,,,,,,,,,,10,12,2,2024-11-01_14h18.00.415,uWM_experiment,2022.2.3,60.00495641
,,,,,,,,,,,,,,,,,,,,3,0,3,0,23,0,23,0,,,,,,,,,,,,,,,,,,,,,,,,,,,,,,,,,,,,,,,,,,,,,,,,,,,,,,,,,,,,,,,,,,,,,,0.126948767,,,,,,,,,,,,,,,,,,,,,,,,,,,,left,0,70,30,100,1,1979.332008,1979.332008,1979.332008,None,None,2,0,0.8244297,,,,,,,,,,,,,,,,,,,,,,10,12,2,2024-11-01_14h18.00.415,uWM_experiment,2022.2.3,60.00495641
,,,,,,,,,,,,,,,,,,,,3,0,3,0,,,,,0,0,0,0,,,,,,,,,,,,,,,,,,,,,,,,,,,,,,,,,,,,,,,,,,,,,,,,,,,,,,,,,,,,,,,,,,,,,,,,,,,,,,,,,,,,,,,,,,,,,,,,,,,,,,,,,,,,1980.18202,1980.18202,space,3.6704135,None,None,,,,,,,,,,,,,,,,10,12,2,2024-11-01_14h18.00.415,uWM_experiment,2022.2.3,60.00495641
,,,,,,,,,,,,,,,,,,,,3,0,3,0,,,,,1,0,1,0,,,,,,,,,,,,,,,,,,,,,,,,,,,,,,,,,,,,,,,,,,,,,,,,,,,,,,,,,,,,,,,,,,,,,,,,,,,,,,,,,,,,,,,,,,,,,,,,,,,,,,,,,,,,,,,,,,,,,,,,,,,,,,,,,10,12,2,2024-11-01_14h18.00.415,uWM_experiment,2022.2.3,60.00495641
,,,,,,,,,,,,,,,,,,,,3,0,3,0,,,,,2,0,2,0,,,,,,,,,,,,,,,,,,,,,,,,,,,,,,,,,,,,,,,,,,,,,,,,,,,,,,,,,,,,,,,,,,,,,,,,,,,,,,,,,,,,,,,,,,,,,,,,,,,,,,,,,,,,,,,,,,,,,,,,,,,,,,,,,10,12,2,2024-11-01_14h18.00.415,uWM_experiment,2022.2.3,60.00495641
,,,,,,,,,,,,,,,,,,,,4,0,4,0,0,0,0,0,,,,,,,,,,,,,,,,,,,,,,,,,,,,,,,,,,,,,,,,,,,,,,,,,,,,,,,,,,,,,,,,,,,,,,0.116948767,,,,,,,,,,,,,,,,,,,,1983.882178,1984.582208,1984.882226,1985.582234,1985.882259,1986.582281,1986.582281,1986.898974,left,1,100,-30,70,1,1992.365849,1992.365849,1992.365849,None,None,2,0,1.0064947,,,,,,,None,,,,,,,,,,,,,,,10,12,2,2024-11-01_14h18.00.415,uWM_experiment,2022.2.3,60.00495641
,,,,,,,,,,,,,,,,,,,,4,0,4,0,1,0,1,0,,,,,,,,,,,,,,,,,,,,,,,,,,,,,,,,,,,,,,,,,,,,,,,,,,,,,,,,,,,,,,,,,,,,,,0.106948767,,,,,,,,,,,,,,,,,,,,,,,,,,,,left,0,100,30,130,1,1999.182799,1999.182799,1999.182799,None,None,1,1,0.6374496,,,,,,,,,,,,,,,,,,,,,,10,12,2,2024-11-01_14h18.00.415,uWM_experiment,2022.2.3,60.00495641
,,,,,,,,,,,,,,,,,,,,4,0,4,0,2,0,2,0,,,,,,,,,,,,,,,,,,,,,,,,,,,,,,,,,,,,,,,,,,,,,,,,,,,,,,,,,,,,,,,,,,,,,,0.116948767,,,,,,,,,,,,,,,,,,,,,,,,,,,,left,1,10,-30,-20,1,2005.666411,2005.666411,2005.666411,None,None,1,1,1.1299508,,,,,,,,,,,,,,,,,,,,,,10,12,2,2024-11-01_14h18.00.415,uWM_experiment,2022.2.3,60.00495641
,,,,,,,,,,,,,,,,,,,,4,0,4,0,3,0,3,0,,,,,,,,,,,,,,,,,,,,,,,,,,,,,,,,,,,,,,,,,,,,,,,,,,,,,,,,,,,,,,,,,,,,,,0.126948767,,,,,,,,,,,,,,,,,,,,,,,,,,,,left,1,130,-30,100,1,2012.349981,2012.349981,2012.349981,None,None,2,0,0.6222438,,,,,,,,,,,,,,,,,,,,,,10,12,2,2024-11-01_14h18.00.415,uWM_experiment,2022.2.3,60.00495641
,,,,,,,,,,,,,,,,,,,,4,0,4,0,4,0,4,0,,,,,,,,,,,,,,,,,,,,,,,,,,,,,,,,,,,,,,,,,,,,,,,,,,,,,,,,,,,,,,,,,,,,,,0.116948767,,,,,,,,,,,,,,,,,,,,,,,,,,,,left,0,100,30,130,1,2018.783591,2018.783591,2018.783591,None,None,1,1,0.6127802,,,,,,,,,,,,,,,,,,,,,,10,12,2,2024-11-01_14h18.00.415,uWM_experiment,2022.2.3,60.00495641
,,,,,,,,,,,,,,,,,,,,4,0,4,0,5,0,5,0,,,,,,,,,,,,,,,,,,,,,,,,,,,,,,,,,,,,,,,,,,,,,,,,,,,,,,,,,,,,,,,,,,,,,,0.126948767,,,,,,,,,,,,,,,,,,,,,,,,,,,,left,0,10,30,40,1,2027.483944,2027.483944,2027.483944,None,None,2,0,1.5763306,,,,,,,,,,,,,,,,,,,,,,10,12,2,2024-11-01_14h18.00.415,uWM_experiment,2022.2.3,60.00495641
,,,,,,,,,,,,,,,,,,,,4,0,4,0,6,0,6,0,,,,,,,,,,,,,,,,,,,,,,,,,,,,,,,,,,,,,,,,,,,,,,,,,,,,,,,,,,,,,,,,,,,,,,0.1,,,,,,,,,,,,,,,,,,,,,,,,,,,,left,1,130,-30,100,2,2037.917698,2037.917698,2037.917698,None,None,4,0,0.4945584,,,,,,,,,,,,,,,,,,,,,,10,12,2,2024-11-01_14h18.00.415,uWM_experiment,2022.2.3,60.00495641
,,,,,,,,,,,,,,,,,,,,4,0,4,0,7,0,7,0,,,,,,,,,,,,,,,,,,,,,,,,,,,,,,,,,,,,,,,,,,,,,,,,,,,,,,,,,,,,,,,,,,,,,,0,,,,,,,,,,,,,,,,,,,,,,,,,,,,left,1,100,-30,70,0,2044.067929,2044.067929,2044.067929,None,None,1,1,1.1602283,,,,,,,,,,,,,,,,,,,,,,10,12,2,2024-11-01_14h18.00.415,uWM_experiment,2022.2.3,60.00495641
,,,,,,,,,,,,,,,,,,,,4,0,4,0,8,0,8,0,,,,,,,,,,,,,,,,,,,,,,,,,,,,,,,,,,,,,,,,,,,,,,,,,,,,,,,,,,,,,,,,,,,,,,0.1,,,,,,,,,,,,,,,,,,,,,,,,,,,,right,1,160,30,190,2,2053.551656,2053.551656,2053.551656,None,None,4,0,0.5885765,,,,,,,,,,,,,,,,,,,,,,10,12,2,2024-11-01_14h18.00.415,uWM_experiment,2022.2.3,60.00495641
,,,,,,,,,,,,,,,,,,,,4,0,4,0,9,0,9,0,,,,,,,,,,,,,,,,,,,,,,,,,,,,,,,,,,,,,,,,,,,,,,,,,,,,,,,,,,,,,,,,,,,,,,0.116948767,,,,,,,,,,,,,,,,,,,,,,,,,,,,left,0,70,30,100,1,2060.218607,2060.218607,2060.218607,None,None,2,0,0.7134559,,,,,,,,,,,,,,,,,,,,,,10,12,2,2024-11-01_14h18.00.415,uWM_experiment,2022.2.3,60.00495641
,,,,,,,,,,,,,,,,,,,,4,0,4,0,10,0,10,0,,,,,,,,,,,,,,,,,,,,,,,,,,,,,,,,,,,,,,,,,,,,,,,,,,,,,,,,,,,,,,,,,,,,,,0.106948767,,,,,,,,,,,,,,,,,,,,,,,,,,,,left,0,40,30,70,1,2066.952171,2066.952171,2066.952171,None,None,2,0,0.5718368,,,,,,,,,,,,,,,,,,,,,,10,12,2,2024-11-01_14h18.00.415,uWM_experiment,2022.2.3,60.00495641
,,,,,,,,,,,,,,,,,,,,4,0,4,0,11,0,11,0,,,,,,,,,,,,,,,,,,,,,,,,,,,,,,,,,,,,,,,,,,,,,,,,,,,,,,,,,,,,,,,,,,,,,,0.096948767,,,,,,,,,,,,,,,,,,,,,,,,,,,,right,1,40,30,70,1,2073.919137,2073.919137,2073.919137,None,None,1,1,1.9649911,,,,,,,,,,,,,,,,,,,,,,10,12,2,2024-11-01_14h18.00.415,uWM_experiment,2022.2.3,60.00495641
,,,,,,,,,,,,,,,,,,,,4,0,4,0,12,0,12,0,,,,,,,,,,,,,,,,,,,,,,,,,,,,,,,,,,,,,,,,,,,,,,,,,,,,,,,,,,,,,,,,,,,,,,0.106948767,,,,,,,,,,,,,,,,,,,,,,,,,,,,left,0,40,30,70,1,2081.702764,2081.702764,2081.702764,None,None,2,0,0.8932589,,,,,,,,,,,,,,,,,,,,,,10,12,2,2024-11-01_14h18.00.415,uWM_experiment,2022.2.3,60.00495641
,,,,,,,,,,,,,,,,,,,,4,0,4,0,13,0,13,0,,,,,,,,,,,,,,,,,,,,,,,,,,,,,,,,,,,,,,,,,,,,,,,,,,,,,,,,,,,,,,,,,,,,,,0.096948767,,,,,,,,,,,,,,,,,,,,,,,,,,,,left,1,10,-30,-20,1,2088.303018,2088.303018,2088.303018,None,None,1,1,0.7889728,,,,,,,,,,,,,,,,,,,,,,10,12,2,2024-11-01_14h18.00.415,uWM_experiment,2022.2.3,60.00495641
,,,,,,,,,,,,,,,,,,,,4,0,4,0,14,0,14,0,,,,,,,,,,,,,,,,,,,,,,,,,,,,,,,,,,,,,,,,,,,,,,,,,,,,,,,,,,,,,,,,,,,,,,0,,,,,,,,,,,,,,,,,,,,,,,,,,,,left,1,100,-30,70,0,2095.019997,2095.019997,2095.019997,None,None,1,1,1.159893,,,,,,,,,,,,,,,,,,,,,,10,12,2,2024-11-01_14h18.00.415,uWM_experiment,2022.2.3,60.00495641
,,,,,,,,,,,,,,,,,,,,4,0,4,0,15,0,15,0,,,,,,,,,,,,,,,,,,,,,,,,,,,,,,,,,,,,,,,,,,,,,,,,,,,,,,,,,,,,,,,,,,,,,,0,,,,,,,,,,,,,,,,,,,,,,,,,,,,left,0,160,30,190,0,2102.23695,2102.23695,2102.23695,None,None,1,1,0.6549877,,,,,,,,,,,,,,,,,,,,,,10,12,2,2024-11-01_14h18.00.415,uWM_experiment,2022.2.3,60.00495641
,,,,,,,,,,,,,,,,,,,,4,0,4,0,16,0,16,0,,,,,,,,,,,,,,,,,,,,,,,,,,,,,,,,,,,,,,,,,,,,,,,,,,,,,,,,,,,,,,,,,,,,,,0,,,,,,,,,,,,,,,,,,,,,,,,,,,,left,1,130,-30,100,0,2108.870545,2108.870545,2108.870545,None,None,1,1,1.3253964,,,,,,,,,,,,,,,,,,,,,,10,12,2,2024-11-01_14h18.00.415,uWM_experiment,2022.2.3,60.00495641
,,,,,,,,,,,,,,,,,,,,4,0,4,0,17,0,17,0,,,,,,,,,,,,,,,,,,,,,,,,,,,,,,,,,,,,,,,,,,,,,,,,,,,,,,,,,,,,,,,,,,,,,,0.1,,,,,,,,,,,,,,,,,,,,,,,,,,,,left,1,70,-30,40,2,2117.254219,2117.254219,2117.254219,None,None,3,0,1.3417447,,,,,,,,,,,,,,,,,,,,,,10,12,2,2024-11-01_14h18.00.415,uWM_experiment,2022.2.3,60.00495641
,,,,,,,,,,,,,,,,,,,,4,0,4,0,18,0,18,0,,,,,,,,,,,,,,,,,,,,,,,,,,,,,,,,,,,,,,,,,,,,,,,,,,,,,,,,,,,,,,,,,,,,,,0.106948767,,,,,,,,,,,,,,,,,,,,,,,,,,,,left,1,100,-30,70,1,2124.704508,2124.704508,2124.704508,None,None,2,0,0.7393816,,,,,,,,,,,,,,,,,,,,,,10,12,2,2024-11-01_14h18.00.415,uWM_experiment,2022.2.3,60.00495641
,,,,,,,,,,,,,,,,,,,,4,0,4,0,19,0,19,0,,,,,,,,,,,,,,,,,,,,,,,,,,,,,,,,,,,,,,,,,,,,,,,,,,,,,,,,,,,,,,,,,,,,,,0.1,,,,,,,,,,,,,,,,,,,,,,,,,,,,left,1,40,-30,10,2,2131.571424,2131.571424,2131.571424,None,None,4,0,1.3682791,,,,,,,,,,,,,,,,,,,,,,10,12,2,2024-11-01_14h18.00.415,uWM_experiment,2022.2.3,60.00495641
,,,,,,,,,,,,,,,,,,,,4,0,4,0,20,0,20,0,,,,,,,,,,,,,,,,,,,,,,,,,,,,,,,,,,,,,,,,,,,,,,,,,,,,,,,,,,,,,,,,,,,,,,0.1,,,,,,,,,,,,,,,,,,,,,,,,,,,,right,1,160,30,190,2,2140.621798,2140.621798,2140.621798,None,None,4,0,0.533896,,,,,,,,,,,,,,,,,,,,,,10,12,2,2024-11-01_14h18.00.415,uWM_experiment,2022.2.3,60.00495641
,,,,,,,,,,,,,,,,,,,,4,0,4,0,21,0,21,0,,,,,,,,,,,,,,,,,,,,,,,,,,,,,,,,,,,,,,,,,,,,,,,,,,,,,,,,,,,,,,,,,,,,,,0.096948767,,,,,,,,,,,,,,,,,,,,,,,,,,,,left,0,130,30,160,1,2147.322094,2147.322094,2147.322094,None,None,2,0,0.6576755,,,,,,,,,,,,,,,,,,,,,,10,12,2,2024-11-01_14h18.00.415,uWM_experiment,2022.2.3,60.00495641
,,,,,,,,,,,,,,,,,,,,4,0,4,0,22,0,22,0,,,,,,,,,,,,,,,,,,,,,,,,,,,,,,,,,,,,,,,,,,,,,,,,,,,,,,,,,,,,,,,,,,,,,,0.086948767,,,,,,,,,,,,,,,,,,,,,,,,,,,,left,0,40,30,70,1,2153.739003,2153.739003,2153.739003,None,None,1,1,0.6648324,,,,,,,,,,,,,,,,,,,,,,10,12,2,2024-11-01_14h18.00.415,uWM_experiment,2022.2.3,60.00495641
,,,,,,,,,,,,,,,,,,,,4,0,4,0,23,0,23,0,,,,,,,,,,,,,,,,,,,,,,,,,,,,,,,,,,,,,,,,,,,,,,,,,,,,,,,,,,,,,,,,,,,,,,0,,,,,,,,,,,,,,,,,,,,,,,,,,,,left,1,100,-30,70,0,2160.372609,2160.372609,2160.372609,None,None,1,1,1.2791621,,,,,,,,,,,,,,,,,,,,,,10,12,2,2024-11-01_14h18.00.415,uWM_experiment,2022.2.3,60.00495641
,,,,,,,,,,,,,,,,,,,,4,0,4,0,,,,,0,0,0,0,,,,,,,,,,,,,,,,,,,,,,,,,,,,,,,,,,,,,,,,,,,,,,,,,,,,,,,,,,,,,,,,,,,,,,,,,,,,,,,,,,,,,,,,,,,,,,,,,,,,,,,,,,,,2161.672629,2161.672629,space,14.483131,None,None,,,,,,,,,,,,,,,,10,12,2,2024-11-01_14h18.00.415,uWM_experiment,2022.2.3,60.00495641
,,,,,,,,,,,,,,,,,,,,4,0,4,0,,,,,1,0,1,0,,,,,,,,,,,,,,,,,,,,,,,,,,,,,,,,,,,,,,,,,,,,,,,,,,,,,,,,,,,,,,,,,,,,,,,,,,,,,,,,,,,,,,,,,,,,,,,,,,,,,,,,,,,,,,,,,,,,,,,,,,,,,,,,,10,12,2,2024-11-01_14h18.00.415,uWM_experiment,2022.2.3,60.00495641
,,,,,,,,,,,,,,,,,,,,4,0,4,0,,,,,2,0,2,0,,,,,,,,,,,,,,,,,,,,,,,,,,,,,,,,,,,,,,,,,,,,,,,,,,,,,,,,,,,,,,,,,,,,,,,,,,,,,,,,,,,,,,,,,,,,,,,,,,,,,,,,,,,,,,,,,,,,,,,,,,,,,,,,,10,12,2,2024-11-01_14h18.00.415,uWM_experiment,2022.2.3,60.00495641
,,,,,,,,,,,,,,,,,,,,5,0,5,0,0,0,0,0,,,,,,,,,,,,,,,,,,,,,,,,,,,,,,,,,,,,,,,,,,,,,,,,,,,,,,,,,,,,,,,,,,,,,,0,,,,,,,,,,,,,,,,,,,,2176.17322,2176.873243,2177.173283,2177.873289,2178.173304,2178.873328,2178.873328,2179.190034,left,0,40,30,70,0,2183.806862,2183.806862,2183.806862,None,None,1,1,0.6127976,,,,,,,None,,,,,,,,,,,,,,,10,12,2,2024-11-01_14h18.00.415,uWM_experiment,2022.2.3,60.00495641
,,,,,,,,,,,,,,,,,,,,5,0,5,0,1,0,1,0,,,,,,,,,,,,,,,,,,,,,,,,,,,,,,,,,,,,,,,,,,,,,,,,,,,,,,,,,,,,,,,,,,,,,,0.096948767,,,,,,,,,,,,,,,,,,,,,,,,,,,,left,0,130,30,160,1,2189.673769,2189.673769,2189.673769,None,None,1,1,0.7857558,,,,,,,,,,,,,,,,,,,,,,10,12,2,2024-11-01_14h18.00.415,uWM_experiment,2022.2.3,60.00495641
,,,,,,,,,,,,,,,,,,,,5,0,5,0,2,0,2,0,,,,,,,,,,,,,,,,,,,,,,,,,,,,,,,,,,,,,,,,,,,,,,,,,,,,,,,,,,,,,,,,,,,,,,0,,,,,,,,,,,,,,,,,,,,,,,,,,,,left,1,70,-30,40,0,2196.407382,2196.407382,2196.407382,None,None,1,1,1.7241692,,,,,,,,,,,,,,,,,,,,,,10,12,2,2024-11-01_14h18.00.415,uWM_experiment,2022.2.3,60.00495641
,,,,,,,,,,,,,,,,,,,,5,0,5,0,3,0,3,0,,,,,,,,,,,,,,,,,,,,,,,,,,,,,,,,,,,,,,,,,,,,,,,,,,,,,,,,,,,,,,,,,,,,,,0.106948767,,,,,,,,,,,,,,,,,,,,,,,,,,,,left,0,130,30,160,1,2203.72433,2203.72433,2203.72433,None,None,2,0,0.6072648,,,,,,,,,,,,,,,,,,,,,,10,12,2,2024-11-01_14h18.00.415,uWM_experiment,2022.2.3,60.00495641
,,,,,,,,,,,,,,,,,,,,5,0,5,0,4,0,4,0,,,,,,,,,,,,,,,,,,,,,,,,,,,,,,,,,,,,,,,,,,,,,,,,,,,,,,,,,,,,,,,,,,,,,,0,,,,,,,,,,,,,,,,,,,,,,,,,,,,left,1,160,-30,130,0,2210.141255,2210.141255,2210.141255,None,None,1,1,0.5422952,,,,,,,,,,,,,,,,,,,,,,10,12,2,2024-11-01_14h18.00.415,uWM_experiment,2022.2.3,60.00495641
,,,,,,,,,,,,,,,,,,,,5,0,5,0,5,0,5,0,,,,,,,,,,,,,,,,,,,,,,,,,,,,,,,,,,,,,,,,,,,,,,,,,,,,,,,,,,,,,,,,,,,,,,0.096948767,,,,,,,,,,,,,,,,,,,,,,,,,,,,left,0,130,30,160,1,2216.674864,2216.674864,2216.674864,None,None,2,0,0.504557,,,,,,,,,,,,,,,,,,,,,,10,12,2,2024-11-01_14h18.00.415,uWM_experiment,2022.2.3,60.00495641
,,,,,,,,,,,,,,,,,,,,5,0,5,0,6,0,6,0,,,,,,,,,,,,,,,,,,,,,,,,,,,,,,,,,,,,,,,,,,,,,,,,,,,,,,,,,,,,,,,,,,,,,,0.086948767,,,,,,,,,,,,,,,,,,,,,,,,,,,,left,1,10,-30,-20,1,2222.941767,2222.941767,2222.941767,None,None,2,0,0.4297221,,,,,,,,,,,,,,,,,,,,,,10,12,2,2024-11-01_14h18.00.415,uWM_experiment,2022.2.3,60.00495641
,,,,,,,,,,,,,,,,,,,,5,0,5,0,7,0,7,0,,,,,,,,,,,,,,,,,,,,,,,,,,,,,,,,,,,,,,,,,,,,,,,,,,,,,,,,,,,,,,,,,,,,,,0.076948767,,,,,,,,,,,,,,,,,,,,,,,,,,,,left,0,10,30,40,1,2230.242047,2230.242047,2230.242047,None,None,1,1,1.1373375,,,,,,,,,,,,,,,,,,,,,,10,12,2,2024-11-01_14h18.00.415,uWM_experiment,2022.2.3,60.00495641
,,,,,,,,,,,,,,,,,,,,5,0,5,0,8,0,8,0,,,,,,,,,,,,,,,,,,,,,,,,,,,,,,,,,,,,,,,,,,,,,,,,,,,,,,,,,,,,,,,,,,,,,,0,,,,,,,,,,,,,,,,,,,,,,,,,,,,right,1,70,30,100,0,2237.042331,2237.042331,2237.042331,None,None,1,1,0.841105,,,,,,,,,,,,,,,,,,,,,,10,12,2,2024-11-01_14h18.00.415,uWM_experiment,2022.2.3,60.00495641
,,,,,,,,,,,,,,,,,,,,5,0,5,0,9,0,9,0,,,,,,,,,,,,,,,,,,,,,,,,,,,,,,,,,,,,,,,,,,,,,,,,,,,,,,,,,,,,,,,,,,,,,,0.086948767,,,,,,,,,,,,,,,,,,,,,,,,,,,,left,0,130,30,160,1,2244.725975,2244.725975,2244.725975,None,None,1,1,0.9734449,,,,,,,,,,,,,,,,,,,,,,10,12,2,2024-11-01_14h18.00.415,uWM_experiment,2022.2.3,60.00495641
,,,,,,,,,,,,,,,,,,,,5,0,5,0,10,0,10,0,,,,,,,,,,,,,,,,,,,,,,,,,,,,,,,,,,,,,,,,,,,,,,,,,,,,,,,,,,,,,,,,,,,,,,0,,,,,,,,,,,,,,,,,,,,,,,,,,,,left,1,10,-30,-20,0,2251.526257,2251.526257,2251.526257,None,None,1,1,1.3251436,,,,,,,,,,,,,,,,,,,,,,10,12,2,2024-11-01_14h18.00.415,uWM_experiment,2022.2.3,60.00495641
,,,,,,,,,,,,,,,,,,,,5,0,5,0,11,0,11,0,,,,,,,,,,,,,,,,,,,,,,,,,,,,,,,,,,,,,,,,,,,,,,,,,,,,,,,,,,,,,,,,,,,,,,0.096948767,,,,,,,,,,,,,,,,,,,,,,,,,,,,left,0,40,30,70,1,2258.609859,2258.609859,2258.609859,None,None,1,1,0.6654535,,,,,,,,,,,,,,,,,,,,,,10,12,2,2024-11-01_14h18.00.415,uWM_experiment,2022.2.3,60.00495641
,,,,,,,,,,,,,,,,,,,,5,0,5,0,12,0,12,0,,,,,,,,,,,,,,,,,,,,,,,,,,,,,,,,,,,,,,,,,,,,,,,,,,,,,,,,,,,,,,,,,,,,,,0.106948767,,,,,,,,,,,,,,,,,,,,,,,,,,,,left,1,100,-30,70,1,2265.243484,2265.243484,2265.243484,None,None,2,0,1.1839076,,,,,,,,,,,,,,,,,,,,,,10,12,2,2024-11-01_14h18.00.415,uWM_experiment,2022.2.3,60.00495641
,,,,,,,,,,,,,,,,,,,,5,0,5,0,13,0,13,0,,,,,,,,,,,,,,,,,,,,,,,,,,,,,,,,,,,,,,,,,,,,,,,,,,,,,,,,,,,,,,,,,,,,,,0.096948767,,,,,,,,,,,,,,,,,,,,,,,,,,,,left,0,10,30,40,1,2272.510428,2272.510428,2272.510428,None,None,1,1,0.8128917,,,,,,,,,,,,,,,,,,,,,,10,12,2,2024-11-01_14h18.00.415,uWM_experiment,2022.2.3,60.00495641
,,,,,,,,,,,,,,,,,,,,5,0,5,0,14,0,14,0,,,,,,,,,,,,,,,,,,,,,,,,,,,,,,,,,,,,,,,,,,,,,,,,,,,,,,,,,,,,,,,,,,,,,,0.106948767,,,,,,,,,,,,,,,,,,,,,,,,,,,,left,1,40,-30,10,1,2279.594064,2279.594064,2279.594064,None,None,3,0,0.76912,,,,,,,,,,,,,,,,,,,,,,10,12,2,2024-11-01_14h18.00.415,uWM_experiment,2022.2.3,60.00495641
,,,,,,,,,,,,,,,,,,,,5,0,5,0,15,0,15,0,,,,,,,,,,,,,,,,,,,,,,,,,,,,,,,,,,,,,,,,,,,,,,,,,,,,,,,,,,,,,,,,,,,,,,0.096948767,,,,,,,,,,,,,,,,,,,,,,,,,,,,left,1,40,-30,10,1,2286.194389,2286.194389,2286.194389,None,None,2,0,0.6169537,,,,,,,,,,,,,,,,,,,,,,10,12,2,2024-11-01_14h18.00.415,uWM_experiment,2022.2.3,60.00495641
,,,,,,,,,,,,,,,,,,,,5,0,5,0,16,0,16,0,,,,,,,,,,,,,,,,,,,,,,,,,,,,,,,,,,,,,,,,,,,,,,,,,,,,,,,,,,,,,,,,,,,,,,0.086948767,,,,,,,,,,,,,,,,,,,,,,,,,,,,left,1,70,-30,40,1,2292.711226,2292.711226,2292.711226,None,None,2,0,1.2519112,,,,,,,,,,,,,,,,,,,,,,10,12,2,2024-11-01_14h18.00.415,uWM_experiment,2022.2.3,60.00495641
,,,,,,,,,,,,,,,,,,,,5,0,5,0,17,0,17,0,,,,,,,,,,,,,,,,,,,,,,,,,,,,,,,,,,,,,,,,,,,,,,,,,,,,,,,,,,,,,,,,,,,,,,0.076948767,,,,,,,,,,,,,,,,,,,,,,,,,,,,left,0,10,30,40,1,2300.111553,2300.111553,2300.111553,None,None,1,1,0.9957167,,,,,,,,,,,,,,,,,,,,,,10,12,2,2024-11-01_14h18.00.415,uWM_experiment,2022.2.3,60.00495641
,,,,,,,,,,,,,,,,,,,,5,0,5,0,18,0,18,0,,,,,,,,,,,,,,,,,,,,,,,,,,,,,,,,,,,,,,,,,,,,,,,,,,,,,,,,,,,,,,,,,,,,,,0.086948767,,,,,,,,,,,,,,,,,,,,,,,,,,,,left,1,100,-30,70,1,2307.011802,2307.011802,2307.011802,None,None,1,1,0.9113627,,,,,,,,,,,,,,,,,,,,,,10,12,2,2024-11-01_14h18.00.415,uWM_experiment,2022.2.3,60.00495641
,,,,,,,,,,,,,,,,,,,,5,0,5,0,19,0,19,0,,,,,,,,,,,,,,,,,,,,,,,,,,,,,,,,,,,,,,,,,,,,,,,,,,,,,,,,,,,,,,,,,,,,,,0.096948767,,,,,,,,,,,,,,,,,,,,,,,,,,,,left,0,10,30,40,1,2313.928754,2313.928754,2313.928754,None,None,1,1,0.6903828,,,,,,,,,,,,,,,,,,,,,,10,12,2,2024-11-01_14h18.00.415,uWM_experiment,2022.2.3,60.00495641
,,,,,,,,,,,,,,,,,,,,5,0,5,0,20,0,20,0,,,,,,,,,,,,,,,,,,,,,,,,,,,,,,,,,,,,,,,,,,,,,,,,,,,,,,,,,,,,,,,,,,,,,,0.106948767,,,,,,,,,,,,,,,,,,,,,,,,,,,,left,0,160,30,190,1,2320.345673,2320.345673,2320.345673,None,None,1,1,0.7053431,,,,,,,,,,,,,,,,,,,,,,10,12,2,2024-11-01_14h18.00.415,uWM_experiment,2022.2.3,60.00495641
,,,,,,,,,,,,,,,,,,,,5,0,5,0,21,0,21,0,,,,,,,,,,,,,,,,,,,,,,,,,,,,,,,,,,,,,,,,,,,,,,,,,,,,,,,,,,,,,,,,,,,,,,0.116948767,,,,,,,,,,,,,,,,,,,,,,,,,,,,left,1,130,-30,100,1,2327.129319,2327.129319,2327.129319,None,None,2,0,0.8578194,,,,,,,,,,,,,,,,,,,,,,10,12,2,2024-11-01_14h18.00.415,uWM_experiment,2022.2.3,60.00495641
,,,,,,,,,,,,,,,,,,,,5,0,5,0,22,0,22,0,,,,,,,,,,,,,,,,,,,,,,,,,,,,,,,,,,,,,,,,,,,,,,,,,,,,,,,,,,,,,,,,,,,,,,0,,,,,,,,,,,,,,,,,,,,,,,,,,,,left,0,160,30,190,0,2334.496252,2334.496252,2334.496252,None,None,1,1,0.6507195,,,,,,,,,,,,,,,,,,,,,,10,12,2,2024-11-01_14h18.00.415,uWM_experiment,2022.2.3,60.00495641
,,,,,,,,,,,,,,,,,,,,5,0,5,0,23,0,23,0,,,,,,,,,,,,,,,,,,,,,,,,,,,,,,,,,,,,,,,,,,,,,,,,,,,,,,,,,,,,,,,,,,,,,,0.106948767,,,,,,,,,,,,,,,,,,,,,,,,,,,,left,1,160,-30,130,1,2341.146514,2341.146514,2341.146514,None,None,1,1,0.6884954,,,,,,,,,,,,,,,,,,,,,,10,12,2,2024-11-01_14h18.00.415,uWM_experiment,2022.2.3,60.00495641
,,,,,,,,,,,,,,,,,,,,5,0,5,0,,,,,0,0,0,0,,,,,,,,,,,,,,,,,,,,,,,,,,,,,,,,,,,,,,,,,,,,,,,,,,,,,,,,,,,,,,,,,,,,,,,,,,,,,,,,,,,,,,,,,,,,,,,,,,,,,,,,,,,,2341.86319,2341.86319,space,11.3717397,space,None,,2353.26368,2353.26368,4.8673775,,,,,,,,,,,,10,12,2,2024-11-01_14h18.00.415,uWM_experiment,2022.2.3,60.00495641
,,,,,,,,,,,,,,,,,,,,5,0,5,0,,,,,1,0,1,0,,,,,,,,,,,,,,,,,,,,,,,,,,,,,,,,,,,,,,,,,,,,,,,,,,,,,,,,,,,,,,,,,,,,,,,,,,,,,,,,,,,,,,,,,,,,,,,,,,,,,,,,,,,,,,,,,,,,,,,,,,,,,,,,,10,12,2,2024-11-01_14h18.00.415,uWM_experiment,2022.2.3,60.00495641
,,,,,,,,,,,,,,,,,,,,5,0,5,0,,,,,2,0,2,0,,,,,,,,,,,,,,,,,,,,,,,,,,,,,,,,,,,,,,,,,,,,,,,,,,,,,,,,,,,,,,,,,,,,,,,,,,,,,,,,,,,,,,,,,,,,,,,,,,,,,,,,,,,,,,,,,,,,,,,,,,,,,,,,,10,12,2,2024-11-01_14h18.00.415,uWM_experiment,2022.2.3,60.00495641
,,,,,,,,,,,,,,,,,,,,6,0,6,0,0,0,0,0,,,,,,,,,,,,,,,,,,,,,,,,,,,,,,,,,,,,,,,,,,,,,,,,,,,,,,,,,,,,,,,,,,,,,,0.116948767,,,,,,,,,,,,,,,,,,,,2358.163863,2358.863892,2359.163889,2359.863933,2360.163945,2360.863971,2360.863971,2361.180662,left,1,160,-30,130,1,2365.747503,2365.747503,2365.747503,None,None,1,1,1.0154911,,,,,,,None,,,,,,,,,,,,,,,10,12,2,2024-11-01_14h18.00.415,uWM_experiment,2022.2.3,60.00495641
,,,,,,,,,,,,,,,,,,,,6,0,6,0,1,0,1,0,,,,,,,,,,,,,,,,,,,,,,,,,,,,,,,,,,,,,,,,,,,,,,,,,,,,,,,,,,,,,,,,,,,,,,0.126948767,,,,,,,,,,,,,,,,,,,,,,,,,,,,left,0,130,30,160,1,2373.097803,2373.097803,2373.097803,None,None,2,0,0.5291234,,,,,,,,,,,,,,,,,,,,,,10,12,2,2024-11-01_14h18.00.415,uWM_experiment,2022.2.3,60.00495641
,,,,,,,,,,,,,,,,,,,,6,0,6,0,2,0,2,0,,,,,,,,,,,,,,,,,,,,,,,,,,,,,,,,,,,,,,,,,,,,,,,,,,,,,,,,,,,,,,,,,,,,,,0.116948767,,,,,,,,,,,,,,,,,,,,,,,,,,,,left,0,100,30,130,1,2379.548061,2379.548061,2379.548061,None,None,2,0,0.6707396,,,,,,,,,,,,,,,,,,,,,,10,12,2,2024-11-01_14h18.00.415,uWM_experiment,2022.2.3,60.00495641
,,,,,,,,,,,,,,,,,,,,6,0,6,0,3,0,3,0,,,,,,,,,,,,,,,,,,,,,,,,,,,,,,,,,,,,,,,,,,,,,,,,,,,,,,,,,,,,,,,,,,,,,,0.106948767,,,,,,,,,,,,,,,,,,,,,,,,,,,,right,1,100,30,130,1,2385.998336,2385.998336,2385.998336,None,None,1,1,0.7806447,,,,,,,,,,,,,,,,,,,,,,10,12,2,2024-11-01_14h18.00.415,uWM_experiment,2022.2.3,60.00495641
,,,,,,,,,,,,,,,,,,,,6,0,6,0,4,0,4,0,,,,,,,,,,,,,,,,,,,,,,,,,,,,,,,,,,,,,,,,,,,,,,,,,,,,,,,,,,,,,,,,,,,,,,0.116948767,,,,,,,,,,,,,,,,,,,,,,,,,,,,left,0,40,30,70,1,2392.96527,2392.96527,2392.96527,None,None,1,1,0.7174827,,,,,,,,,,,,,,,,,,,,,,10,12,2,2024-11-01_14h18.00.415,uWM_experiment,2022.2.3,60.00495641
,,,,,,,,,,,,,,,,,,,,6,0,6,0,5,0,5,0,,,,,,,,,,,,,,,,,,,,,,,,,,,,,,,,,,,,,,,,,,,,,,,,,,,,,,,,,,,,,,,,,,,,,,0.126948767,,,,,,,,,,,,,,,,,,,,,,,,,,,,left,0,40,30,70,1,2399.582191,2399.582191,2399.582191,None,None,1,1,0.9966461,,,,,,,,,,,,,,,,,,,,,,10,12,2,2024-11-01_14h18.00.415,uWM_experiment,2022.2.3,60.00495641
,,,,,,,,,,,,,,,,,,,,6,0,6,0,6,0,6,0,,,,,,,,,,,,,,,,,,,,,,,,,,,,,,,,,,,,,,,,,,,,,,,,,,,,,,,,,,,,,,,,,,,,,,0.136948767,,,,,,,,,,,,,,,,,,,,,,,,,,,,left,1,160,-30,130,1,2406.74917,2406.74917,2406.74917,None,None,1,1,0.765644,,,,,,,,,,,,,,,,,,,,,,10,12,2,2024-11-01_14h18.00.415,uWM_experiment,2022.2.3,60.00495641
,,,,,,,,,,,,,,,,,,,,6,0,6,0,7,0,7,0,,,,,,,,,,,,,,,,,,,,,,,,,,,,,,,,,,,,,,,,,,,,,,,,,,,,,,,,,,,,,,,,,,,,,,0.146948767,,,,,,,,,,,,,,,,,,,,,,,,,,,,left,1,130,-30,100,1,2413.98278,2413.98278,2413.98278,None,None,2,0,0.4519132,,,,,,,,,,,,,,,,,,,,,,10,12,2,2024-11-01_14h18.00.415,uWM_experiment,2022.2.3,60.00495641
,,,,,,,,,,,,,,,,,,,,6,0,6,0,8,0,8,0,,,,,,,,,,,,,,,,,,,,,,,,,,,,,,,,,,,,,,,,,,,,,,,,,,,,,,,,,,,,,,,,,,,,,,0.136948767,,,,,,,,,,,,,,,,,,,,,,,,,,,,left,1,130,-30,100,1,2420.53304,2420.53304,2420.53304,None,None,2,0,0.7338648,,,,,,,,,,,,,,,,,,,,,,10,12,2,2024-11-01_14h18.00.415,uWM_experiment,2022.2.3,60.00495641
,,,,,,,,,,,,,,,,,,,,6,0,6,0,9,0,9,0,,,,,,,,,,,,,,,,,,,,,,,,,,,,,,,,,,,,,,,,,,,,,,,,,,,,,,,,,,,,,,,,,,,,,,0,,,,,,,,,,,,,,,,,,,,,,,,,,,,left,1,10,-30,-20,0,2427.299976,2427.299976,2427.299976,None,None,1,1,0.6147345,,,,,,,,,,,,,,,,,,,,,,10,12,2,2024-11-01_14h18.00.415,uWM_experiment,2022.2.3,60.00495641
,,,,,,,,,,,,,,,,,,,,6,0,6,0,10,0,10,0,,,,,,,,,,,,,,,,,,,,,,,,,,,,,,,,,,,,,,,,,,,,,,,,,,,,,,,,,,,,,,,,,,,,,,0.126948767,,,,,,,,,,,,,,,,,,,,,,,,,,,,left,1,100,-30,70,1,2434.200273,2434.200273,2434.200273,None,None,1,1,1.0343343,,,,,,,,,,,,,,,,,,,,,,10,12,2,2024-11-01_14h18.00.415,uWM_experiment,2022.2.3,60.00495641
,,,,,,,,,,,,,,,,,,,,6,0,6,0,11,0,11,0,,,,,,,,,,,,,,,,,,,,,,,,,,,,,,,,,,,,,,,,,,,,,,,,,,,,,,,,,,,,,,,,,,,,,,0.136948767,,,,,,,,,,,,,,,,,,,,,,,,,,,,left,1,100,-30,70,1,2440.850519,2440.850519,2440.850519,None,None,1,1,0.5200188,,,,,,,,,,,,,,,,,,,,,,10,12,2,2024-11-01_14h18.00.415,uWM_experiment,2022.2.3,60.00495641
,,,,,,,,,,,,,,,,,,,,6,0,6,0,12,0,12,0,,,,,,,,,,,,,,,,,,,,,,,,,,,,,,,,,,,,,,,,,,,,,,,,,,,,,,,,,,,,,,,,,,,,,,0.146948767,,,,,,,,,,,,,,,,,,,,,,,,,,,,left,1,130,-30,100,1,2446.917454,2446.917454,2446.917454,None,None,2,0,0.5491675,,,,,,,,,,,,,,,,,,,,,,10,12,2,2024-11-01_14h18.00.415,uWM_experiment,2022.2.3,60.00495641
,,,,,,,,,,,,,,,,,,,,6,0,6,0,13,0,13,0,,,,,,,,,,,,,,,,,,,,,,,,,,,,,,,,,,,,,,,,,,,,,,,,,,,,,,,,,,,,,,,,,,,,,,0,,,,,,,,,,,,,,,,,,,,,,,,,,,,left,0,40,30,70,0,2453.184344,2453.184344,2453.184344,None,None,2,0,0.5142932,,,,,,,,,,,,,,,,,,,,,,10,12,2,2024-11-01_14h18.00.415,uWM_experiment,2022.2.3,60.00495641
,,,,,,,,,,,,,,,,,,,,6,0,6,0,14,0,14,0,,,,,,,,,,,,,,,,,,,,,,,,,,,,,,,,,,,,,,,,,,,,,,,,,,,,,,,,,,,,,,,,,,,,,,0.136948767,,,,,,,,,,,,,,,,,,,,,,,,,,,,left,1,10,-30,-20,1,2459.4846,2459.4846,2459.4846,None,None,2,0,0.510037,,,,,,,,,,,,,,,,,,,,,,10,12,2,2024-11-01_14h18.00.415,uWM_experiment,2022.2.3,60.00495641
,,,,,,,,,,,,,,,,,,,,6,0,6,0,15,0,15,0,,,,,,,,,,,,,,,,,,,,,,,,,,,,,,,,,,,,,,,,,,,,,,,,,,,,,,,,,,,,,,,,,,,,,,0.126948767,,,,,,,,,,,,,,,,,,,,,,,,,,,,left,1,100,-30,70,1,2465.818202,2465.818202,2465.818202,None,None,1,1,0.7282882,,,,,,,,,,,,,,,,,,,,,,10,12,2,2024-11-01_14h18.00.415,uWM_experiment,2022.2.3,60.00495641
,,,,,,,,,,,,,,,,,,,,6,0,6,0,16,0,16,0,,,,,,,,,,,,,,,,,,,,,,,,,,,,,,,,,,,,,,,,,,,,,,,,,,,,,,,,,,,,,,,,,,,,,,0.136948767,,,,,,,,,,,,,,,,,,,,,,,,,,,,left,0,100,30,130,1,2472.451814,2472.451814,2472.451814,None,None,1,1,0.5427237,,,,,,,,,,,,,,,,,,,,,,10,12,2,2024-11-01_14h18.00.415,uWM_experiment,2022.2.3,60.00495641
,,,,,,,,,,,,,,,,,,,,6,0,6,0,17,0,17,0,,,,,,,,,,,,,,,,,,,,,,,,,,,,,,,,,,,,,,,,,,,,,,,,,,,,,,,,,,,,,,,,,,,,,,0.146948767,,,,,,,,,,,,,,,,,,,,,,,,,,,,left,1,70,-30,40,1,2479.268718,2479.268718,2479.268718,None,None,2,0,0.6377048,,,,,,,,,,,,,,,,,,,,,,10,12,2,2024-11-01_14h18.00.415,uWM_experiment,2022.2.3,60.00495641
,,,,,,,,,,,,,,,,,,,,6,0,6,0,18,0,18,0,,,,,,,,,,,,,,,,,,,,,,,,,,,,,,,,,,,,,,,,,,,,,,,,,,,,,,,,,,,,,,,,,,,,,,0.136948767,,,,,,,,,,,,,,,,,,,,,,,,,,,,left,0,100,30,130,1,2485.752332,2485.752332,2485.752332,None,None,1,1,1.210218,,,,,,,,,,,,,,,,,,,,,,10,12,2,2024-11-01_14h18.00.415,uWM_experiment,2022.2.3,60.00495641
,,,,,,,,,,,,,,,,,,,,6,0,6,0,19,0,19,0,,,,,,,,,,,,,,,,,,,,,,,,,,,,,,,,,,,,,,,,,,,,,,,,,,,,,,,,,,,,,,,,,,,,,,0.146948767,,,,,,,,,,,,,,,,,,,,,,,,,,,,left,0,100,30,130,1,2492.852635,2492.852635,2492.852635,None,None,1,1,0.7257366,,,,,,,,,,,,,,,,,,,,,,10,12,2,2024-11-01_14h18.00.415,uWM_experiment,2022.2.3,60.00495641
,,,,,,,,,,,,,,,,,,,,6,0,6,0,20,0,20,0,,,,,,,,,,,,,,,,,,,,,,,,,,,,,,,,,,,,,,,,,,,,,,,,,,,,,,,,,,,,,,,,,,,,,,0.156948767,,,,,,,,,,,,,,,,,,,,,,,,,,,,left,1,100,-30,70,1,2499.386211,2499.386211,2499.386211,None,None,1,1,0.6562124,,,,,,,,,,,,,,,,,,,,,,10,12,2,2024-11-01_14h18.00.415,uWM_experiment,2022.2.3,60.00495641
,,,,,,,,,,,,,,,,,,,,6,0,6,0,21,0,21,0,,,,,,,,,,,,,,,,,,,,,,,,,,,,,,,,,,,,,,,,,,,,,,,,,,,,,,,,,,,,,,,,,,,,,,0,,,,,,,,,,,,,,,,,,,,,,,,,,,,left,0,160,30,190,0,2506.453147,2506.453147,2506.453147,None,None,1,1,0.8851953,,,,,,,,,,,,,,,,,,,,,,10,12,2,2024-11-01_14h18.00.415,uWM_experiment,2022.2.3,60.00495641
,,,,,,,,,,,,,,,,,,,,6,0,6,0,22,0,22,0,,,,,,,,,,,,,,,,,,,,,,,,,,,,,,,,,,,,,,,,,,,,,,,,,,,,,,,,,,,,,,,,,,,,,,0,,,,,,,,,,,,,,,,,,,,,,,,,,,,left,1,100,-30,70,0,2513.45344,2513.45344,2513.45344,None,None,1,1,0.6688482,,,,,,,,,,,,,,,,,,,,,,10,12,2,2024-11-01_14h18.00.415,uWM_experiment,2022.2.3,60.00495641
,,,,,,,,,,,,,,,,,,,,6,0,6,0,23,0,23,0,,,,,,,,,,,,,,,,,,,,,,,,,,,,,,,,,,,,,,,,,,,,,,,,,,,,,,,,,,,,,,,,,,,,,,0.166948767,,,,,,,,,,,,,,,,,,,,,,,,,,,,left,1,10,-30,-20,1,2520.037043,2520.037043,2520.037043,None,None,2,0,0.4532248,,,,,,,,,,,,,,,,,,,,,,10,12,2,2024-11-01_14h18.00.415,uWM_experiment,2022.2.3,60.00495641
,,,,,,,,,,,,,,,,,,,,6,0,6,0,,,,,0,0,0,0,,,,,,,,,,,,,,,,,,,,,,,,,,,,,,,,,,,,,,,,,,,,,,,,,,,,,,,,,,,,,,,,,,,,,,,,,,,,,,,,,,,,,,,,,,,,,,,,,,,,,,,,,,,,2520.520391,2520.520391,space,7.5139022,None,space,,,,,2528.054032,2528.054032,50.0201131,,,,,,,,,10,12,2,2024-11-01_14h18.00.415,uWM_experiment,2022.2.3,60.00495641
,,,,,,,,,,,,,,,,,,,,6,0,6,0,,,,,1,0,1,0,,,,,,,,,,,,,,,,,,,,,,,,,,,,,,,,,,,,,,,,,,,,,,,,,,,,,,,,,,,,,,,,,,,,,,,,,,,,,,,,,,,,,,,,,,,,,,,,,,,,,,,,,,,,,,,,,,,,,,,,,,,,,,,,,10,12,2,2024-11-01_14h18.00.415,uWM_experiment,2022.2.3,60.00495641
,,,,,,,,,,,,,,,,,,,,6,0,6,0,,,,,2,0,2,0,,,,,,,,,,,,,,,,,,,,,,,,,,,,,,,,,,,,,,,,,,,,,,,,,,,,,,,,,,,,,,,,,,,,,,,,,,,,,,,,,,,,,,,,,,,,,,,,,,,,,,,,,,,,,,,,,,,,,,,,,,,,,,,,,10,12,2,2024-11-01_14h18.00.415,uWM_experiment,2022.2.3,60.00495641
,,,,,,,,,,,,,,,,,,,,7,0,7,0,0,0,0,0,,,,,,,,,,,,,,,,,,,,,,,,,,,,,,,,,,,,,,,,,,,,,,,,,,,,,,,,,,,,,,,,,,,,,,0,,,,,,,,,,,,,,,,,,,,2596.106747,2596.806817,2597.090134,2597.790159,2598.09017,2598.790201,2598.790201,2599.106884,left,0,100,30,130,0,2605.857155,2605.857155,2605.857155,None,None,1,1,0.6329314,,,,,,,space,,,,,,,2592.473336,2592.473336,3.6166661,,,,,,10,12,2,2024-11-01_14h18.00.415,uWM_experiment,2022.2.3,60.00495641
,,,,,,,,,,,,,,,,,,,,7,0,7,0,1,0,1,0,,,,,,,,,,,,,,,,,,,,,,,,,,,,,,,,,,,,,,,,,,,,,,,,,,,,,,,,,,,,,,,,,,,,,,0.156948767,,,,,,,,,,,,,,,,,,,,,,,,,,,,left,0,40,30,70,1,2612.990766,2612.990766,2612.990766,None,None,2,0,0.6911794,,,,,,,,,,,,,,,,,,,,,,10,12,2,2024-11-01_14h18.00.415,uWM_experiment,2022.2.3,60.00495641
,,,,,,,,,,,,,,,,,,,,7,0,7,0,2,0,2,0,,,,,,,,,,,,,,,,,,,,,,,,,,,,,,,,,,,,,,,,,,,,,,,,,,,,,,,,,,,,,,,,,,,,,,0.1,,,,,,,,,,,,,,,,,,,,,,,,,,,,left,1,130,-30,100,2,2621.924458,2621.924458,2621.924458,None,None,4,0,0.6935122,,,,,,,,,,,,,,,,,,,,,,10,12,2,2024-11-01_14h18.00.415,uWM_experiment,2022.2.3,60.00495641
,,,,,,,,,,,,,,,,,,,,7,0,7,0,3,0,3,0,,,,,,,,,,,,,,,,,,,,,,,,,,,,,,,,,,,,,,,,,,,,,,,,,,,,,,,,,,,,,,,,,,,,,,0,,,,,,,,,,,,,,,,,,,,,,,,,,,,left,0,130,30,160,0,2628.49138,2628.49138,2628.49138,None,None,1,1,1.1585513,,,,,,,,,,,,,,,,,,,,,,10,12,2,2024-11-01_14h18.00.415,uWM_experiment,2022.2.3,60.00495641
,,,,,,,,,,,,,,,,,,,,7,0,7,0,4,0,4,0,,,,,,,,,,,,,,,,,,,,,,,,,,,,,,,,,,,,,,,,,,,,,,,,,,,,,,,,,,,,,,,,,,,,,,0.146948767,,,,,,,,,,,,,,,,,,,,,,,,,,,,left,0,130,30,160,1,2635.575001,2635.575001,2635.575001,None,None,1,1,0.9628717,,,,,,,,,,,,,,,,,,,,,,10,12,2,2024-11-01_14h18.00.415,uWM_experiment,2022.2.3,60.00495641
,,,,,,,,,,,,,,,,,,,,7,0,7,0,5,0,5,0,,,,,,,,,,,,,,,,,,,,,,,,,,,,,,,,,,,,,,,,,,,,,,,,,,,,,,,,,,,,,,,,,,,,,,0.156948767,,,,,,,,,,,,,,,,,,,,,,,,,,,,left,0,100,30,130,1,2642.72535,2642.72535,2642.72535,None,None,1,1,2.0284424,,,,,,,,,,,,,,,,,,,,,,10,12,2,2024-11-01_14h18.00.415,uWM_experiment,2022.2.3,60.00495641
,,,,,,,,,,,,,,,,,,,,7,0,7,0,6,0,6,0,,,,,,,,,,,,,,,,,,,,,,,,,,,,,,,,,,,,,,,,,,,,,,,,,,,,,,,,,,,,,,,,,,,,,,0,,,,,,,,,,,,,,,,,,,,,,,,,,,,left,0,10,30,40,0,2650.742299,2650.742299,2650.742299,None,None,1,1,0.5874874,,,,,,,,,,,,,,,,,,,,,,10,12,2,2024-11-01_14h18.00.415,uWM_experiment,2022.2.3,60.00495641
,,,,,,,,,,,,,,,,,,,,7,0,7,0,7,0,7,0,,,,,,,,,,,,,,,,,,,,,,,,,,,,,,,,,,,,,,,,,,,,,,,,,,,,,,,,,,,,,,,,,,,,,,0.166948767,,,,,,,,,,,,,,,,,,,,,,,,,,,,left,0,130,30,160,1,2657.409214,2657.409214,2657.409214,None,None,2,0,0.6485633,,,,,,,,,,,,,,,,,,,,,,10,12,2,2024-11-01_14h18.00.415,uWM_experiment,2022.2.3,60.00495641
,,,,,,,,,,,,,,,,,,,,7,0,7,0,8,0,8,0,,,,,,,,,,,,,,,,,,,,,,,,,,,,,,,,,,,,,,,,,,,,,,,,,,,,,,,,,,,,,,,,,,,,,,0,,,,,,,,,,,,,,,,,,,,,,,,,,,,left,1,160,-30,130,0,2663.87617,2663.87617,2663.87617,None,None,1,1,0.8135774,,,,,,,,,,,,,,,,,,,,,,10,12,2,2024-11-01_14h18.00.415,uWM_experiment,2022.2.3,60.00495641
,,,,,,,,,,,,,,,,,,,,7,0,7,0,9,0,9,0,,,,,,,,,,,,,,,,,,,,,,,,,,,,,,,,,,,,,,,,,,,,,,,,,,,,,,,,,,,,,,,,,,,,,,0,,,,,,,,,,,,,,,,,,,,,,,,,,,,left,0,40,30,70,0,2670.876458,2670.876458,2670.876458,None,None,2,0,0.4692048,,,,,,,,,,,,,,,,,,,,,,10,12,2,2024-11-01_14h18.00.415,uWM_experiment,2022.2.3,60.00495641
,,,,,,,,,,,,,,,,,,,,7,0,7,0,10,0,10,0,,,,,,,,,,,,,,,,,,,,,,,,,,,,,,,,,,,,,,,,,,,,,,,,,,,,,,,,,,,,,,,,,,,,,,0,,,,,,,,,,,,,,,,,,,,,,,,,,,,left,1,70,-30,40,0,2676.943348,2676.943348,2676.943348,None,None,1,1,0.5384453,,,,,,,,,,,,,,,,,,,,,,10,12,2,2024-11-01_14h18.00.415,uWM_experiment,2022.2.3,60.00495641
,,,,,,,,,,,,,,,,,,,,7,0,7,0,11,0,11,0,,,,,,,,,,,,,,,,,,,,,,,,,,,,,,,,,,,,,,,,,,,,,,,,,,,,,,,,,,,,,,,,,,,,,,0.156948767,,,,,,,,,,,,,,,,,,,,,,,,,,,,left,1,70,-30,40,1,2683.193604,2683.193604,2683.193604,None,None,2,0,0.7601558,,,,,,,,,,,,,,,,,,,,,,10,12,2,2024-11-01_14h18.00.415,uWM_experiment,2022.2.3,60.00495641
,,,,,,,,,,,,,,,,,,,,7,0,7,0,12,0,12,0,,,,,,,,,,,,,,,,,,,,,,,,,,,,,,,,,,,,,,,,,,,,,,,,,,,,,,,,,,,,,,,,,,,,,,0.146948767,,,,,,,,,,,,,,,,,,,,,,,,,,,,left,1,10,-30,-20,1,2689.727197,2689.727197,2689.727197,None,None,2,0,0.6265232,,,,,,,,,,,,,,,,,,,,,,10,12,2,2024-11-01_14h18.00.415,uWM_experiment,2022.2.3,60.00495641
,,,,,,,,,,,,,,,,,,,,7,0,7,0,13,0,13,0,,,,,,,,,,,,,,,,,,,,,,,,,,,,,,,,,,,,,,,,,,,,,,,,,,,,,,,,,,,,,,,,,,,,,,0.136948767,,,,,,,,,,,,,,,,,,,,,,,,,,,,left,1,40,-30,10,1,2696.710808,2696.710808,2696.710808,None,None,1,1,0.9628741,,,,,,,,,,,,,,,,,,,,,,10,12,2,2024-11-01_14h18.00.415,uWM_experiment,2022.2.3,60.00495641
,,,,,,,,,,,,,,,,,,,,7,0,7,0,14,0,14,0,,,,,,,,,,,,,,,,,,,,,,,,,,,,,,,,,,,,,,,,,,,,,,,,,,,,,,,,,,,,,,,,,,,,,,0.146948767,,,,,,,,,,,,,,,,,,,,,,,,,,,,left,0,70,30,100,1,2705.994525,2705.994525,2705.994525,None,None,2,0,0.6231508,,,,,,,,,,,,,,,,,,,,,,10,12,2,2024-11-01_14h18.00.415,uWM_experiment,2022.2.3,60.00495641
,,,,,,,,,,,,,,,,,,,,7,0,7,0,15,0,15,0,,,,,,,,,,,,,,,,,,,,,,,,,,,,,,,,,,,,,,,,,,,,,,,,,,,,,,,,,,,,,,,,,,,,,,0.136948767,,,,,,,,,,,,,,,,,,,,,,,,,,,,left,0,130,30,160,1,2712.278105,2712.278105,2712.278105,None,None,2,0,0.7954902,,,,,,,,,,,,,,,,,,,,,,10,12,2,2024-11-01_14h18.00.415,uWM_experiment,2022.2.3,60.00495641
,,,,,,,,,,,,,,,,,,,,7,0,7,0,16,0,16,0,,,,,,,,,,,,,,,,,,,,,,,,,,,,,,,,,,,,,,,,,,,,,,,,,,,,,,,,,,,,,,,,,,,,,,0.126948767,,,,,,,,,,,,,,,,,,,,,,,,,,,,left,1,10,-30,-20,1,2718.76172,2718.76172,2718.76172,None,None,2,0,0.7999469,,,,,,,,,,,,,,,,,,,,,,10,12,2,2024-11-01_14h18.00.415,uWM_experiment,2022.2.3,60.00495641
,,,,,,,,,,,,,,,,,,,,7,0,7,0,17,0,17,0,,,,,,,,,,,,,,,,,,,,,,,,,,,,,,,,,,,,,,,,,,,,,,,,,,,,,,,,,,,,,,,,,,,,,,0.116948767,,,,,,,,,,,,,,,,,,,,,,,,,,,,left,0,130,30,160,1,2724.96196,2724.96196,2724.96196,None,None,1,1,0.7675004,,,,,,,,,,,,,,,,,,,,,,10,12,2,2024-11-01_14h18.00.415,uWM_experiment,2022.2.3,60.00495641
,,,,,,,,,,,,,,,,,,,,7,0,7,0,18,0,18,0,,,,,,,,,,,,,,,,,,,,,,,,,,,,,,,,,,,,,,,,,,,,,,,,,,,,,,,,,,,,,,,,,,,,,,0.126948767,,,,,,,,,,,,,,,,,,,,,,,,,,,,left,1,10,-30,-20,1,2733.345612,2733.345612,2733.345612,None,None,2,0,0.5919567,,,,,,,,,,,,,,,,,,,,,,10,12,2,2024-11-01_14h18.00.415,uWM_experiment,2022.2.3,60.00495641
,,,,,,,,,,,,,,,,,,,,7,0,7,0,19,0,19,0,,,,,,,,,,,,,,,,,,,,,,,,,,,,,,,,,,,,,,,,,,,,,,,,,,,,,,,,,,,,,,,,,,,,,,0.116948767,,,,,,,,,,,,,,,,,,,,,,,,,,,,left,0,100,30,130,1,2739.529196,2739.529196,2739.529196,None,None,2,0,0.4882655,,,,,,,,,,,,,,,,,,,,,,10,12,2,2024-11-01_14h18.00.415,uWM_experiment,2022.2.3,60.00495641
,,,,,,,,,,,,,,,,,,,,7,0,7,0,20,0,20,0,,,,,,,,,,,,,,,,,,,,,,,,,,,,,,,,,,,,,,,,,,,,,,,,,,,,,,,,,,,,,,,,,,,,,,0.106948767,,,,,,,,,,,,,,,,,,,,,,,,,,,,left,0,130,30,160,1,2745.979438,2745.979438,2745.979438,None,None,1,1,0.6779781,,,,,,,,,,,,,,,,,,,,,,10,12,2,2024-11-01_14h18.00.415,uWM_experiment,2022.2.3,60.00495641
,,,,,,,,,,,,,,,,,,,,7,0,7,0,21,0,21,0,,,,,,,,,,,,,,,,,,,,,,,,,,,,,,,,,,,,,,,,,,,,,,,,,,,,,,,,,,,,,,,,,,,,,,0.116948767,,,,,,,,,,,,,,,,,,,,,,,,,,,,left,0,160,30,190,1,2752.729726,2752.729726,2752.729726,None,None,1,1,1.7356072,,,,,,,,,,,,,,,,,,,,,,10,12,2,2024-11-01_14h18.00.415,uWM_experiment,2022.2.3,60.00495641
,,,,,,,,,,,,,,,,,,,,7,0,7,0,22,0,22,0,,,,,,,,,,,,,,,,,,,,,,,,,,,,,,,,,,,,,,,,,,,,,,,,,,,,,,,,,,,,,,,,,,,,,,0.126948767,,,,,,,,,,,,,,,,,,,,,,,,,,,,left,1,160,-30,130,1,2760.180018,2760.180018,2760.180018,None,None,1,1,1.0853715,,,,,,,,,,,,,,,,,,,,,,10,12,2,2024-11-01_14h18.00.415,uWM_experiment,2022.2.3,60.00495641
,,,,,,,,,,,,,,,,,,,,7,0,7,0,23,0,23,0,,,,,,,,,,,,,,,,,,,,,,,,,,,,,,,,,,,,,,,,,,,,,,,,,,,,,,,,,,,,,,,,,,,,,,0.136948767,,,,,,,,,,,,,,,,,,,,,,,,,,,,right,1,130,30,160,1,2768.24703,2768.24703,2768.24703,None,None,3,0,1.1064213,,,,,,,,,,,,,,,,,,,,,,10,12,2,2024-11-01_14h18.00.415,uWM_experiment,2022.2.3,60.00495641
,,,,,,,,,,,,,,,,,,,,7,0,7,0,,,,,0,0,0,0,,,,,,,,,,,,,,,,,,,,,,,,,,,,,,,,,,,,,,,,,,,,,,,,,,,,,,,,,,,,,,,,,,,,,,,,,,,,,,,,,,,,,,,,,,,,,,,,,,,,,,,,,,,,2769.38038,2769.38038,space,13.2369382,None,None,,,,,,,,,,,,,,,,10,12,2,2024-11-01_14h18.00.415,uWM_experiment,2022.2.3,60.00495641
,,,,,,,,,,,,,,,,,,,,7,0,7,0,,,,,1,0,1,0,,,,,,,,,,,,,,,,,,,,,,,,,,,,,,,,,,,,,,,,,,,,,,,,,,,,,,,,,,,,,,,,,,,,,,,,,,,,,,,,,,,,,,,,,,,,,,,,,,,,,,,,,,,,,,,,,,,,,,,,,,,,,,,,,10,12,2,2024-11-01_14h18.00.415,uWM_experiment,2022.2.3,60.00495641
,,,,,,,,,,,,,,,,,,,,7,0,7,0,,,,,2,0,2,0,,,,,,,,,,,,,,,,,,,,,,,,,,,,,,,,,,,,,,,,,,,,,,,,,,,,,,,,,,,,,,,,,,,,,,,,,,,,,,,,,,,,,,,,,,,,,,,,,,,,,,,,,,,,,,,,,,,,,,,,,,,,,,,,,10,12,2,2024-11-01_14h18.00.415,uWM_experiment,2022.2.3,60.00495641
,,,,,,,,,,,,,,,,,,,,8,0,8,0,0,0,0,0,,,,,,,,,,,,,,,,,,,,,,,,,,,,,,,,,,,,,,,,,,,,,,,,,,,,,,,,,,,,,,,,,,,,,,0.126948767,,,,,,,,,,,,,,,,,,,,2782.647595,2783.34761,2783.647624,2784.347656,2784.647669,2785.347696,2785.347696,2785.664385,left,1,100,-30,70,1,2790.114554,2790.114554,2790.114554,None,None,1,1,3.3506648,,,,,,,None,,,,,,,,,,,,,,,10,12,2,2024-11-01_14h18.00.415,uWM_experiment,2022.2.3,60.00495641
,,,,,,,,,,,,,,,,,,,,8,0,8,0,1,0,1,0,,,,,,,,,,,,,,,,,,,,,,,,,,,,,,,,,,,,,,,,,,,,,,,,,,,,,,,,,,,,,,,,,,,,,,0.136948767,,,,,,,,,,,,,,,,,,,,,,,,,,,,left,1,40,-30,10,1,2799.198253,2799.198253,2799.198253,None,None,2,0,0.4110728,,,,,,,,,,,,,,,,,,,,,,10,12,2,2024-11-01_14h18.00.415,uWM_experiment,2022.2.3,60.00495641
,,,,,,,,,,,,,,,,,,,,8,0,8,0,2,0,2,0,,,,,,,,,,,,,,,,,,,,,,,,,,,,,,,,,,,,,,,,,,,,,,,,,,,,,,,,,,,,,,,,,,,,,,0.126948767,,,,,,,,,,,,,,,,,,,,,,,,,,,,right,1,40,30,70,1,2805.731871,2805.731871,2805.731871,None,None,2,0,2.4852866,,,,,,,,,,,,,,,,,,,,,,10,12,2,2024-11-01_14h18.00.415,uWM_experiment,2022.2.3,60.00495641
,,,,,,,,,,,,,,,,,,,,8,0,8,0,3,0,3,0,,,,,,,,,,,,,,,,,,,,,,,,,,,,,,,,,,,,,,,,,,,,,,,,,,,,,,,,,,,,,,,,,,,,,,0.116948767,,,,,,,,,,,,,,,,,,,,,,,,,,,,left,1,40,-30,10,1,2814.332194,2814.332194,2814.332194,None,None,3,0,3.0529374,,,,,,,,,,,,,,,,,,,,,,10,12,2,2024-11-01_14h18.00.415,uWM_experiment,2022.2.3,60.00495641
,,,,,,,,,,,,,,,,,,,,8,0,8,0,4,0,4,0,,,,,,,,,,,,,,,,,,,,,,,,,,,,,,,,,,,,,,,,,,,,,,,,,,,,,,,,,,,,,,,,,,,,,,0.106948767,,,,,,,,,,,,,,,,,,,,,,,,,,,,right,1,130,30,160,1,2823.599234,2823.599234,2823.599234,None,None,3,0,0.8900207,,,,,,,,,,,,,,,,,,,,,,10,12,2,2024-11-01_14h18.00.415,uWM_experiment,2022.2.3,60.00495641
,,,,,,,,,,,,,,,,,,,,8,0,8,0,5,0,5,0,,,,,,,,,,,,,,,,,,,,,,,,,,,,,,,,,,,,,,,,,,,,,,,,,,,,,,,,,,,,,,,,,,,,,,0.096948767,,,,,,,,,,,,,,,,,,,,,,,,,,,,left,0,100,30,130,1,2830.26621,2830.26621,2830.26621,None,None,1,1,1.1188658,,,,,,,,,,,,,,,,,,,,,,10,12,2,2024-11-01_14h18.00.415,uWM_experiment,2022.2.3,60.00495641
,,,,,,,,,,,,,,,,,,,,8,0,8,0,6,0,6,0,,,,,,,,,,,,,,,,,,,,,,,,,,,,,,,,,,,,,,,,,,,,,,,,,,,,,,,,,,,,,,,,,,,,,,0.106948767,,,,,,,,,,,,,,,,,,,,,,,,,,,,left,0,70,30,100,1,2837.049765,2837.049765,2837.049765,None,None,1,1,1.1673166,,,,,,,,,,,,,,,,,,,,,,10,12,2,2024-11-01_14h18.00.415,uWM_experiment,2022.2.3,60.00495641
,,,,,,,,,,,,,,,,,,,,8,0,8,0,7,0,7,0,,,,,,,,,,,,,,,,,,,,,,,,,,,,,,,,,,,,,,,,,,,,,,,,,,,,,,,,,,,,,,,,,,,,,,0.116948767,,,,,,,,,,,,,,,,,,,,,,,,,,,,left,1,100,-30,70,1,2844.316722,2844.316722,2844.316722,None,None,1,1,1.0123366,,,,,,,,,,,,,,,,,,,,,,10,12,2,2024-11-01_14h18.00.415,uWM_experiment,2022.2.3,60.00495641
,,,,,,,,,,,,,,,,,,,,8,0,8,0,8,0,8,0,,,,,,,,,,,,,,,,,,,,,,,,,,,,,,,,,,,,,,,,,,,,,,,,,,,,,,,,,,,,,,,,,,,,,,0.126948767,,,,,,,,,,,,,,,,,,,,,,,,,,,,right,1,40,30,70,1,2851.750415,2851.750415,2851.750415,None,None,3,0,0.7385911,,,,,,,,,,,,,,,,,,,,,,10,12,2,2024-11-01_14h18.00.415,uWM_experiment,2022.2.3,60.00495641
,,,,,,,,,,,,,,,,,,,,8,0,8,0,9,0,9,0,,,,,,,,,,,,,,,,,,,,,,,,,,,,,,,,,,,,,,,,,,,,,,,,,,,,,,,,,,,,,,,,,,,,,,0,,,,,,,,,,,,,,,,,,,,,,,,,,,,left,1,160,-30,130,0,2858.467286,2858.467286,2858.467286,None,None,1,1,1.3898193,,,,,,,,,,,,,,,,,,,,,,10,12,2,2024-11-01_14h18.00.415,uWM_experiment,2022.2.3,60.00495641
,,,,,,,,,,,,,,,,,,,,8,0,8,0,10,0,10,0,,,,,,,,,,,,,,,,,,,,,,,,,,,,,,,,,,,,,,,,,,,,,,,,,,,,,,,,,,,,,,,,,,,,,,0.116948767,,,,,,,,,,,,,,,,,,,,,,,,,,,,left,1,10,-30,-20,1,2865.217576,2865.217576,2865.217576,None,None,2,0,0.5674282,,,,,,,,,,,,,,,,,,,,,,10,12,2,2024-11-01_14h18.00.415,uWM_experiment,2022.2.3,60.00495641
,,,,,,,,,,,,,,,,,,,,8,0,8,0,11,0,11,0,,,,,,,,,,,,,,,,,,,,,,,,,,,,,,,,,,,,,,,,,,,,,,,,,,,,,,,,,,,,,,,,,,,,,,0.106948767,,,,,,,,,,,,,,,,,,,,,,,,,,,,left,0,160,30,190,1,2871.501183,2871.501183,2871.501183,None,None,2,0,0.7159086,,,,,,,,,,,,,,,,,,,,,,10,12,2,2024-11-01_14h18.00.415,uWM_experiment,2022.2.3,60.00495641
,,,,,,,,,,,,,,,,,,,,8,0,8,0,12,0,12,0,,,,,,,,,,,,,,,,,,,,,,,,,,,,,,,,,,,,,,,,,,,,,,,,,,,,,,,,,,,,,,,,,,,,,,0,,,,,,,,,,,,,,,,,,,,,,,,,,,,left,0,40,30,70,0,2877.951427,2877.951427,2877.951427,None,None,2,0,0.7294833,,,,,,,,,,,,,,,,,,,,,,10,12,2,2024-11-01_14h18.00.415,uWM_experiment,2022.2.3,60.00495641
,,,,,,,,,,,,,,,,,,,,8,0,8,0,13,0,13,0,,,,,,,,,,,,,,,,,,,,,,,,,,,,,,,,,,,,,,,,,,,,,,,,,,,,,,,,,,,,,,,,,,,,,,0.096948767,,,,,,,,,,,,,,,,,,,,,,,,,,,,left,0,10,30,40,1,2885.001719,2885.001719,2885.001719,None,None,2,0,1.3511549,,,,,,,,,,,,,,,,,,,,,,10,12,2,2024-11-01_14h18.00.415,uWM_experiment,2022.2.3,60.00495641
,,,,,,,,,,,,,,,,,,,,8,0,8,0,14,0,14,0,,,,,,,,,,,,,,,,,,,,,,,,,,,,,,,,,,,,,,,,,,,,,,,,,,,,,,,,,,,,,,,,,,,,,,0.086948767,,,,,,,,,,,,,,,,,,,,,,,,,,,,left,1,100,-30,70,1,2892.252007,2892.252007,2892.252007,None,None,1,1,0.6528447,,,,,,,,,,,,,,,,,,,,,,10,12,2,2024-11-01_14h18.00.415,uWM_experiment,2022.2.3,60.00495641
,,,,,,,,,,,,,,,,,,,,8,0,8,0,15,0,15,0,,,,,,,,,,,,,,,,,,,,,,,,,,,,,,,,,,,,,,,,,,,,,,,,,,,,,,,,,,,,,,,,,,,,,,0.096948767,,,,,,,,,,,,,,,,,,,,,,,,,,,,left,0,100,30,130,1,2898.768913,2898.768913,2898.768913,None,None,1,1,1.1359236,,,,,,,,,,,,,,,,,,,,,,10,12,2,2024-11-01_14h18.00.415,uWM_experiment,2022.2.3,60.00495641
,,,,,,,,,,,,,,,,,,,,8,0,8,0,16,0,16,0,,,,,,,,,,,,,,,,,,,,,,,,,,,,,,,,,,,,,,,,,,,,,,,,,,,,,,,,,,,,,,,,,,,,,,0,,,,,,,,,,,,,,,,,,,,,,,,,,,,left,1,100,-30,70,0,2905.785942,2905.785942,2905.785942,None,None,1,1,0.6229452,,,,,,,,,,,,,,,,,,,,,,10,12,2,2024-11-01_14h18.00.415,uWM_experiment,2022.2.3,60.00495641
,,,,,,,,,,,,,,,,,,,,8,0,8,0,17,0,17,0,,,,,,,,,,,,,,,,,,,,,,,,,,,,,,,,,,,,,,,,,,,,,,,,,,,,,,,,,,,,,,,,,,,,,,0.106948767,,,,,,,,,,,,,,,,,,,,,,,,,,,,left,0,40,30,70,1,2912.319452,2912.319452,2912.319452,None,None,1,1,1.529466,,,,,,,,,,,,,,,,,,,,,,10,12,2,2024-11-01_14h18.00.415,uWM_experiment,2022.2.3,60.00495641
,,,,,,,,,,,,,,,,,,,,8,0,8,0,18,0,18,0,,,,,,,,,,,,,,,,,,,,,,,,,,,,,,,,,,,,,,,,,,,,,,,,,,,,,,,,,,,,,,,,,,,,,,0.116948767,,,,,,,,,,,,,,,,,,,,,,,,,,,,left,1,160,-30,130,1,2923.603256,2923.603256,2923.603256,None,None,1,1,1.1816475,,,,,,,,,,,,,,,,,,,,,,10,12,2,2024-11-01_14h18.00.415,uWM_experiment,2022.2.3,60.00495641
,,,,,,,,,,,,,,,,,,,,8,0,8,0,19,0,19,0,,,,,,,,,,,,,,,,,,,,,,,,,,,,,,,,,,,,,,,,,,,,,,,,,,,,,,,,,,,,,,,,,,,,,,0.126948767,,,,,,,,,,,,,,,,,,,,,,,,,,,,left,0,160,30,190,1,2930.970195,2930.970195,2930.970195,None,None,1,1,0.7025296,,,,,,,,,,,,,,,,,,,,,,10,12,2,2024-11-01_14h18.00.415,uWM_experiment,2022.2.3,60.00495641
,,,,,,,,,,,,,,,,,,,,8,0,8,0,20,0,20,0,,,,,,,,,,,,,,,,,,,,,,,,,,,,,,,,,,,,,,,,,,,,,,,,,,,,,,,,,,,,,,,,,,,,,,0.136948767,,,,,,,,,,,,,,,,,,,,,,,,,,,,left,1,10,-30,-20,1,2937.070444,2937.070444,2937.070444,None,None,2,0,1.0423553,,,,,,,,,,,,,,,,,,,,,,10,12,2,2024-11-01_14h18.00.415,uWM_experiment,2022.2.3,60.00495641
,,,,,,,,,,,,,,,,,,,,8,0,8,0,21,0,21,0,,,,,,,,,,,,,,,,,,,,,,,,,,,,,,,,,,,,,,,,,,,,,,,,,,,,,,,,,,,,,,,,,,,,,,0.126948767,,,,,,,,,,,,,,,,,,,,,,,,,,,,left,0,100,30,130,1,2943.754047,2943.754047,2943.754047,None,None,1,1,1.1907795,,,,,,,,,,,,,,,,,,,,,,10,12,2,2024-11-01_14h18.00.415,uWM_experiment,2022.2.3,60.00495641
,,,,,,,,,,,,,,,,,,,,8,0,8,0,22,0,22,0,,,,,,,,,,,,,,,,,,,,,,,,,,,,,,,,,,,,,,,,,,,,,,,,,,,,,,,,,,,,,,,,,,,,,,0.136948767,,,,,,,,,,,,,,,,,,,,,,,,,,,,left,0,130,30,160,1,2950.537666,2950.537666,2950.537666,None,None,1,1,0.6389777,,,,,,,,,,,,,,,,,,,,,,10,12,2,2024-11-01_14h18.00.415,uWM_experiment,2022.2.3,60.00495641
,,,,,,,,,,,,,,,,,,,,8,0,8,0,23,0,23,0,,,,,,,,,,,,,,,,,,,,,,,,,,,,,,,,,,,,,,,,,,,,,,,,,,,,,,,,,,,,,,,,,,,,,,0.146948767,,,,,,,,,,,,,,,,,,,,,,,,,,,,left,0,10,30,40,1,2956.504544,2956.504544,2956.504544,None,None,1,1,0.7122259,,,,,,,,,,,,,,,,,,,,,,10,12,2,2024-11-01_14h18.00.415,uWM_experiment,2022.2.3,60.00495641
,,,,,,,,,,,,,,,,,,,,8,0,8,0,,,,,0,0,0,0,,,,,,,,,,,,,,,,,,,,,,,,,,,,,,,,,,,,,,,,,,,,,,,,,,,,,,,,,,,,,,,,,,,,,,,,,,,,,,,,,,,,,,,,,,,,,,,,,,,,,,,,,,,,2957.237904,2957.237904,space,21.3867769,space,None,,2978.655446,2978.655446,10.8811295,,,,,,,,,,,,10,12,2,2024-11-01_14h18.00.415,uWM_experiment,2022.2.3,60.00495641
,,,,,,,,,,,,,,,,,,,,8,0,8,0,,,,,1,0,1,0,,,,,,,,,,,,,,,,,,,,,,,,,,,,,,,,,,,,,,,,,,,,,,,,,,,,,,,,,,,,,,,,,,,,,,,,,,,,,,,,,,,,,,,,,,,,,,,,,,,,,,,,,,,,,,,,,,,,,,,,,,,,,,,,,10,12,2,2024-11-01_14h18.00.415,uWM_experiment,2022.2.3,60.00495641
,,,,,,,,,,,,,,,,,,,,8,0,8,0,,,,,2,0,2,0,,,,,,,,,,,,,,,,,,,,,,,,,,,,,,,,,,,,,,,,,,,,,,,,,,,,,,,,,,,,,,,,,,,,,,,,,,,,,,,,,,,,,,,,,,,,,,,,,,,,,,,,,,,,,,,,,,,,,,,,,,,,,,,,,10,12,2,2024-11-01_14h18.00.415,uWM_experiment,2022.2.3,60.00495641
,,,,,,,,,,,,,,,,,,,,9,0,9,0,0,0,0,0,,,,,,,,,,,,,,,,,,,,,,,,,,,,,,,,,,,,,,,,,,,,,,,,,,,,,,,,,,,,,,,,,,,,,,0,,,,,,,,,,,,,,,,,,,,2989.555893,2990.255997,2990.555923,2991.256029,2991.556018,2992.256043,2992.256043,2992.572674,left,0,70,30,100,0,2997.156184,2997.156184,2997.156184,None,None,1,1,1.1083023,,,,,,,None,,,,,,,,,,,,,,,10,12,2,2024-11-01_14h18.00.415,uWM_experiment,2022.2.3,60.00495641
,,,,,,,,,,,,,,,,,,,,9,0,9,0,1,0,1,0,,,,,,,,,,,,,,,,,,,,,,,,,,,,,,,,,,,,,,,,,,,,,,,,,,,,,,,,,,,,,,,,,,,,,,0,,,,,,,,,,,,,,,,,,,,,,,,,,,,left,0,130,30,160,0,3004.239835,3004.239835,3004.239835,None,None,1,1,0.6326408,,,,,,,,,,,,,,,,,,,,,,10,12,2,2024-11-01_14h18.00.415,uWM_experiment,2022.2.3,60.00495641
,,,,,,,,,,,,,,,,,,,,9,0,9,0,2,0,2,0,,,,,,,,,,,,,,,,,,,,,,,,,,,,,,,,,,,,,,,,,,,,,,,,,,,,,,,,,,,,,,,,,,,,,,0.156948767,,,,,,,,,,,,,,,,,,,,,,,,,,,,right,1,70,30,100,1,3017.10698,3017.10698,3017.10698,None,None,2,0,0.6054022,,,,,,,,,,,,,,,,,,,,,,10,12,2,2024-11-01_14h18.00.415,uWM_experiment,2022.2.3,60.00495641
,,,,,,,,,,,,,,,,,,,,9,0,9,0,3,0,3,0,,,,,,,,,,,,,,,,,,,,,,,,,,,,,,,,,,,,,,,,,,,,,,,,,,,,,,,,,,,,,,,,,,,,,,0.146948767,,,,,,,,,,,,,,,,,,,,,,,,,,,,left,1,160,-30,130,1,3023.45724,3023.45724,3023.45724,None,None,2,0,0.7431885,,,,,,,,,,,,,,,,,,,,,,10,12,2,2024-11-01_14h18.00.415,uWM_experiment,2022.2.3,60.00495641
,,,,,,,,,,,,,,,,,,,,9,0,9,0,4,0,4,0,,,,,,,,,,,,,,,,,,,,,,,,,,,,,,,,,,,,,,,,,,,,,,,,,,,,,,,,,,,,,,,,,,,,,,0.136948767,,,,,,,,,,,,,,,,,,,,,,,,,,,,left,0,70,30,100,1,3029.890832,3029.890832,3029.890832,None,None,1,1,1.3656013,,,,,,,,,,,,,,,,,,,,,,10,12,2,2024-11-01_14h18.00.415,uWM_experiment,2022.2.3,60.00495641
,,,,,,,,,,,,,,,,,,,,9,0,9,0,5,0,5,0,,,,,,,,,,,,,,,,,,,,,,,,,,,,,,,,,,,,,,,,,,,,,,,,,,,,,,,,,,,,,,,,,,,,,,0.146948767,,,,,,,,,,,,,,,,,,,,,,,,,,,,right,1,10,30,40,1,3039.074557,3039.074557,3039.074557,None,None,2,0,0.6618867,,,,,,,,,,,,,,,,,,,,,,10,12,2,2024-11-01_14h18.00.415,uWM_experiment,2022.2.3,60.00495641
,,,,,,,,,,,,,,,,,,,,9,0,9,0,6,0,6,0,,,,,,,,,,,,,,,,,,,,,,,,,,,,,,,,,,,,,,,,,,,,,,,,,,,,,,,,,,,,,,,,,,,,,,0,,,,,,,,,,,,,,,,,,,,,,,,,,,,left,0,70,30,100,0,3045.541471,3045.541471,3045.541471,None,None,2,0,0.6511126,,,,,,,,,,,,,,,,,,,,,,10,12,2,2024-11-01_14h18.00.415,uWM_experiment,2022.2.3,60.00495641
,,,,,,,,,,,,,,,,,,,,9,0,9,0,7,0,7,0,,,,,,,,,,,,,,,,,,,,,,,,,,,,,,,,,,,,,,,,,,,,,,,,,,,,,,,,,,,,,,,,,,,,,,0,,,,,,,,,,,,,,,,,,,,,,,,,,,,left,1,160,-30,130,0,3051.941778,3051.941778,3051.941778,None,None,1,1,0.8666904,,,,,,,,,,,,,,,,,,,,,,10,12,2,2024-11-01_14h18.00.415,uWM_experiment,2022.2.3,60.00495641
,,,,,,,,,,,,,,,,,,,,9,0,9,0,8,0,8,0,,,,,,,,,,,,,,,,,,,,,,,,,,,,,,,,,,,,,,,,,,,,,,,,,,,,,,,,,,,,,,,,,,,,,,0.136948767,,,,,,,,,,,,,,,,,,,,,,,,,,,,left,0,100,30,130,1,3058.558662,3058.558662,3058.558662,None,None,1,1,0.8815651,,,,,,,,,,,,,,,,,,,,,,10,12,2,2024-11-01_14h18.00.415,uWM_experiment,2022.2.3,60.00495641
,,,,,,,,,,,,,,,,,,,,9,0,9,0,9,0,9,0,,,,,,,,,,,,,,,,,,,,,,,,,,,,,,,,,,,,,,,,,,,,,,,,,,,,,,,,,,,,,,,,,,,,,,0.146948767,,,,,,,,,,,,,,,,,,,,,,,,,,,,left,0,70,30,100,1,3066.075622,3066.075622,3066.075622,None,None,1,1,1.1326709,,,,,,,,,,,,,,,,,,,,,,10,12,2,2024-11-01_14h18.00.415,uWM_experiment,2022.2.3,60.00495641
,,,,,,,,,,,,,,,,,,,,9,0,9,0,10,0,10,0,,,,,,,,,,,,,,,,,,,,,,,,,,,,,,,,,,,,,,,,,,,,,,,,,,,,,,,,,,,,,,,,,,,,,,0.156948767,,,,,,,,,,,,,,,,,,,,,,,,,,,,right,0,40,-30,10,1,3073.692622,3073.692622,3073.692622,None,None,1,1,0.8275545,,,,,,,,,,,,,,,,,,,,,,10,12,2,2024-11-01_14h18.00.415,uWM_experiment,2022.2.3,60.00495641
,,,,,,,,,,,,,,,,,,,,9,0,9,0,11,0,11,0,,,,,,,,,,,,,,,,,,,,,,,,,,,,,,,,,,,,,,,,,,,,,,,,,,,,,,,,,,,,,,,,,,,,,,0.166948767,,,,,,,,,,,,,,,,,,,,,,,,,,,,left,1,70,-30,40,1,3085.943112,3085.943112,3085.943112,None,None,3,0,1.5451357,,,,,,,,,,,,,,,,,,,,,,10,12,2,2024-11-01_14h18.00.415,uWM_experiment,2022.2.3,60.00495641
,,,,,,,,,,,,,,,,,,,,9,0,9,0,12,0,12,0,,,,,,,,,,,,,,,,,,,,,,,,,,,,,,,,,,,,,,,,,,,,,,,,,,,,,,,,,,,,,,,,,,,,,,0,,,,,,,,,,,,,,,,,,,,,,,,,,,,left,0,100,30,130,0,3093.160064,3093.160064,3093.160064,None,None,1,1,1.3040059,,,,,,,,,,,,,,,,,,,,,,10,12,2,2024-11-01_14h18.00.415,uWM_experiment,2022.2.3,60.00495641
,,,,,,,,,,,,,,,,,,,,9,0,9,0,13,0,13,0,,,,,,,,,,,,,,,,,,,,,,,,,,,,,,,,,,,,,,,,,,,,,,,,,,,,,,,,,,,,,,,,,,,,,,0.156948767,,,,,,,,,,,,,,,,,,,,,,,,,,,,left,1,160,-30,130,1,3101.84374,3101.84374,3101.84374,None,None,2,0,0.7564447,,,,,,,,,,,,,,,,,,,,,,10,12,2,2024-11-01_14h18.00.415,uWM_experiment,2022.2.3,60.00495641
,,,,,,,,,,,,,,,,,,,,9,0,9,0,14,0,14,0,,,,,,,,,,,,,,,,,,,,,,,,,,,,,,,,,,,,,,,,,,,,,,,,,,,,,,,,,,,,,,,,,,,,,,0,,,,,,,,,,,,,,,,,,,,,,,,,,,,left,1,10,-30,-20,0,3108.710667,3108.710667,3108.710667,None,None,1,1,0.8573954,,,,,,,,,,,,,,,,,,,,,,10,12,2,2024-11-01_14h18.00.415,uWM_experiment,2022.2.3,60.00495641
,,,,,,,,,,,,,,,,,,,,9,0,9,0,15,0,15,0,,,,,,,,,,,,,,,,,,,,,,,,,,,,,,,,,,,,,,,,,,,,,,,,,,,,,,,,,,,,,,,,,,,,,,0.146948767,,,,,,,,,,,,,,,,,,,,,,,,,,,,left,1,160,-30,130,1,3116.944361,3116.944361,3116.944361,None,None,2,0,3.3116904,,,,,,,,,,,,,,,,,,,,,,10,12,2,2024-11-01_14h18.00.415,uWM_experiment,2022.2.3,60.00495641
,,,,,,,,,,,,,,,,,,,,9,0,9,0,16,0,16,0,,,,,,,,,,,,,,,,,,,,,,,,,,,,,,,,,,,,,,,,,,,,,,,,,,,,,,,,,,,,,,,,,,,,,,0,,,,,,,,,,,,,,,,,,,,,,,,,,,,left,1,100,-30,70,0,3125.928074,3125.928074,3125.928074,None,None,1,1,1.2320256,,,,,,,,,,,,,,,,,,,,,,10,12,2,2024-11-01_14h18.00.415,uWM_experiment,2022.2.3,60.00495641
,,,,,,,,,,,,,,,,,,,,9,0,9,0,17,0,17,0,,,,,,,,,,,,,,,,,,,,,,,,,,,,,,,,,,,,,,,,,,,,,,,,,,,,,,,,,,,,,,,,,,,,,,0.136948767,,,,,,,,,,,,,,,,,,,,,,,,,,,,left,0,130,30,160,1,3132.944978,3132.944978,3132.944978,None,None,2,0,0.8869525,,,,,,,,,,,,,,,,,,,,,,10,12,2,2024-11-01_14h18.00.415,uWM_experiment,2022.2.3,60.00495641
,,,,,,,,,,,,,,,,,,,,9,0,9,0,18,0,18,0,,,,,,,,,,,,,,,,,,,,,,,,,,,,,,,,,,,,,,,,,,,,,,,,,,,,,,,,,,,,,,,,,,,,,,0.126948767,,,,,,,,,,,,,,,,,,,,,,,,,,,,left,1,40,-30,10,1,3140.595295,3140.595295,3140.595295,None,None,2,0,0.756802,,,,,,,,,,,,,,,,,,,,,,10,12,2,2024-11-01_14h18.00.415,uWM_experiment,2022.2.3,60.00495641
,,,,,,,,,,,,,,,,,,,,9,0,9,0,19,0,19,0,,,,,,,,,,,,,,,,,,,,,,,,,,,,,,,,,,,,,,,,,,,,,,,,,,,,,,,,,,,,,,,,,,,,,,0.116948767,,,,,,,,,,,,,,,,,,,,,,,,,,,,left,0,130,30,160,1,3147.162217,3147.162217,3147.162217,None,None,2,0,0.6298374,,,,,,,,,,,,,,,,,,,,,,10,12,2,2024-11-01_14h18.00.415,uWM_experiment,2022.2.3,60.00495641
,,,,,,,,,,,,,,,,,,,,9,0,9,0,20,0,20,0,,,,,,,,,,,,,,,,,,,,,,,,,,,,,,,,,,,,,,,,,,,,,,,,,,,,,,,,,,,,,,,,,,,,,,0.106948767,,,,,,,,,,,,,,,,,,,,,,,,,,,,left,1,100,-30,70,1,3154.162506,3154.162506,3154.162506,None,None,1,1,0.917339,,,,,,,,,,,,,,,,,,,,,,10,12,2,2024-11-01_14h18.00.415,uWM_experiment,2022.2.3,60.00495641
,,,,,,,,,,,,,,,,,,,,9,0,9,0,21,0,21,0,,,,,,,,,,,,,,,,,,,,,,,,,,,,,,,,,,,,,,,,,,,,,,,,,,,,,,,,,,,,,,,,,,,,,,0.116948767,,,,,,,,,,,,,,,,,,,,,,,,,,,,left,1,160,-30,130,1,3160.929441,3160.929441,3160.929441,None,None,1,1,0.6064229,,,,,,,,,,,,,,,,,,,,,,10,12,2,2024-11-01_14h18.00.415,uWM_experiment,2022.2.3,60.00495641
,,,,,,,,,,,,,,,,,,,,9,0,9,0,22,0,22,0,,,,,,,,,,,,,,,,,,,,,,,,,,,,,,,,,,,,,,,,,,,,,,,,,,,,,,,,,,,,,,,,,,,,,,0.126948767,,,,,,,,,,,,,,,,,,,,,,,,,,,,left,1,70,-30,40,1,3167.113029,3167.113029,3167.113029,None,None,1,1,0.5989152,,,,,,,,,,,,,,,,,,,,,,10,12,2,2024-11-01_14h18.00.415,uWM_experiment,2022.2.3,60.00495641
,,,,,,,,,,,,,,,,,,,,9,0,9,0,23,0,23,0,,,,,,,,,,,,,,,,,,,,,,,,,,,,,,,,,,,,,,,,,,,,,,,,,,,,,,,,,,,,,,,,,,,,,,0.136948767,,,,,,,,,,,,,,,,,,,,,,,,,,,,right,1,100,30,130,1,3176.696743,3176.696743,3176.696743,None,None,3,0,0.8151218,,,,,,,,,,,,,,,,,,,,,,10,12,2,2024-11-01_14h18.00.415,uWM_experiment,2022.2.3,60.00495641
,,,,,,,,,,,,,,,,,,,,9,0,9,0,,,,,0,0,0,0,,,,,,,,,,,,,,,,,,,,,,,,,,,,,,,,,,,,,,,,,,,,,,,,,,,,,,,,,,,,,,,,,,,,,,,,,,,,,,,,,,,,,,,,,,,,,,,,,,,,,,,,,,,,3177.530121,3177.530121,space,40.9816647,None,None,,,,,,,,,,,,,,,,10,12,2,2024-11-01_14h18.00.415,uWM_experiment,2022.2.3,60.00495641
,,,,,,,,,,,,,,,,,,,,9,0,9,0,,,,,1,0,1,0,,,,,,,,,,,,,,,,,,,,,,,,,,,,,,,,,,,,,,,,,,,,,,,,,,,,,,,,,,,,,,,,,,,,,,,,,,,,,,,,,,,,,,,,,,,,,,,,,,,,,,,,,,,,,,,,,,,,,,,,,,,,,,,,,10,12,2,2024-11-01_14h18.00.415,uWM_experiment,2022.2.3,60.00495641
,,,,,,,,,,,,,,,,,,,,9,0,9,0,,,,,2,0,2,0,,,,,,,,,,,,,,,,,,,,,,,,,,,,,,,,,,,,,,,,,,,,,,,,,,,,,,,,,,,,,,,,,,,,,,,,,,,,,,,,,,,,,,,,,,,,,,,,,,,,,,,,,,,,,,,,,,,,,,,,,,,,,,,,,10,12,2,2024-11-01_14h18.00.415,uWM_experiment,2022.2.3,60.00495641
,,,,,,,,,,,,,,,,,,,,10,0,10,0,0,0,0,0,,,,,,,,,,,,,,,,,,,,,,,,,,,,,,,,,,,,,,,,,,,,,,,,,,,,,,,,,,,,,,,,,,,,,,0.126948767,,,,,,,,,,,,,,,,,,,,3218.53176,3219.231762,3219.531803,3220.231884,3220.531843,3221.231865,3221.231865,3221.548544,left,1,70,-30,40,1,3226.598744,3226.598744,3226.598744,None,None,1,1,1.3528203,,,,,,,None,,,,,,,,,,,,,,,10,12,2,2024-11-01_14h18.00.415,uWM_experiment,2022.2.3,60.00495641
,,,,,,,,,,,,,,,,,,,,10,0,10,0,1,0,1,0,,,,,,,,,,,,,,,,,,,,,,,,,,,,,,,,,,,,,,,,,,,,,,,,,,,,,,,,,,,,,,,,,,,,,,0.136948767,,,,,,,,,,,,,,,,,,,,,,,,,,,,left,1,10,-30,-20,1,3233.649029,3233.649029,3233.649029,None,None,2,0,0.5747191,,,,,,,,,,,,,,,,,,,,,,10,12,2,2024-11-01_14h18.00.415,uWM_experiment,2022.2.3,60.00495641
,,,,,,,,,,,,,,,,,,,,10,0,10,0,2,0,2,0,,,,,,,,,,,,,,,,,,,,,,,,,,,,,,,,,,,,,,,,,,,,,,,,,,,,,,,,,,,,,,,,,,,,,,0.126948767,,,,,,,,,,,,,,,,,,,,,,,,,,,,left,0,100,30,130,1,3240.132628,3240.132628,3240.132628,None,None,2,0,0.66709,,,,,,,,,,,,,,,,,,,,,,10,12,2,2024-11-01_14h18.00.415,uWM_experiment,2022.2.3,60.00495641
,,,,,,,,,,,,,,,,,,,,10,0,10,0,3,0,3,0,,,,,,,,,,,,,,,,,,,,,,,,,,,,,,,,,,,,,,,,,,,,,,,,,,,,,,,,,,,,,,,,,,,,,,0,,,,,,,,,,,,,,,,,,,,,,,,,,,,left,0,160,30,190,0,3246.549569,3246.549569,3246.549569,None,None,1,1,1.2420153,,,,,,,,,,,,,,,,,,,,,,10,12,2,2024-11-01_14h18.00.415,uWM_experiment,2022.2.3,60.00495641
,,,,,,,,,,,,,,,,,,,,10,0,10,0,4,0,4,0,,,,,,,,,,,,,,,,,,,,,,,,,,,,,,,,,,,,,,,,,,,,,,,,,,,,,,,,,,,,,,,,,,,,,,0.116948767,,,,,,,,,,,,,,,,,,,,,,,,,,,,left,1,160,-30,130,1,3253.766533,3253.766533,3253.766533,None,None,1,1,0.5369334,,,,,,,,,,,,,,,,,,,,,,10,12,2,2024-11-01_14h18.00.415,uWM_experiment,2022.2.3,60.00495641
,,,,,,,,,,,,,,,,,,,,10,0,10,0,5,0,5,0,,,,,,,,,,,,,,,,,,,,,,,,,,,,,,,,,,,,,,,,,,,,,,,,,,,,,,,,,,,,,,,,,,,,,,0.126948767,,,,,,,,,,,,,,,,,,,,,,,,,,,,right,1,70,30,100,1,3264.06696,3264.06696,3264.06696,None,None,2,0,0.6125556,,,,,,,,,,,,,,,,,,,,,,10,12,2,2024-11-01_14h18.00.415,uWM_experiment,2022.2.3,60.00495641
,,,,,,,,,,,,,,,,,,,,10,0,10,0,6,0,6,0,,,,,,,,,,,,,,,,,,,,,,,,,,,,,,,,,,,,,,,,,,,,,,,,,,,,,,,,,,,,,,,,,,,,,,0,,,,,,,,,,,,,,,,,,,,,,,,,,,,left,1,70,-30,40,0,3270.31718,3270.31718,3270.31718,None,None,1,1,1.2342078,,,,,,,,,,,,,,,,,,,,,,10,12,2,2024-11-01_14h18.00.415,uWM_experiment,2022.2.3,60.00495641
,,,,,,,,,,,,,,,,,,,,10,0,10,0,7,0,7,0,,,,,,,,,,,,,,,,,,,,,,,,,,,,,,,,,,,,,,,,,,,,,,,,,,,,,,,,,,,,,,,,,,,,,,0,,,,,,,,,,,,,,,,,,,,,,,,,,,,left,0,100,30,130,0,3277.484138,3277.484138,3277.484138,None,None,2,0,0.563413,,,,,,,,,,,,,,,,,,,,,,10,12,2,2024-11-01_14h18.00.415,uWM_experiment,2022.2.3,60.00495641
