PreTrainingPAS4_loop.thisRepN,PreTrainingPAS4_loop.thisTrialN,PreTrainingPAS4_loop.thisN,PreTrainingPAS4_loop.thisIndex,PreTrainingPAS1_loop.thisRepN,PreTrainingPAS1_loop.thisTrialN,PreTrainingPAS1_loop.thisN,PreTrainingPAS1_loop.thisIndex,RepeatCV_loop.thisRepN,RepeatCV_loop.thisTrialN,RepeatCV_loop.thisN,RepeatCV_loop.thisIndex,TrainingCV_loop.thisRepN,TrainingCV_loop.thisTrialN,TrainingCV_loop.thisN,TrainingCV_loop.thisIndex,TrainingCAL_loop.thisRepN,TrainingCAL_loop.thisTrialN,TrainingCAL_loop.thisN,TrainingCAL_loop.thisIndex,blocks_loop.thisRepN,blocks_loop.thisTrialN,blocks_loop.thisN,blocks_loop.thisIndex,trials_loop.thisRepN,trials_loop.thisTrialN,trials_loop.thisN,trials_loop.thisIndex,TrainingPAS1_loop.thisRepN,TrainingPAS1_loop.thisTrialN,TrainingPAS1_loop.thisN,TrainingPAS1_loop.thisIndex,spacebarWelcome0.started,spacebarWelcome0.keys,spacebarWelcome0.rt,spacebarWelcome1.started,gaborWelcome1.started,maskWelcome1.started,textMaskWelcome1.started,spacebarWelcome1.keys,spacebarWelcome1.rt,spacebarWelcome2.started,spacebarWelcome2.keys,spacebarWelcome2.rt,textInst_PreTrainingPAS4.started,spacebarPreTrainingPAS4.started,spacebarPreTrainingPAS4.keys,spacebarPreTrainingPAS4.rt,textPreTrainingPAS1.started,spacebarPreTrainingPAS1.started,spacebarPreTrainingPAS1.keys,spacebarPreTrainingPAS1.rt,textQUEST0.started,spacebarQUEST0.started,spacebarQUEST0.keys,spacebarQUEST0.rt,spacebar0.started,spacebar0.keys,spacebar0.rt,spacebar1.started,spacebar1.keys,spacebar1.rt,textInstructions2.started,spacebar2.started,Gabor1Inst2.started,Gabor2Inst2.started,Gabor3Inst2.started,Gabor4Inst2.started,spacebar2.keys,spacebar2.rt,textInstructionsPAS.started,spacebarInstPAS.started,spacebarInstPAS.keys,spacebarInstPAS.rt,textInstructions3.started,spacebar3.started,spacebar3.keys,spacebar3.rt,WMresp_CV,WMresp_CV_acc,oriMemo_CV,gyre_CV,oriTest_CV,feedbackText.started,sliderCV.started,PAStextCV.started,PASkeyCV.started,sliderCV.response,sliderCV.rt,PASkeyCV.keys,PASkeyCV.corr,PASkeyCV.rt,feedbackText.stopped,TextInstructionsCAL.started,spacebarCAL.started,spacebarCAL.keys,spacebarCAL.rt,contrast,WMresp_CAL,WMresp_CAL_acc,oriMemo_CAL,gyre_CAL,oriTest_CAL,cue_CAL,sliderCAL.started,PAStextCAL.started,PASkeyCAL.started,sliderCAL.response,sliderCAL.rt,PASkeyCAL.keys,PASkeyCAL.corr,PASkeyCAL.rt,propUnseen_CAL,textStart.started,spacebar4.started,spacebar4.keys,spacebar4.rt,three.started,three.stopped,two.started,two.stopped,one.started,one.stopped,blank_countdown.started,blank_countdown.stopped,WMresp,WMresp_acc,oriMemo,gyre,oriTest,cue,slider.started,textPAS_firstGabor.started,PASkey.started,slider.response,slider.rt,PASkey.keys,PASkey.corr,PASkey.rt,spacebarContinue.started,textBreak.started,spacebarContinue.keys,spacebarContinue.rt,spacebar_reminder.keys,spacebar_TrainingPAS1.keys,spacebar_endpractice.keys,spacebar_reminder.started,textReminder.started,spacebar_reminder.rt,textInst_TrainingPAS1.started,spacebar_TrainingPAS1.started,spacebar_TrainingPAS1.rt,textend_practicePAS1.started,spacebar_endpractice.started,spacebar_endpractice.rt,textThanks.started,textThanks.stopped,laboratory,participant,session,date,expName,psychopyVersion,frameRate
,,,,,,,,,,,,,,,,,,,,,,,,,,,,,,,,941.2462307,space,2.1820144,,,,,,,,,,,,,,,,,,,,,,,,,,,,,,,,,,,,,,,,,,,,,,,,,,,,,,,,,,,,,,,,,,,,,,,,,,,,,,,,,,,,,,,,,,,,,,,,,,,,,,,,,,,,,,,,,,,,,,,,,,,10,13,1,2024-10-28_12h07.22.819,uWM_experiment,2022.2.3,59.99383264
,,,,,,,,,,,,,,,,,,,,,,,,,,,,,,,,,,,943.4627718,943.4627718,943.4627718,943.4627718,space,29.5492321,,,,,,,,,,,,,,,,,,,,,,,,,,,,,,,,,,,,,,,,,,,,,,,,,,,,,,,,,,,,,,,,,,,,,,,,,,,,,,,,,,,,,,,,,,,,,,,,,,,,,,,,,,,,,,,,,,,,,10,13,1,2024-10-28_12h07.22.819,uWM_experiment,2022.2.3,59.99383264
,,,,,,,,,,,,,,,,,,,,,,,,,,,,,,,,,,,,,,,,,973.0305861,space,24.7732983,,,,,,,,,,,,,,,,,,,,,,,,,,,,,,,,,,,,,,,,,,,,,,,,,,,,,,,,,,,,,,,,,,,,,,,,,,,,,,,,,,,,,,,,,,,,,,,,,,,,,,,,,,,,,,,,,,10,13,1,2024-10-28_12h07.22.819,uWM_experiment,2022.2.3,59.99383264
,,,,,,,,,,,,,,,,,,,,,,,,,,,,,,,,,,,,,,,,,,,,997.8315852,997.8315852,space,13.3562785,,,,,,,,,,,,,,,,,,,,,,,,,,,,,,,,,,,,,,,,,,,,,,,,,,,,,,,,,,,,,,,,,,,,,,,,,,,,,,,,,,,,,,,,,,,,,,,,,,,,,,,,,,,,,,10,13,1,2024-10-28_12h07.22.819,uWM_experiment,2022.2.3,59.99383264
0,0,0,0,,,,,,,,,,,,,,,,,,,,,,,,,,,,,,,,,,,,,,,,,,,,,,,,,,,,,,,,,,,,,,,,,,,,,,,,,,,,,,,,,,,,,,,,,,,,,,,,,,,,,,,,,,,,,,,,,,,,,,,,,,,,,,,,,,,,,,,,,,,,,,,,,,,,,,,,,,10,13,1,2024-10-28_12h07.22.819,uWM_experiment,2022.2.3,59.99383264
1,0,1,0,,,,,,,,,,,,,,,,,,,,,,,,,,,,,,,,,,,,,,,,,,,,,,,,,,,,,,,,,,,,,,,,,,,,,,,,,,,,,,,,,,,,,,,,,,,,,,,,,,,,,,,,,,,,,,,,,,,,,,,,,,,,,,,,,,,,,,,,,,,,,,,,,,,,,,,,,,10,13,1,2024-10-28_12h07.22.819,uWM_experiment,2022.2.3,59.99383264
2,0,2,0,,,,,,,,,,,,,,,,,,,,,,,,,,,,,,,,,,,,,,,,,,,,,,,,,,,,,,,,,,,,,,,,,,,,,,,,,,,,,,,,,,,,,,,,,,,,,,,,,,,,,,,,,,,,,,,,,,,,,,,,,,,,,,,,,,,,,,,,,,,,,,,,,,,,,,,,,,10,13,1,2024-10-28_12h07.22.819,uWM_experiment,2022.2.3,59.99383264
,,,,,,,,,,,,,,,,,,,,,,,,,,,,,,,,,,,,,,,,,,,,,,,,1020.082443,1020.082443,space,19.9293562,,,,,,,,,,,,,,,,,,,,,,,,,,,,,,,,,,,,,,,,,,,,,,,,,,,,,,,,,,,,,,,,,,,,,,,,,,,,,,,,,,,,,,,,,,,,,,,,,,,,,,,,,,10,13,1,2024-10-28_12h07.22.819,uWM_experiment,2022.2.3,59.99383264
,,,,0,0,0,0,,,,,,,,,,,,,,,,,,,,,,,,,,,,,,,,,,,,,,,,,,,,,,,,,,,,,,,,,,,,,,,,,,,,,,,,,,,,,,,,,,,,,,,,,,,,,,,,,,,,,,,,,,,,,,,,,,,,,,,,,,,,,,,,,,,,,,,,,,,,,,,,,,,,,,10,13,1,2024-10-28_12h07.22.819,uWM_experiment,2022.2.3,59.99383264
,,,,1,0,1,0,,,,,,,,,,,,,,,,,,,,,,,,,,,,,,,,,,,,,,,,,,,,,,,,,,,,,,,,,,,,,,,,,,,,,,,,,,,,,,,,,,,,,,,,,,,,,,,,,,,,,,,,,,,,,,,,,,,,,,,,,,,,,,,,,,,,,,,,,,,,,,,,,,,,,,10,13,1,2024-10-28_12h07.22.819,uWM_experiment,2022.2.3,59.99383264
,,,,2,0,2,0,,,,,,,,,,,,,,,,,,,,,,,,,,,,,,,,,,,,,,,,,,,,,,,,,,,,,,,,,,,,,,,,,,,,,,,,,,,,,,,,,,,,,,,,,,,,,,,,,,,,,,,,,,,,,,,,,,,,,,,,,,,,,,,,,,,,,,,,,,,,,,,,,,,,,,10,13,1,2024-10-28_12h07.22.819,uWM_experiment,2022.2.3,59.99383264
,,,,,,,,,,,,,,,,,,,,,,,,,,,,,,,,,,,,,,,,,,,,,,,,,,,,1046.583461,1046.583461,space,41.6921316,,,,,,,,,,,,,,,,,,,,,,,,,,,,,,,,,,,,,,,,,,,,,,,,,,,,,,,,,,,,,,,,,,,,,,,,,,,,,,,,,,,,,,,,,,,,,,,,,,,,,,10,13,1,2024-10-28_12h07.22.819,uWM_experiment,2022.2.3,59.99383264
,,,,,,,,,,,,,,,,,,,,,,,,,,,,,,,,,,,,,,,,,,,,,,,,,,,,,,,,1203.039686,space,4.4673417,,,,,,,,,,,,,,,,,,,,,,,,,,,,,,,,,,,,,,,,,,,,,,,,,,,,,,,,,,,,,,,,,,,,,,,,,,,,,,,,,,,,,,,,,,,,,,,,,,,10,13,1,2024-10-28_12h07.22.819,uWM_experiment,2022.2.3,59.99383264
,,,,,,,,,,,,,,,,,,,,,,,,,,,,,,,,,,,,,,,,,,,,,,,,,,,,,,,,,,,1207.539849,space,47.270973,,,,,,,,,,,,,,,,,,,,,,,,,,,,,,,,,,,,,,,,,,,,,,,,,,,,,,,,,,,,,,,,,,,,,,,,,,,,,,,,,,,,,,,,,,,,,,,,10,13,1,2024-10-28_12h07.22.819,uWM_experiment,2022.2.3,59.99383264
,,,,,,,,,,,,,,,,,,,,,,,,,,,,,,,,,,,,,,,,,,,,,,,,,,,,,,,,,,,,,,1254.841707,1254.841707,1254.841707,1254.841707,1254.841707,1254.841707,space,48.5368167,,,,,,,,,,,,,,,,,,,,,,,,,,,,,,,,,,,,,,,,,,,,,,,,,,,,,,,,,,,,,,,,,,,,,,,,,,,,,,,,,,,,,,,,10,13,1,2024-10-28_12h07.22.819,uWM_experiment,2022.2.3,59.99383264
,,,,,,,,,,,,,,,,,,,,,,,,,,,,,,,,,,,,,,,,,,,,,,,,,,,,,,,,,,,,,,,,,,,,,,1303.410311,1303.410311,space,6.1762235,,,,,,,,,,,,,,,,,,,,,,,,,,,,,,,,,,,,,,,,,,,,,,,,,,,,,,,,,,,,,,,,,,,,,,,,,,,,,,,,,,,,10,13,1,2024-10-28_12h07.22.819,uWM_experiment,2022.2.3,59.99383264
,,,,,,,,,,,,,,,,,,,,,,,,,,,,,,,,,,,,,,,,,,,,,,,,,,,,,,,,,,,,,,,,,,,,,,,,,,1309.610551,1309.610551,space,5.4399238,,,,,,,,,,,,,,,,,,,,,,,,,,,,,,,,,,,,,,,,,,,,,,,,,,,,,,,,,,,,,,,,,,,,,,,,,,,,,,,,10,13,1,2024-10-28_12h07.22.819,uWM_experiment,2022.2.3,59.99383264
,,,,,,,,0,0,0,0,0,0,0,0,,,,,,,,,,,,,,,,,,,,,,,,,,,,,,,,,,,,,,,,,,,,,,,,,,,,,,,,,,,,,,,left,1,130,-30,100,1320.560994,1321.561026,1321.561026,1321.561026,None,None,2,0,3.8414559,,,,,,,,,,,,,,,,,,,,,,,,,,,,,,,,,,,,,,,,,,,,,,,,,,,,,,,,,,,,,,,,,,10,13,1,2024-10-28_12h07.22.819,uWM_experiment,2022.2.3,59.99383264
,,,,,,,,0,0,0,0,1,0,1,0,,,,,,,,,,,,,,,,,,,,,,,,,,,,,,,,,,,,,,,,,,,,,,,,,,,,,,,,,,,,,,,left,0,160,30,190,1332.078115,1333.078152,1333.078152,1333.078152,None,None,2,0,1.0602338,1333.078152,,,,,,,,,,,,,,,,,,,,,,,,,,,,,,,,,,,,,,,,,,,,,,,,,,,,,,,,,,,,,,,,,10,13,1,2024-10-28_12h07.22.819,uWM_experiment,2022.2.3,59.99383264
,,,,,,,,0,0,0,0,2,0,2,0,,,,,,,,,,,,,,,,,,,,,,,,,,,,,,,,,,,,,,,,,,,,,,,,,,,,,,,,,,,,,,,left,1,160,-30,130,1341.428487,1342.428539,1342.428539,1342.428539,None,None,2,0,0.8778521,,,,,,,,,,,,,,,,,,,,,,,,,,,,,,,,,,,,,,,,,,,,,,,,,,,,,,,,,,,,,,,,,,10,13,1,2024-10-28_12h07.22.819,uWM_experiment,2022.2.3,59.99383264
,,,,,,,,0,0,0,0,3,0,3,0,,,,,,,,,,,,,,,,,,,,,,,,,,,,,,,,,,,,,,,,,,,,,,,,,,,,,,,,,,,,,,,right,0,100,-30,70,1349.312132,1350.312189,1350.312189,1350.312189,None,None,2,0,1.1379707,1350.312189,,,,,,,,,,,,,,,,,,,,,,,,,,,,,,,,,,,,,,,,,,,,,,,,,,,,,,,,,,,,,,,,,10,13,1,2024-10-28_12h07.22.819,uWM_experiment,2022.2.3,59.99383264
,,,,,,,,0,0,0,0,4,0,4,0,,,,,,,,,,,,,,,,,,,,,,,,,,,,,,,,,,,,,,,,,,,,,,,,,,,,,,,,,,,,,,,left,1,160,-30,130,1357.679156,1358.679164,1358.679164,1358.679164,None,None,2,0,1.8591995,1358.679164,,,,,,,,,,,,,,,,,,,,,,,,,,,,,,,,,,,,,,,,,,,,,,,,,,,,,,,,,,,,,,,,,10,13,1,2024-10-28_12h07.22.819,uWM_experiment,2022.2.3,59.99383264
,,,,,,,,0,0,0,0,5,0,5,0,,,,,,,,,,,,,,,,,,,,,,,,,,,,,,,,,,,,,,,,,,,,,,,,,,,,,,,,,,,,,,,right,1,10,30,40,1366.379474,1367.379509,1367.379509,1367.379509,None,None,1,1,0.646624,1367.379509,,,,,,,,,,,,,,,,,,,,,,,,,,,,,,,,,,,,,,,,,,,,,,,,,,,,,,,,,,,,,,,,,10,13,1,2024-10-28_12h07.22.819,uWM_experiment,2022.2.3,59.99383264
,,,,,,,,0,0,0,0,6,0,6,0,,,,,,,,,,,,,,,,,,,,,,,,,,,,,,,,,,,,,,,,,,,,,,,,,,,,,,,,,,,,,,,left,1,160,-30,130,1374.079742,1375.079821,1375.079821,1375.079821,None,None,3,0,6.7143434,1375.079821,,,,,,,,,,,,,,,,,,,,,,,,,,,,,,,,,,,,,,,,,,,,,,,,,,,,,,,,,,,,,,,,,10,13,1,2024-10-28_12h07.22.819,uWM_experiment,2022.2.3,59.99383264
,,,,,,,,0,0,0,0,7,0,7,0,,,,,,,,,,,,,,,,,,,,,,,,,,,,,,,,,,,,,,,,,,,,,,,,,,,,,,,,,,,,,,,right,1,40,30,70,1387.813657,1388.813698,1388.813698,1388.813698,None,None,4,0,4.9164525,1388.813698,,,,,,,,,,,,,,,,,,,,,,,,,,,,,,,,,,,,,,,,,,,,,,,,,,,,,,,,,,,,,,,,,10,13,1,2024-10-28_12h07.22.819,uWM_experiment,2022.2.3,59.99383264
,,,,,,,,0,0,0,0,8,0,8,0,,,,,,,,,,,,,,,,,,,,,,,,,,,,,,,,,,,,,,,,,,,,,,,,,,,,,,,,,,,,,,,left,0,130,30,160,1399.764123,1400.764166,1400.764166,1400.764166,None,None,3,0,1.1418238,,,,,,,,,,,,,,,,,,,,,,,,,,,,,,,,,,,,,,,,,,,,,,,,,,,,,,,,,,,,,,,,,,10,13,1,2024-10-28_12h07.22.819,uWM_experiment,2022.2.3,59.99383264
,,,,,,,,0,0,0,0,9,0,9,0,,,,,,,,,,,,,,,,,,,,,,,,,,,,,,,,,,,,,,,,,,,,,,,,,,,,,,,,,,,,,,,right,0,40,-30,10,1407.897775,1408.897861,1408.897861,1408.897861,None,None,2,0,0.6081545,1408.897861,,,,,,,,,,,,,,,,,,,,,,,,,,,,,,,,,,,,,,,,,,,,,,,,,,,,,,,,,,,,,,,,,10,13,1,2024-10-28_12h07.22.819,uWM_experiment,2022.2.3,59.99383264
,,,,,,,,0,0,0,0,10,0,10,0,,,,,,,,,,,,,,,,,,,,,,,,,,,,,,,,,,,,,,,,,,,,,,,,,,,,,,,,,,,,,,,left,0,100,30,130,1415.414739,1416.414795,1416.414795,1416.414795,None,None,2,0,0.8751859,1416.414795,,,,,,,,,,,,,,,,,,,,,,,,,,,,,,,,,,,,,,,,,,,,,,,,,,,,,,,,,,,,,,,,,10,13,1,2024-10-28_12h07.22.819,uWM_experiment,2022.2.3,59.99383264
,,,,,,,,0,0,0,0,11,0,11,0,,,,,,,,,,,,,,,,,,,,,,,,,,,,,,,,,,,,,,,,,,,,,,,,,,,,,,,,,,,,,,,right,1,10,30,40,1423.481766,1424.481836,1424.481836,1424.481836,None,None,3,0,2.5839686,1424.481836,,,,,,,,,,,,,,,,,,,,,,,,,,,,,,,,,,,,,,,,,,,,,,,,,,,,,,,,,,,,,,,,,10,13,1,2024-10-28_12h07.22.819,uWM_experiment,2022.2.3,59.99383264
,,,,,,,,0,0,0,0,,,,,,,,,,,,,,,,,,,,,,,,,,,,,,,,,,,,,,,,,,,,,,,,,,,,,,,,,,,,,,,,,,,,,,,,,,,,,,,,,,,,,,,,,,,,,,,,,,,,,,,,,,,,,,,,,,,,,,,,,,,,,,,,,,,,,,,,,,,,,,,,,,10,13,1,2024-10-28_12h07.22.819,uWM_experiment,2022.2.3,59.99383264
,,,,,,,,,,,,,,,,,,,,,,,,,,,,,,,,,,,,,,,,,,,,,,,,,,,,,,,,,,,,,,,,,,,,,,,,,,,,,,,,,,,,,,,,,,,,,1436.048919,1436.048919,space,4.7770314,,,,,,,,,,,,,,,,,,,,,,,,,,,,,,,,,,,,,,,,,,,,,,,,,,,,,,,,,,,,,10,13,1,2024-10-28_12h07.22.819,uWM_experiment,2022.2.3,59.99383264
,,,,,,,,,,,,,,,,0,0,0,0,,,,,,,,,,,,,,,,,,,,,,,,,,,,,,,,,,,,,,,,,,,,,,,,,,,,,,,,,,,,,,,,,,,,,,,,,,,,,,0.078150869,right,1,40,30,70,1,1447.299383,1447.299383,1447.299383,None,None,2,0,1.1424745,,,,,,,,,,,,,,,,,,,,,,,,,,,,,,,,,,,,,,,,,,,,,,10,13,1,2024-10-28_12h07.22.819,uWM_experiment,2022.2.3,59.99383264
,,,,,,,,,,,,,,,,1,0,1,0,,,,,,,,,,,,,,,,,,,,,,,,,,,,,,,,,,,,,,,,,,,,,,,,,,,,,,,,,,,,,,,,,,,,,,,,,,,,,,0.068150869,left,1,160,-30,130,1,1454.616315,1454.616315,1454.616315,None,None,2,0,1.6014016,0,,,,,,,,,,,,,,,,,,,,,,,,,,,,,,,,,,,,,,,,,,,,,10,13,1,2024-10-28_12h07.22.819,uWM_experiment,2022.2.3,59.99383264
,,,,,,,,,,,,,,,,2,0,2,0,,,,,,,,,,,,,,,,,,,,,,,,,,,,,,,,,,,,,,,,,,,,,,,,,,,,,,,,,,,,,,,,,,,,,,,,,,,,,,0.1,right,0,40,-30,10,2,1463.049974,1463.049974,1463.049974,None,None,3,0,1.3598363,0,,,,,,,,,,,,,,,,,,,,,,,,,,,,,,,,,,,,,,,,,,,,,10,13,1,2024-10-28_12h07.22.819,uWM_experiment,2022.2.3,59.99383264
,,,,,,,,,,,,,,,,3,0,3,0,,,,,,,,,,,,,,,,,,,,,,,,,,,,,,,,,,,,,,,,,,,,,,,,,,,,,,,,,,,,,,,,,,,,,,,,,,,,,,0.1,right,1,130,30,160,2,1471.883877,1471.883877,1471.883877,None,None,2,0,1.0297591,0,,,,,,,,,,,,,,,,,,,,,,,,,,,,,,,,,,,,,,,,,,,,,10,13,1,2024-10-28_12h07.22.819,uWM_experiment,2022.2.3,59.99383264
,,,,,,,,,,,,,,,,4,0,4,0,,,,,,,,,,,,,,,,,,,,,,,,,,,,,,,,,,,,,,,,,,,,,,,,,,,,,,,,,,,,,,,,,,,,,,,,,,,,,,0.058150869,left,1,130,-30,100,1,1479.867306,1479.867306,1479.867306,None,None,3,0,1.2783418,0,,,,,,,,,,,,,,,,,,,,,,,,,,,,,,,,,,,,,,,,,,,,,10,13,1,2024-10-28_12h07.22.819,uWM_experiment,2022.2.3,59.99383264
,,,,,,,,,,,,,,,,5,0,5,0,,,,,,,,,,,,,,,,,,,,,,,,,,,,,,,,,,,,,,,,,,,,,,,,,,,,,,,,,,,,,,,,,,,,,,,,,,,,,,0.048150869,right,1,10,30,40,1,1489.001017,1489.001017,1489.001017,None,None,1,1,2.6166645,0,,,,,,,,,,,,,,,,,,,,,,,,,,,,,,,,,,,,,,,,,,,,,10,13,1,2024-10-28_12h07.22.819,uWM_experiment,2022.2.3,59.99383264
,,,,,,,,,,,,,,,,6,0,6,0,,,,,,,,,,,,,,,,,,,,,,,,,,,,,,,,,,,,,,,,,,,,,,,,,,,,,,,,,,,,,,,,,,,,,,,,,,,,,,0.1,right,1,160,30,190,2,1499.684752,1499.684752,1499.684752,None,None,2,0,1.1088187,0.166666667,,,,,,,,,,,,,,,,,,,,,,,,,,,,,,,,,,,,,,,,,,,,,10,13,1,2024-10-28_12h07.22.819,uWM_experiment,2022.2.3,59.99383264
,,,,,,,,,,,,,,,,7,0,7,0,,,,,,,,,,,,,,,,,,,,,,,,,,,,,,,,,,,,,,,,,,,,,,,,,,,,,,,,,,,,,,,,,,,,,,,,,,,,,,0.1,left,0,70,30,100,2,1507.968435,1507.968435,1507.968435,None,None,3,0,1.5291271,0.142857143,,,,,,,,,,,,,,,,,,,,,,,,,,,,,,,,,,,,,,,,,,,,,10,13,1,2024-10-28_12h07.22.819,uWM_experiment,2022.2.3,59.99383264
,,,,,,,,,,,,,,,,8,0,8,0,,,,,,,,,,,,,,,,,,,,,,,,,,,,,,,,,,,,,,,,,,,,,,,,,,,,,,,,,,,,,,,,,,,,,,,,,,,,,,0.058150869,right,0,100,-30,70,1,1515.718758,1515.718758,1515.718758,None,None,2,0,1.5067826,0.125,,,,,,,,,,,,,,,,,,,,,,,,,,,,,,,,,,,,,,,,,,,,,10,13,1,2024-10-28_12h07.22.819,uWM_experiment,2022.2.3,59.99383264
,,,,,,,,,,,,,,,,9,0,9,0,,,,,,,,,,,,,,,,,,,,,,,,,,,,,,,,,,,,,,,,,,,,,,,,,,,,,,,,,,,,,,,,,,,,,,,,,,,,,,0.048150869,left,1,10,-30,-20,1,1522.969024,1522.969024,1522.969024,None,None,3,0,3.5363021,0.111111111,,,,,,,,,,,,,,,,,,,,,,,,,,,,,,,,,,,,,,,,,,,,,10,13,1,2024-10-28_12h07.22.819,uWM_experiment,2022.2.3,59.99383264
,,,,,,,,,,,,,,,,10,0,10,0,,,,,,,,,,,,,,,,,,,,,,,,,,,,,,,,,,,,,,,,,,,,,,,,,,,,,,,,,,,,,,,,,,,,,,,,,,,,,,0.1,right,1,10,30,40,2,1532.736088,1532.736088,1532.736088,None,None,2,0,1.1453786,0.1,,,,,,,,,,,,,,,,,,,,,,,,,,,,,,,,,,,,,,,,,,,,,10,13,1,2024-10-28_12h07.22.819,uWM_experiment,2022.2.3,59.99383264
,,,,,,,,,,,,,,,,11,0,11,0,,,,,,,,,,,,,,,,,,,,,,,,,,,,,,,,,,,,,,,,,,,,,,,,,,,,,,,,,,,,,,,,,,,,,,,,,,,,,,0.1,right,0,40,-30,10,2,1541.419749,1541.419749,1541.419749,None,None,4,0,2.557625,0.090909091,,,,,,,,,,,,,,,,,,,,,,,,,,,,,,,,,,,,,,,,,,,,,10,13,1,2024-10-28_12h07.22.819,uWM_experiment,2022.2.3,59.99383264
,,,,,,,,,,,,,,,,12,0,12,0,,,,,,,,,,,,,,,,,,,,,,,,,,,,,,,,,,,,,,,,,,,,,,,,,,,,,,,,,,,,,,,,,,,,,,,,,,,,,,0.1,right,1,40,30,70,2,1552.286845,1552.286845,1552.286845,None,None,3,0,2.0023645,0.083333333,,,,,,,,,,,,,,,,,,,,,,,,,,,,,,,,,,,,,,,,,,,,,10,13,1,2024-10-28_12h07.22.819,uWM_experiment,2022.2.3,59.99383264
,,,,,,,,,,,,,,,,13,0,13,0,,,,,,,,,,,,,,,,,,,,,,,,,,,,,,,,,,,,,,,,,,,,,,,,,,,,,,,,,,,,,,,,,,,,,,,,,,,,,,0.1,right,0,160,-30,130,2,1562.370591,1562.370591,1562.370591,None,None,3,0,2.3185794,0.076923077,,,,,,,,,,,,,,,,,,,,,,,,,,,,,,,,,,,,,,,,,,,,,10,13,1,2024-10-28_12h07.22.819,uWM_experiment,2022.2.3,59.99383264
,,,,,,,,,,,,,,,,14,0,14,0,,,,,,,,,,,,,,,,,,,,,,,,,,,,,,,,,,,,,,,,,,,,,,,,,,,,,,,,,,,,,,,,,,,,,,,,,,,,,,0.038150869,left,0,70,30,100,1,1570.854239,1570.854239,1570.854239,None,None,1,1,1.0188815,0.071428571,,,,,,,,,,,,,,,,,,,,,,,,,,,,,,,,,,,,,,,,,,,,,10,13,1,2024-10-28_12h07.22.819,uWM_experiment,2022.2.3,59.99383264
,,,,,,,,,,,,,,,,15,0,15,0,,,,,,,,,,,,,,,,,,,,,,,,,,,,,,,,,,,,,,,,,,,,,,,,,,,,,,,,,,,,,,,,,,,,,,,,,,,,,,0.1,left,1,100,-30,70,2,1580.78797,1580.78797,1580.78797,None,None,4,0,0.9492394,0.133333333,,,,,,,,,,,,,,,,,,,,,,,,,,,,,,,,,,,,,,,,,,,,,10,13,1,2024-10-28_12h07.22.819,uWM_experiment,2022.2.3,59.99383264
,,,,,,,,,,,,,,,,16,0,16,0,,,,,,,,,,,,,,,,,,,,,,,,,,,,,,,,,,,,,,,,,,,,,,,,,,,,,,,,,,,,,,,,,,,,,,,,,,,,,,0.048150869,left,0,130,30,160,1,1590.155018,1590.155018,1590.155018,None,None,3,0,1.4220127,0.125,,,,,,,,,,,,,,,,,,,,,,,,,,,,,,,,,,,,,,,,,,,,,10,13,1,2024-10-28_12h07.22.819,uWM_experiment,2022.2.3,59.99383264
,,,,,,,,,,,,,,,,17,0,17,0,,,,,,,,,,,,,,,,,,,,,,,,,,,,,,,,,,,,,,,,,,,,,,,,,,,,,,,,,,,,,,,,,,,,,,,,,,,,,,0.1,right,0,70,-30,40,2,1598.955397,1598.955397,1598.955397,None,None,4,0,1.4056587,0.117647059,,,,,,,,,,,,,,,,,,,,,,,,,,,,,,,,,,,,,,,,,,,,,10,13,1,2024-10-28_12h07.22.819,uWM_experiment,2022.2.3,59.99383264
,,,,,,,,,,,,,,,,18,0,18,0,,,,,,,,,,,,,,,,,,,,,,,,,,,,,,,,,,,,,,,,,,,,,,,,,,,,,,,,,,,,,,,,,,,,,,,,,,,,,,0.1,right,1,160,30,190,2,1607.589055,1607.589055,1607.589055,None,None,3,0,1.260018,0.111111111,,,,,,,,,,,,,,,,,,,,,,,,,,,,,,,,,,,,,,,,,,,,,10,13,1,2024-10-28_12h07.22.819,uWM_experiment,2022.2.3,59.99383264
,,,,,,,,,,,,,,,,19,0,19,0,,,,,,,,,,,,,,,,,,,,,,,,,,,,,,,,,,,,,,,,,,,,,,,,,,,,,,,,,,,,,,,,,,,,,,,,,,,,,,0.038150869,right,0,130,-30,100,1,1617.022739,1617.022739,1617.022739,None,None,1,1,0.9062008,0.105263158,,,,,,,,,,,,,,,,,,,,,,,,,,,,,,,,,,,,,,,,,,,,,10,13,1,2024-10-28_12h07.22.819,uWM_experiment,2022.2.3,59.99383264
,,,,,,,,,,,,,,,,20,0,20,0,,,,,,,,,,,,,,,,,,,,,,,,,,,,,,,,,,,,,,,,,,,,,,,,,,,,,,,,,,,,,,,,,,,,,,,,,,,,,,0.1,left,1,100,-30,70,2,1626.823142,1626.823142,1626.823142,None,None,3,0,3.4177123,0.15,,,,,,,,,,,,,,,,,,,,,,,,,,,,,,,,,,,,,,,,,,,,,10,13,1,2024-10-28_12h07.22.819,uWM_experiment,2022.2.3,59.99383264
,,,,,,,,,,,,,,,,21,0,21,0,,,,,,,,,,,,,,,,,,,,,,,,,,,,,,,,,,,,,,,,,,,,,,,,,,,,,,,,,,,,,,,,,,,,,,,,,,,,,,0.048150869,left,0,100,30,130,1,1636.706852,1636.706852,1636.706852,None,None,1,1,0.9019618,0.142857143,,,,,,,,,,,,,,,,,,,,,,,,,,,,,,,,,,,,,,,,,,,,,10,13,1,2024-10-28_12h07.22.819,uWM_experiment,2022.2.3,59.99383264
,,,,,,,,,,,,,,,,22,0,22,0,,,,,,,,,,,,,,,,,,,,,,,,,,,,,,,,,,,,,,,,,,,,,,,,,,,,,,,,,,,,,,,,,,,,,,,,,,,,,,0.058150869,right,1,10,30,40,1,1644.323826,1644.323826,1644.323826,None,None,2,0,0.58112,0.181818182,,,,,,,,,,,,,,,,,,,,,,,,,,,,,,,,,,,,,,,,,,,,,10,13,1,2024-10-28_12h07.22.819,uWM_experiment,2022.2.3,59.99383264
,,,,,,,,,,,,,,,,23,0,23,0,,,,,,,,,,,,,,,,,,,,,,,,,,,,,,,,,,,,,,,,,,,,,,,,,,,,,,,,,,,,,,,,,,,,,,,,,,,,,,0.048150869,right,0,70,-30,40,1,1650.657403,1650.657403,1650.657403,None,None,2,0,1.5513516,0.173913043,,,,,,,,,,,,,,,,,,,,,,,,,,,,,,,,,,,,,,,,,,,,,10,13,1,2024-10-28_12h07.22.819,uWM_experiment,2022.2.3,59.99383264
,,,,,,,,,,,,,,,,,,,,,,,,,,,,,,,,,,,,,,,,,,,,,,,,,,,,,,,,,,,,,,,,,,,,,,,,,,,,,,,,,,,,,,,,,,,,,,,,,,,,,,,,,,,,,,,,,1652.240795,1653.240825,space,9.3678964,,,,,,,,,,,,,,,,,,,,,,,,,,,,,,,,,,,,,,,,,10,13,1,2024-10-28_12h07.22.819,uWM_experiment,2022.2.3,59.99383264
,,,,,,,,,,,,,,,,,,,,0,0,0,0,0,0,0,0,,,,,,,,,,,,,,,,,,,,,,,,,,,,,,,,,,,,,,,,,,,,,,,,,,,,,,,,,,,,,,,,,,,,,,0.048150869,,,,,,,,,,,,,,,,,,,,1662.641221,1663.341237,1663.624586,1664.324615,1664.624613,1665.324655,1665.324655,1665.674674,right,0,70,-30,40,1,1670.674874,1670.674874,1670.674874,None,None,2,0,1.1979131,,,,,,,,,,,,,,,,,,,10,13,1,2024-10-28_12h07.22.819,uWM_experiment,2022.2.3,59.99383264
,,,,,,,,,,,,,,,,,,,,0,0,0,0,1,0,1,0,,,,,,,,,,,,,,,,,,,,,,,,,,,,,,,,,,,,,,,,,,,,,,,,,,,,,,,,,,,,,,,,,,,,,,0,,,,,,,,,,,,,,,,,,,,,,,,,,,,left,0,160,30,190,0,1678.058518,1678.058518,1678.058518,None,None,2,0,1.3581774,,,,,,,,,,,,,,,,,,,10,13,1,2024-10-28_12h07.22.819,uWM_experiment,2022.2.3,59.99383264
,,,,,,,,,,,,,,,,,,,,0,0,0,0,2,0,2,0,,,,,,,,,,,,,,,,,,,,,,,,,,,,,,,,,,,,,,,,,,,,,,,,,,,,,,,,,,,,,,,,,,,,,,0.038150869,,,,,,,,,,,,,,,,,,,,,,,,,,,,right,0,130,-30,100,1,1686.942179,1686.942179,1686.942179,None,None,1,1,1.8105165,,,,,,,,,,,,,,,,,,,10,13,1,2024-10-28_12h07.22.819,uWM_experiment,2022.2.3,59.99383264
,,,,,,,,,,,,,,,,,,,,0,0,0,0,3,0,3,0,,,,,,,,,,,,,,,,,,,,,,,,,,,,,,,,,,,,,,,,,,,,,,,,,,,,,,,,,,,,,,,,,,,,,,0,,,,,,,,,,,,,,,,,,,,,,,,,,,,left,0,160,30,190,0,1694.975843,1694.975843,1694.975843,None,None,2,0,0.440809,,,,,,,,,,,,,,,,,,,10,13,1,2024-10-28_12h07.22.819,uWM_experiment,2022.2.3,59.99383264
,,,,,,,,,,,,,,,,,,,,0,0,0,0,4,0,4,0,,,,,,,,,,,,,,,,,,,,,,,,,,,,,,,,,,,,,,,,,,,,,,,,,,,,,,,,,,,,,,,,,,,,,,0.048150869,,,,,,,,,,,,,,,,,,,,,,,,,,,,left,0,130,30,160,1,1701.159415,1701.159415,1701.159415,None,None,2,0,0.657234,,,,,,,,,,,,,,,,,,,10,13,1,2024-10-28_12h07.22.819,uWM_experiment,2022.2.3,59.99383264
,,,,,,,,,,,,,,,,,,,,0,0,0,0,5,0,5,0,,,,,,,,,,,,,,,,,,,,,,,,,,,,,,,,,,,,,,,,,,,,,,,,,,,,,,,,,,,,,,,,,,,,,,0.038150869,,,,,,,,,,,,,,,,,,,,,,,,,,,,left,1,10,-30,-20,1,1707.626362,1707.626362,1707.626362,None,None,2,0,0.7742509,,,,,,,,,,,,,,,,,,,10,13,1,2024-10-28_12h07.22.819,uWM_experiment,2022.2.3,59.99383264
,,,,,,,,,,,,,,,,,,,,0,0,0,0,6,0,6,0,,,,,,,,,,,,,,,,,,,,,,,,,,,,,,,,,,,,,,,,,,,,,,,,,,,,,,,,,,,,,,,,,,,,,,0,,,,,,,,,,,,,,,,,,,,,,,,,,,,right,1,70,30,100,0,1714.059943,1714.059943,1714.059943,None,None,2,0,0.8606591,,,,,,,,,,,,,,,,,,,10,13,1,2024-10-28_12h07.22.819,uWM_experiment,2022.2.3,59.99383264
,,,,,,,,,,,,,,,,,,,,0,0,0,0,7,0,7,0,,,,,,,,,,,,,,,,,,,,,,,,,,,,,,,,,,,,,,,,,,,,,,,,,,,,,,,,,,,,,,,,,,,,,,0,,,,,,,,,,,,,,,,,,,,,,,,,,,,left,1,10,-30,-20,0,1720.643515,1720.643515,1720.643515,None,None,1,1,0.6450694,,,,,,,,,,,,,,,,,,,10,13,1,2024-10-28_12h07.22.819,uWM_experiment,2022.2.3,59.99383264
,,,,,,,,,,,,,,,,,,,,0,0,0,0,8,0,8,0,,,,,,,,,,,,,,,,,,,,,,,,,,,,,,,,,,,,,,,,,,,,,,,,,,,,,,,,,,,,,,,,,,,,,,0.028150869,,,,,,,,,,,,,,,,,,,,,,,,,,,,left,1,160,-30,130,1,1727.193765,1727.193765,1727.193765,None,None,2,0,0.9747826,,,,,,,,,,,,,,,,,,,10,13,1,2024-10-28_12h07.22.819,uWM_experiment,2022.2.3,59.99383264
,,,,,,,,,,,,,,,,,,,,0,0,0,0,9,0,9,0,,,,,,,,,,,,,,,,,,,,,,,,,,,,,,,,,,,,,,,,,,,,,,,,,,,,,,,,,,,,,,,,,,,,,,0.018150869,,,,,,,,,,,,,,,,,,,,,,,,,,,,right,1,10,30,40,1,1734.977413,1734.977413,1734.977413,None,None,2,0,1.9429905,,,,,,,,,,,,,,,,,,,10,13,1,2024-10-28_12h07.22.819,uWM_experiment,2022.2.3,59.99383264
,,,,,,,,,,,,,,,,,,,,0,0,0,0,10,0,10,0,,,,,,,,,,,,,,,,,,,,,,,,,,,,,,,,,,,,,,,,,,,,,,,,,,,,,,,,,,,,,,,,,,,,,,0.008150869,,,,,,,,,,,,,,,,,,,,,,,,,,,,left,1,70,-30,40,1,1743.727755,1743.727755,1743.727755,None,None,1,1,0.5205854,,,,,,,,,,,,,,,,,,,10,13,1,2024-10-28_12h07.22.819,uWM_experiment,2022.2.3,59.99383264
,,,,,,,,,,,,,,,,,,,,0,0,0,0,11,0,11,0,,,,,,,,,,,,,,,,,,,,,,,,,,,,,,,,,,,,,,,,,,,,,,,,,,,,,,,,,,,,,,,,,,,,,,0,,,,,,,,,,,,,,,,,,,,,,,,,,,,right,1,40,30,70,0,1751.361405,1751.361405,1751.361405,None,None,2,0,0.9910452,,,,,,,,,,,,,,,,,,,10,13,1,2024-10-28_12h07.22.819,uWM_experiment,2022.2.3,59.99383264
,,,,,,,,,,,,,,,,,,,,0,0,0,0,12,0,12,0,,,,,,,,,,,,,,,,,,,,,,,,,,,,,,,,,,,,,,,,,,,,,,,,,,,,,,,,,,,,,,,,,,,,,,0.018150869,,,,,,,,,,,,,,,,,,,,,,,,,,,,left,0,40,30,70,1,1758.895019,1758.895019,1758.895019,None,None,2,0,1.7532,,,,,,,,,,,,,,,,,,,10,13,1,2024-10-28_12h07.22.819,uWM_experiment,2022.2.3,59.99383264
,,,,,,,,,,,,,,,,,,,,0,0,0,0,13,0,13,0,,,,,,,,,,,,,,,,,,,,,,,,,,,,,,,,,,,,,,,,,,,,,,,,,,,,,,,,,,,,,,,,,,,,,,0.008150869,,,,,,,,,,,,,,,,,,,,,,,,,,,,right,1,40,30,70,1,1766.812034,1766.812034,1766.812034,None,None,1,1,9.7642436,,,,,,,,,,,,,,,,,,,10,13,1,2024-10-28_12h07.22.819,uWM_experiment,2022.2.3,59.99383264
,,,,,,,,,,,,,,,,,,,,0,0,0,0,14,0,14,0,,,,,,,,,,,,,,,,,,,,,,,,,,,,,,,,,,,,,,,,,,,,,,,,,,,,,,,,,,,,,,,,,,,,,,0,,,,,,,,,,,,,,,,,,,,,,,,,,,,right,0,70,-30,40,0,1783.412692,1783.412692,1783.412692,None,None,2,0,0.8436123,,,,,,,,,,,,,,,,,,,10,13,1,2024-10-28_12h07.22.819,uWM_experiment,2022.2.3,59.99383264
,,,,,,,,,,,,,,,,,,,,0,0,0,0,15,0,15,0,,,,,,,,,,,,,,,,,,,,,,,,,,,,,,,,,,,,,,,,,,,,,,,,,,,,,,,,,,,,,,,,,,,,,,0.018150869,,,,,,,,,,,,,,,,,,,,,,,,,,,,left,1,10,-30,-20,1,1791.662997,1791.662997,1791.662997,None,None,3,0,1.4811619,,,,,,,,,,,,,,,,,,,10,13,1,2024-10-28_12h07.22.819,uWM_experiment,2022.2.3,59.99383264
,,,,,,,,,,,,,,,,,,,,0,0,0,0,16,0,16,0,,,,,,,,,,,,,,,,,,,,,,,,,,,,,,,,,,,,,,,,,,,,,,,,,,,,,,,,,,,,,,,,,,,,,,0.008150869,,,,,,,,,,,,,,,,,,,,,,,,,,,,left,1,10,-30,-20,1,1800.763347,1800.763347,1800.763347,None,None,1,1,1.3488101,,,,,,,,,,,,,,,,,,,10,13,1,2024-10-28_12h07.22.819,uWM_experiment,2022.2.3,59.99383264
,,,,,,,,,,,,,,,,,,,,0,0,0,0,17,0,17,0,,,,,,,,,,,,,,,,,,,,,,,,,,,,,,,,,,,,,,,,,,,,,,,,,,,,,,,,,,,,,,,,,,,,,,0,,,,,,,,,,,,,,,,,,,,,,,,,,,,right,0,70,-30,40,0,1807.763622,1807.763622,1807.763622,None,None,3,0,1.0363699,,,,,,,,,,,,,,,,,,,10,13,1,2024-10-28_12h07.22.819,uWM_experiment,2022.2.3,59.99383264
,,,,,,,,,,,,,,,,,,,,0,0,0,0,18,0,18,0,,,,,,,,,,,,,,,,,,,,,,,,,,,,,,,,,,,,,,,,,,,,,,,,,,,,,,,,,,,,,,,,,,,,,,0,,,,,,,,,,,,,,,,,,,,,,,,,,,,right,0,130,-30,100,0,1815.180608,1815.180608,1815.180608,None,None,1,1,0.9713495,,,,,,,,,,,,,,,,,,,10,13,1,2024-10-28_12h07.22.819,uWM_experiment,2022.2.3,59.99383264
,,,,,,,,,,,,,,,,,,,,0,0,0,0,19,0,19,0,,,,,,,,,,,,,,,,,,,,,,,,,,,,,,,,,,,,,,,,,,,,,,,,,,,,,,,,,,,,,,,,,,,,,,0.018150869,,,,,,,,,,,,,,,,,,,,,,,,,,,,left,0,160,30,190,1,1824.280942,1824.280942,1824.280942,None,None,2,0,2.8231492,,,,,,,,,,,,,,,,,,,10,13,1,2024-10-28_12h07.22.819,uWM_experiment,2022.2.3,59.99383264
,,,,,,,,,,,,,,,,,,,,0,0,0,0,20,0,20,0,,,,,,,,,,,,,,,,,,,,,,,,,,,,,,,,,,,,,,,,,,,,,,,,,,,,,,,,,,,,,,,,,,,,,,0.008150869,,,,,,,,,,,,,,,,,,,,,,,,,,,,left,0,100,30,130,1,1836.664807,1836.664807,1836.664807,None,None,1,1,1.3271824,,,,,,,,,,,,,,,,,,,10,13,1,2024-10-28_12h07.22.819,uWM_experiment,2022.2.3,59.99383264
,,,,,,,,,,,,,,,,,,,,0,0,0,0,21,0,21,0,,,,,,,,,,,,,,,,,,,,,,,,,,,,,,,,,,,,,,,,,,,,,,,,,,,,,,,,,,,,,,,,,,,,,,0.018150869,,,,,,,,,,,,,,,,,,,,,,,,,,,,right,0,70,-30,40,1,1848.148561,1848.148561,1848.148561,None,None,2,0,12.3392062,,,,,,,,,,,,,,,,,,,10,13,1,2024-10-28_12h07.22.819,uWM_experiment,2022.2.3,59.99383264
,,,,,,,,,,,,,,,,,,,,0,0,0,0,22,0,22,0,,,,,,,,,,,,,,,,,,,,,,,,,,,,,,,,,,,,,,,,,,,,,,,,,,,,,,,,,,,,,,,,,,,,,,0,,,,,,,,,,,,,,,,,,,,,,,,,,,,left,1,10,-30,-20,0,1872.299539,1872.299539,1872.299539,None,None,2,0,1.5162058,,,,,,,,,,,,,,,,,,,10,13,1,2024-10-28_12h07.22.819,uWM_experiment,2022.2.3,59.99383264
,,,,,,,,,,,,,,,,,,,,0,0,0,0,23,0,23,0,,,,,,,,,,,,,,,,,,,,,,,,,,,,,,,,,,,,,,,,,,,,,,,,,,,,,,,,,,,,,,,,,,,,,,0.008150869,,,,,,,,,,,,,,,,,,,,,,,,,,,,right,0,100,-30,70,1,1888.216821,1888.216821,1888.216821,None,None,2,0,2.638796,,,,,,,,,,,,,,,,,,,10,13,1,2024-10-28_12h07.22.819,uWM_experiment,2022.2.3,59.99383264
,,,,,,,,,,,,,,,,,,,,0,0,0,0,,,,,0,0,0,0,,,,,,,,,,,,,,,,,,,,,,,,,,,,,,,,,,,,,,,,,,,,,,,,,,,,,,,,,,,,,,,,,,,,,,,,,,,,,,,,,,,,,,,,,,,,,,,,,,,,,,,,,,,,1890.883575,1890.883575,space,43.6919588,None,None,,,,,,,,,,,,,10,13,1,2024-10-28_12h07.22.819,uWM_experiment,2022.2.3,59.99383264
,,,,,,,,,,,,,,,,,,,,0,0,0,0,,,,,1,0,1,0,,,,,,,,,,,,,,,,,,,,,,,,,,,,,,,,,,,,,,,,,,,,,,,,,,,,,,,,,,,,,,,,,,,,,,,,,,,,,,,,,,,,,,,,,,,,,,,,,,,,,,,,,,,,,,,,,,,,,,,,,,,,,,10,13,1,2024-10-28_12h07.22.819,uWM_experiment,2022.2.3,59.99383264
,,,,,,,,,,,,,,,,,,,,0,0,0,0,,,,,2,0,2,0,,,,,,,,,,,,,,,,,,,,,,,,,,,,,,,,,,,,,,,,,,,,,,,,,,,,,,,,,,,,,,,,,,,,,,,,,,,,,,,,,,,,,,,,,,,,,,,,,,,,,,,,,,,,,,,,,,,,,,,,,,,,,,10,13,1,2024-10-28_12h07.22.819,uWM_experiment,2022.2.3,59.99383264
,,,,,,,,,,,,,,,,,,,,1,0,1,0,0,0,0,0,,,,,,,,,,,,,,,,,,,,,,,,,,,,,,,,,,,,,,,,,,,,,,,,,,,,,,,,,,,,,,,,,,,,,,0,,,,,,,,,,,,,,,,,,,,1934.601978,1935.302032,1935.602028,1936.302039,1936.602062,1937.302091,1937.302091,1937.618775,left,0,130,30,160,0,1942.502343,1942.502343,1942.502343,None,None,1,1,1.9850332,,,,,,,None,,,,,,,,,,,,10,13,1,2024-10-28_12h07.22.819,uWM_experiment,2022.2.3,59.99383264
,,,,,,,,,,,,,,,,,,,,1,0,1,0,1,0,1,0,,,,,,,,,,,,,,,,,,,,,,,,,,,,,,,,,,,,,,,,,,,,,,,,,,,,,,,,,,,,,,,,,,,,,,0.005,,,,,,,,,,,,,,,,,,,,,,,,,,,,right,0,130,-30,100,1,1950.219259,1950.219259,1950.219259,None,None,2,0,2.940237,,,,,,,,,,,,,,,,,,,10,13,1,2024-10-28_12h07.22.819,uWM_experiment,2022.2.3,59.99383264
,,,,,,,,,,,,,,,,,,,,1,0,1,0,2,0,2,0,,,,,,,,,,,,,,,,,,,,,,,,,,,,,,,,,,,,,,,,,,,,,,,,,,,,,,,,,,,,,,,,,,,,,,0.005,,,,,,,,,,,,,,,,,,,,,,,,,,,,right,0,160,-30,130,1,1959.886309,1959.886309,1959.886309,None,None,1,1,0.7291234,,,,,,,,,,,,,,,,,,,10,13,1,2024-10-28_12h07.22.819,uWM_experiment,2022.2.3,59.99383264
,,,,,,,,,,,,,,,,,,,,1,0,1,0,3,0,3,0,,,,,,,,,,,,,,,,,,,,,,,,,,,,,,,,,,,,,,,,,,,,,,,,,,,,,,,,,,,,,,,,,,,,,,0,,,,,,,,,,,,,,,,,,,,,,,,,,,,left,0,130,30,160,0,1967.236634,1967.236634,1967.236634,None,None,1,1,1.5786584,,,,,,,,,,,,,,,,,,,10,13,1,2024-10-28_12h07.22.819,uWM_experiment,2022.2.3,59.99383264
,,,,,,,,,,,,,,,,,,,,1,0,1,0,4,0,4,0,,,,,,,,,,,,,,,,,,,,,,,,,,,,,,,,,,,,,,,,,,,,,,,,,,,,,,,,,,,,,,,,,,,,,,0.015,,,,,,,,,,,,,,,,,,,,,,,,,,,,right,1,10,30,40,1,1975.703619,1975.703619,1975.703619,None,None,2,0,1.1277445,,,,,,,,,,,,,,,,,,,10,13,1,2024-10-28_12h07.22.819,uWM_experiment,2022.2.3,59.99383264
,,,,,,,,,,,,,,,,,,,,1,0,1,0,5,0,5,0,,,,,,,,,,,,,,,,,,,,,,,,,,,,,,,,,,,,,,,,,,,,,,,,,,,,,,,,,,,,,,,,,,,,,,0.005,,,,,,,,,,,,,,,,,,,,,,,,,,,,left,0,70,30,100,1,1982.470536,1982.470536,1982.470536,None,None,1,1,0.7447108,,,,,,,,,,,,,,,,,,,10,13,1,2024-10-28_12h07.22.819,uWM_experiment,2022.2.3,59.99383264
,,,,,,,,,,,,,,,,,,,,1,0,1,0,6,0,6,0,,,,,,,,,,,,,,,,,,,,,,,,,,,,,,,,,,,,,,,,,,,,,,,,,,,,,,,,,,,,,,,,,,,,,,0,,,,,,,,,,,,,,,,,,,,,,,,,,,,left,0,70,30,100,0,1989.537512,1989.537512,1989.537512,None,None,2,0,0.9578051,,,,,,,,,,,,,,,,,,,10,13,1,2024-10-28_12h07.22.819,uWM_experiment,2022.2.3,59.99383264
,,,,,,,,,,,,,,,,,,,,1,0,1,0,7,0,7,0,,,,,,,,,,,,,,,,,,,,,,,,,,,,,,,,,,,,,,,,,,,,,,,,,,,,,,,,,,,,,,,,,,,,,,0.015,,,,,,,,,,,,,,,,,,,,,,,,,,,,right,1,160,30,190,1,1996.154434,1996.154434,1996.154434,None,None,1,1,1.1408535,,,,,,,,,,,,,,,,,,,10,13,1,2024-10-28_12h07.22.819,uWM_experiment,2022.2.3,59.99383264
,,,,,,,,,,,,,,,,,,,,1,0,1,0,8,0,8,0,,,,,,,,,,,,,,,,,,,,,,,,,,,,,,,,,,,,,,,,,,,,,,,,,,,,,,,,,,,,,,,,,,,,,,0,,,,,,,,,,,,,,,,,,,,,,,,,,,,left,0,100,30,130,0,2002.971365,2002.971365,2002.971365,None,None,2,0,0.6759238,,,,,,,,,,,,,,,,,,,10,13,1,2024-10-28_12h07.22.819,uWM_experiment,2022.2.3,59.99383264
,,,,,,,,,,,,,,,,,,,,1,0,1,0,9,0,9,0,,,,,,,,,,,,,,,,,,,,,,,,,,,,,,,,,,,,,,,,,,,,,,,,,,,,,,,,,,,,,,,,,,,,,,0.025,,,,,,,,,,,,,,,,,,,,,,,,,,,,left,0,160,30,190,1,2010.321632,2010.321632,2010.321632,None,None,2,0,2.7494567,,,,,,,,,,,,,,,,,,,10,13,1,2024-10-28_12h07.22.819,uWM_experiment,2022.2.3,59.99383264
,,,,,,,,,,,,,,,,,,,,1,0,1,0,10,0,10,0,,,,,,,,,,,,,,,,,,,,,,,,,,,,,,,,,,,,,,,,,,,,,,,,,,,,,,,,,,,,,,,,,,,,,,0,,,,,,,,,,,,,,,,,,,,,,,,,,,,left,0,10,30,40,0,2023.438831,2023.438831,2023.438831,None,None,1,1,7.0722265,,,,,,,,,,,,,,,,,,,10,13,1,2024-10-28_12h07.22.819,uWM_experiment,2022.2.3,59.99383264
,,,,,,,,,,,,,,,,,,,,1,0,1,0,11,0,11,0,,,,,,,,,,,,,,,,,,,,,,,,,,,,,,,,,,,,,,,,,,,,,,,,,,,,,,,,,,,,,,,,,,,,,,0,,,,,,,,,,,,,,,,,,,,,,,,,,,,left,1,40,-30,10,0,2038.956158,2038.956158,2038.956158,None,None,1,1,3.7867475,,,,,,,,,,,,,,,,,,,10,13,1,2024-10-28_12h07.22.819,uWM_experiment,2022.2.3,59.99383264
,,,,,,,,,,,,,,,,,,,,1,0,1,0,12,0,12,0,,,,,,,,,,,,,,,,,,,,,,,,,,,,,,,,,,,,,,,,,,,,,,,,,,,,,,,,,,,,,,,,,,,,,,0,,,,,,,,,,,,,,,,,,,,,,,,,,,,right,1,10,30,40,0,2048.773199,2048.773199,2048.773199,None,None,2,0,0.6976801,,,,,,,,,,,,,,,,,,,10,13,1,2024-10-28_12h07.22.819,uWM_experiment,2022.2.3,59.99383264
,,,,,,,,,,,,,,,,,,,,1,0,1,0,13,0,13,0,,,,,,,,,,,,,,,,,,,,,,,,,,,,,,,,,,,,,,,,,,,,,,,,,,,,,,,,,,,,,,,,,,,,,,0.015,,,,,,,,,,,,,,,,,,,,,,,,,,,,left,0,40,30,70,1,2056.073481,2056.073481,2056.073481,None,None,1,1,0.8934173,,,,,,,,,,,,,,,,,,,10,13,1,2024-10-28_12h07.22.819,uWM_experiment,2022.2.3,59.99383264
,,,,,,,,,,,,,,,,,,,,1,0,1,0,14,0,14,0,,,,,,,,,,,,,,,,,,,,,,,,,,,,,,,,,,,,,,,,,,,,,,,,,,,,,,,,,,,,,,,,,,,,,,0.025,,,,,,,,,,,,,,,,,,,,,,,,,,,,left,1,100,-30,70,1,2062.640388,2062.640388,2062.640388,None,None,1,1,1.3825755,,,,,,,,,,,,,,,,,,,10,13,1,2024-10-28_12h07.22.819,uWM_experiment,2022.2.3,59.99383264
,,,,,,,,,,,,,,,,,,,,1,0,1,0,15,0,15,0,,,,,,,,,,,,,,,,,,,,,,,,,,,,,,,,,,,,,,,,,,,,,,,,,,,,,,,,,,,,,,,,,,,,,,0.035,,,,,,,,,,,,,,,,,,,,,,,,,,,,right,1,40,30,70,1,2069.440716,2069.440716,2069.440716,None,None,2,0,1.1020353,,,,,,,,,,,,,,,,,,,10,13,1,2024-10-28_12h07.22.819,uWM_experiment,2022.2.3,59.99383264
,,,,,,,,,,,,,,,,,,,,1,0,1,0,16,0,16,0,,,,,,,,,,,,,,,,,,,,,,,,,,,,,,,,,,,,,,,,,,,,,,,,,,,,,,,,,,,,,,,,,,,,,,0.025,,,,,,,,,,,,,,,,,,,,,,,,,,,,left,1,100,-30,70,1,2076.007578,2076.007578,2076.007578,None,None,1,1,0.7433076,,,,,,,,,,,,,,,,,,,10,13,1,2024-10-28_12h07.22.819,uWM_experiment,2022.2.3,59.99383264
,,,,,,,,,,,,,,,,,,,,1,0,1,0,17,0,17,0,,,,,,,,,,,,,,,,,,,,,,,,,,,,,,,,,,,,,,,,,,,,,,,,,,,,,,,,,,,,,,,,,,,,,,0.035,,,,,,,,,,,,,,,,,,,,,,,,,,,,right,0,130,-30,100,1,2082.29118,2082.29118,2082.29118,None,None,2,0,0.859631,,,,,,,,,,,,,,,,,,,10,13,1,2024-10-28_12h07.22.819,uWM_experiment,2022.2.3,59.99383264
,,,,,,,,,,,,,,,,,,,,1,0,1,0,18,0,18,0,,,,,,,,,,,,,,,,,,,,,,,,,,,,,,,,,,,,,,,,,,,,,,,,,,,,,,,,,,,,,,,,,,,,,,0.025,,,,,,,,,,,,,,,,,,,,,,,,,,,,left,0,160,30,190,1,2089.941469,2089.941469,2089.941469,None,None,1,1,3.0492908,,,,,,,,,,,,,,,,,,,10,13,1,2024-10-28_12h07.22.819,uWM_experiment,2022.2.3,59.99383264
,,,,,,,,,,,,,,,,,,,,1,0,1,0,19,0,19,0,,,,,,,,,,,,,,,,,,,,,,,,,,,,,,,,,,,,,,,,,,,,,,,,,,,,,,,,,,,,,,,,,,,,,,0.035,,,,,,,,,,,,,,,,,,,,,,,,,,,,left,0,160,30,190,1,2098.091794,2098.091794,2098.091794,None,None,2,0,0.6909661,,,,,,,,,,,,,,,,,,,10,13,1,2024-10-28_12h07.22.819,uWM_experiment,2022.2.3,59.99383264
,,,,,,,,,,,,,,,,,,,,1,0,1,0,20,0,20,0,,,,,,,,,,,,,,,,,,,,,,,,,,,,,,,,,,,,,,,,,,,,,,,,,,,,,,,,,,,,,,,,,,,,,,0.025,,,,,,,,,,,,,,,,,,,,,,,,,,,,right,0,10,-30,-20,1,2104.592046,2104.592046,2104.592046,None,None,1,1,1.5586655,,,,,,,,,,,,,,,,,,,10,13,1,2024-10-28_12h07.22.819,uWM_experiment,2022.2.3,59.99383264
,,,,,,,,,,,,,,,,,,,,1,0,1,0,21,0,21,0,,,,,,,,,,,,,,,,,,,,,,,,,,,,,,,,,,,,,,,,,,,,,,,,,,,,,,,,,,,,,,,,,,,,,,0.035,,,,,,,,,,,,,,,,,,,,,,,,,,,,left,0,160,30,190,1,2111.258996,2111.258996,2111.258996,None,None,2,0,0.6116297,,,,,,,,,,,,,,,,,,,10,13,1,2024-10-28_12h07.22.819,uWM_experiment,2022.2.3,59.99383264
,,,,,,,,,,,,,,,,,,,,1,0,1,0,22,0,22,0,,,,,,,,,,,,,,,,,,,,,,,,,,,,,,,,,,,,,,,,,,,,,,,,,,,,,,,,,,,,,,,,,,,,,,0,,,,,,,,,,,,,,,,,,,,,,,,,,,,left,1,10,-30,-20,0,2119.459308,2119.459308,2119.459308,None,None,2,0,3.7712187,,,,,,,,,,,,,,,,,,,10,13,1,2024-10-28_12h07.22.819,uWM_experiment,2022.2.3,59.99383264
,,,,,,,,,,,,,,,,,,,,1,0,1,0,23,0,23,0,,,,,,,,,,,,,,,,,,,,,,,,,,,,,,,,,,,,,,,,,,,,,,,,,,,,,,,,,,,,,,,,,,,,,,0,,,,,,,,,,,,,,,,,,,,,,,,,,,,left,1,130,-30,100,0,2128.909669,2128.909669,2128.909669,None,None,1,1,0.9208332,,,,,,,,,,,,,,,,,,,10,13,1,2024-10-28_12h07.22.819,uWM_experiment,2022.2.3,59.99383264
,,,,,,,,,,,,,,,,,,,,1,0,1,0,,,,,0,0,0,0,,,,,,,,,,,,,,,,,,,,,,,,,,,,,,,,,,,,,,,,,,,,,,,,,,,,,,,,,,,,,,,,,,,,,,,,,,,,,,,,,,,,,,,,,,,,,,,,,,,,,,,,,,,,2129.8597,2129.8597,space,21.1147445,None,None,,,,,,,,,,,,,10,13,1,2024-10-28_12h07.22.819,uWM_experiment,2022.2.3,59.99383264
,,,,,,,,,,,,,,,,,,,,1,0,1,0,,,,,1,0,1,0,,,,,,,,,,,,,,,,,,,,,,,,,,,,,,,,,,,,,,,,,,,,,,,,,,,,,,,,,,,,,,,,,,,,,,,,,,,,,,,,,,,,,,,,,,,,,,,,,,,,,,,,,,,,,,,,,,,,,,,,,,,,,,10,13,1,2024-10-28_12h07.22.819,uWM_experiment,2022.2.3,59.99383264
,,,,,,,,,,,,,,,,,,,,1,0,1,0,,,,,2,0,2,0,,,,,,,,,,,,,,,,,,,,,,,,,,,,,,,,,,,,,,,,,,,,,,,,,,,,,,,,,,,,,,,,,,,,,,,,,,,,,,,,,,,,,,,,,,,,,,,,,,,,,,,,,,,,,,,,,,,,,,,,,,,,,,10,13,1,2024-10-28_12h07.22.819,uWM_experiment,2022.2.3,59.99383264
,,,,,,,,,,,,,,,,,,,,2,0,2,0,0,0,0,0,,,,,,,,,,,,,,,,,,,,,,,,,,,,,,,,,,,,,,,,,,,,,,,,,,,,,,,,,,,,,,,,,,,,,,0.025,,,,,,,,,,,,,,,,,,,,2150.993893,2151.693899,2151.9939,2152.693938,2152.993951,2153.693976,2153.693976,2154.010682,right,1,10,30,40,1,2158.994186,2158.994186,2158.994186,None,None,2,0,1.2841727,,,,,,,None,,,,,,,,,,,,10,13,1,2024-10-28_12h07.22.819,uWM_experiment,2022.2.3,59.99383264
,,,,,,,,,,,,,,,,,,,,2,0,2,0,1,0,1,0,,,,,,,,,,,,,,,,,,,,,,,,,,,,,,,,,,,,,,,,,,,,,,,,,,,,,,,,,,,,,,,,,,,,,,0,,,,,,,,,,,,,,,,,,,,,,,,,,,,left,0,40,30,70,0,2167.544527,2167.544527,2167.544527,None,None,1,1,1.8219322,,,,,,,,,,,,,,,,,,,10,13,1,2024-10-28_12h07.22.819,uWM_experiment,2022.2.3,59.99383264
,,,,,,,,,,,,,,,,,,,,2,0,2,0,2,0,2,0,,,,,,,,,,,,,,,,,,,,,,,,,,,,,,,,,,,,,,,,,,,,,,,,,,,,,,,,,,,,,,,,,,,,,,0,,,,,,,,,,,,,,,,,,,,,,,,,,,,right,1,160,30,190,0,2175.511496,2175.511496,2175.511496,None,None,2,0,0.8948974,,,,,,,,,,,,,,,,,,,10,13,1,2024-10-28_12h07.22.819,uWM_experiment,2022.2.3,59.99383264
,,,,,,,,,,,,,,,,,,,,2,0,2,0,3,0,3,0,,,,,,,,,,,,,,,,,,,,,,,,,,,,,,,,,,,,,,,,,,,,,,,,,,,,,,,,,,,,,,,,,,,,,,0.015,,,,,,,,,,,,,,,,,,,,,,,,,,,,left,1,40,-30,10,1,2181.695094,2181.695094,2181.695094,None,None,1,1,0.6871448,,,,,,,,,,,,,,,,,,,10,13,1,2024-10-28_12h07.22.819,uWM_experiment,2022.2.3,59.99383264
,,,,,,,,,,,,,,,,,,,,2,0,2,0,4,0,4,0,,,,,,,,,,,,,,,,,,,,,,,,,,,,,,,,,,,,,,,,,,,,,,,,,,,,,,,,,,,,,,,,,,,,,,0.1,,,,,,,,,,,,,,,,,,,,,,,,,,,,right,0,100,-30,70,2,2188.928691,2188.928691,2188.928691,None,None,1,1,1.3976834,,,,,,,,,,,,,,,,,,,10,13,1,2024-10-28_12h07.22.819,uWM_experiment,2022.2.3,59.99383264
,,,,,,,,,,,,,,,,,,,,2,0,2,0,5,0,5,0,,,,,,,,,,,,,,,,,,,,,,,,,,,,,,,,,,,,,,,,,,,,,,,,,,,,,,,,,,,,,,,,,,,,,,0,,,,,,,,,,,,,,,,,,,,,,,,,,,,left,0,100,30,130,0,2195.412311,2195.412311,2195.412311,None,None,1,1,1.5779506,,,,,,,,,,,,,,,,,,,10,13,1,2024-10-28_12h07.22.819,uWM_experiment,2022.2.3,59.99383264
,,,,,,,,,,,,,,,,,,,,2,0,2,0,6,0,6,0,,,,,,,,,,,,,,,,,,,,,,,,,,,,,,,,,,,,,,,,,,,,,,,,,,,,,,,,,,,,,,,,,,,,,,0.1,,,,,,,,,,,,,,,,,,,,,,,,,,,,right,0,160,-30,130,2,2203.012584,2203.012584,2203.012584,None,None,2,0,2.8976724,,,,,,,,,,,,,,,,,,,10,13,1,2024-10-28_12h07.22.819,uWM_experiment,2022.2.3,59.99383264
,,,,,,,,,,,,,,,,,,,,2,0,2,0,7,0,7,0,,,,,,,,,,,,,,,,,,,,,,,,,,,,,,,,,,,,,,,,,,,,,,,,,,,,,,,,,,,,,,,,,,,,,,0.025,,,,,,,,,,,,,,,,,,,,,,,,,,,,right,0,130,-30,100,1,2211.629605,2211.629605,2211.629605,None,None,1,1,2.3685206,,,,,,,,,,,,,,,,,,,10,13,1,2024-10-28_12h07.22.819,uWM_experiment,2022.2.3,59.99383264
,,,,,,,,,,,,,,,,,,,,2,0,2,0,8,0,8,0,,,,,,,,,,,,,,,,,,,,,,,,,,,,,,,,,,,,,,,,,,,,,,,,,,,,,,,,,,,,,,,,,,,,,,0.1,,,,,,,,,,,,,,,,,,,,,,,,,,,,right,1,160,30,190,2,2224.213443,2224.213443,2224.213443,None,None,2,0,2.4087385,,,,,,,,,,,,,,,,,,,10,13,1,2024-10-28_12h07.22.819,uWM_experiment,2022.2.3,59.99383264
,,,,,,,,,,,,,,,,,,,,2,0,2,0,9,0,9,0,,,,,,,,,,,,,,,,,,,,,,,,,,,,,,,,,,,,,,,,,,,,,,,,,,,,,,,,,,,,,,,,,,,,,,0.035,,,,,,,,,,,,,,,,,,,,,,,,,,,,left,0,100,30,130,1,2233.230481,2233.230481,2233.230481,None,None,1,1,2.3436833,,,,,,,,,,,,,,,,,,,10,13,1,2024-10-28_12h07.22.819,uWM_experiment,2022.2.3,59.99383264
,,,,,,,,,,,,,,,,,,,,2,0,2,0,10,0,10,0,,,,,,,,,,,,,,,,,,,,,,,,,,,,,,,,,,,,,,,,,,,,,,,,,,,,,,,,,,,,,,,,,,,,,,0.045,,,,,,,,,,,,,,,,,,,,,,,,,,,,left,0,40,30,70,1,2241.997459,2241.997459,2241.997459,None,None,2,0,1.4805959,,,,,,,,,,,,,,,,,,,10,13,1,2024-10-28_12h07.22.819,uWM_experiment,2022.2.3,59.99383264
,,,,,,,,,,,,,,,,,,,,2,0,2,0,11,0,11,0,,,,,,,,,,,,,,,,,,,,,,,,,,,,,,,,,,,,,,,,,,,,,,,,,,,,,,,,,,,,,,,,,,,,,,0.035,,,,,,,,,,,,,,,,,,,,,,,,,,,,right,1,10,30,40,1,2249.581094,2249.581094,2249.581094,None,None,1,1,0.5289802,,,,,,,,,,,,,,,,,,,10,13,1,2024-10-28_12h07.22.819,uWM_experiment,2022.2.3,59.99383264
,,,,,,,,,,,,,,,,,,,,2,0,2,0,12,0,12,0,,,,,,,,,,,,,,,,,,,,,,,,,,,,,,,,,,,,,,,,,,,,,,,,,,,,,,,,,,,,,,,,,,,,,,0,,,,,,,,,,,,,,,,,,,,,,,,,,,,left,0,130,30,160,0,2257.564733,2257.564733,2257.564733,None,None,1,1,1.4171712,,,,,,,,,,,,,,,,,,,10,13,1,2024-10-28_12h07.22.819,uWM_experiment,2022.2.3,59.99383264
,,,,,,,,,,,,,,,,,,,,2,0,2,0,13,0,13,0,,,,,,,,,,,,,,,,,,,,,,,,,,,,,,,,,,,,,,,,,,,,,,,,,,,,,,,,,,,,,,,,,,,,,,0.045,,,,,,,,,,,,,,,,,,,,,,,,,,,,right,1,160,30,190,1,2264.765031,2264.765031,2264.765031,None,None,2,0,1.3528063,,,,,,,,,,,,,,,,,,,10,13,1,2024-10-28_12h07.22.819,uWM_experiment,2022.2.3,59.99383264
,,,,,,,,,,,,,,,,,,,,2,0,2,0,14,0,14,0,,,,,,,,,,,,,,,,,,,,,,,,,,,,,,,,,,,,,,,,,,,,,,,,,,,,,,,,,,,,,,,,,,,,,,0.035,,,,,,,,,,,,,,,,,,,,,,,,,,,,left,1,130,-30,100,1,2272.282002,2272.282002,2272.282002,None,None,1,1,1.0999883,,,,,,,,,,,,,,,,,,,10,13,1,2024-10-28_12h07.22.819,uWM_experiment,2022.2.3,59.99383264
,,,,,,,,,,,,,,,,,,,,2,0,2,0,15,0,15,0,,,,,,,,,,,,,,,,,,,,,,,,,,,,,,,,,,,,,,,,,,,,,,,,,,,,,,,,,,,,,,,,,,,,,,0.045,,,,,,,,,,,,,,,,,,,,,,,,,,,,right,1,100,30,130,1,2279.182272,2279.182272,2279.182272,None,None,1,1,0.7515618,,,,,,,,,,,,,,,,,,,10,13,1,2024-10-28_12h07.22.819,uWM_experiment,2022.2.3,59.99383264
,,,,,,,,,,,,,,,,,,,,2,0,2,0,16,0,16,0,,,,,,,,,,,,,,,,,,,,,,,,,,,,,,,,,,,,,,,,,,,,,,,,,,,,,,,,,,,,,,,,,,,,,,0.055,,,,,,,,,,,,,,,,,,,,,,,,,,,,left,1,100,-30,70,1,2285.615853,2285.615853,2285.615853,None,None,1,1,1.1339227,,,,,,,,,,,,,,,,,,,10,13,1,2024-10-28_12h07.22.819,uWM_experiment,2022.2.3,59.99383264
,,,,,,,,,,,,,,,,,,,,2,0,2,0,17,0,17,0,,,,,,,,,,,,,,,,,,,,,,,,,,,,,,,,,,,,,,,,,,,,,,,,,,,,,,,,,,,,,,,,,,,,,,0.065,,,,,,,,,,,,,,,,,,,,,,,,,,,,right,1,40,30,70,1,2292.482826,2292.482826,2292.482826,None,None,1,1,1.2910526,,,,,,,,,,,,,,,,,,,10,13,1,2024-10-28_12h07.22.819,uWM_experiment,2022.2.3,59.99383264
,,,,,,,,,,,,,,,,,,,,2,0,2,0,18,0,18,0,,,,,,,,,,,,,,,,,,,,,,,,,,,,,,,,,,,,,,,,,,,,,,,,,,,,,,,,,,,,,,,,,,,,,,0.075,,,,,,,,,,,,,,,,,,,,,,,,,,,,left,0,10,30,40,1,2301.583148,2301.583148,2301.583148,None,None,2,0,1.8306957,,,,,,,,,,,,,,,,,,,10,13,1,2024-10-28_12h07.22.819,uWM_experiment,2022.2.3,59.99383264
,,,,,,,,,,,,,,,,,,,,2,0,2,0,19,0,19,0,,,,,,,,,,,,,,,,,,,,,,,,,,,,,,,,,,,,,,,,,,,,,,,,,,,,,,,,,,,,,,,,,,,,,,0.065,,,,,,,,,,,,,,,,,,,,,,,,,,,,left,0,100,30,130,1,2309.466815,2309.466815,2309.466815,None,None,1,1,0.5708315,,,,,,,,,,,,,,,,,,,10,13,1,2024-10-28_12h07.22.819,uWM_experiment,2022.2.3,59.99383264
,,,,,,,,,,,,,,,,,,,,2,0,2,0,20,0,20,0,,,,,,,,,,,,,,,,,,,,,,,,,,,,,,,,,,,,,,,,,,,,,,,,,,,,,,,,,,,,,,,,,,,,,,0,,,,,,,,,,,,,,,,,,,,,,,,,,,,right,0,130,-30,100,0,2316.183937,2316.183937,2316.183937,None,None,1,1,1.0856778,,,,,,,,,,,,,,,,,,,10,13,1,2024-10-28_12h07.22.819,uWM_experiment,2022.2.3,59.99383264
,,,,,,,,,,,,,,,,,,,,2,0,2,0,21,0,21,0,,,,,,,,,,,,,,,,,,,,,,,,,,,,,,,,,,,,,,,,,,,,,,,,,,,,,,,,,,,,,,,,,,,,,,0.075,,,,,,,,,,,,,,,,,,,,,,,,,,,,left,1,70,-30,40,1,2323.267374,2323.267374,2323.267374,None,None,2,0,0.9943736,,,,,,,,,,,,,,,,,,,10,13,1,2024-10-28_12h07.22.819,uWM_experiment,2022.2.3,59.99383264
,,,,,,,,,,,,,,,,,,,,2,0,2,0,22,0,22,0,,,,,,,,,,,,,,,,,,,,,,,,,,,,,,,,,,,,,,,,,,,,,,,,,,,,,,,,,,,,,,,,,,,,,,0.065,,,,,,,,,,,,,,,,,,,,,,,,,,,,left,0,130,30,160,1,2333.834457,2333.834457,2333.834457,None,None,1,1,1.267296,,,,,,,,,,,,,,,,,,,10,13,1,2024-10-28_12h07.22.819,uWM_experiment,2022.2.3,59.99383264
,,,,,,,,,,,,,,,,,,,,2,0,2,0,23,0,23,0,,,,,,,,,,,,,,,,,,,,,,,,,,,,,,,,,,,,,,,,,,,,,,,,,,,,,,,,,,,,,,,,,,,,,,0,,,,,,,,,,,,,,,,,,,,,,,,,,,,right,0,10,-30,-20,0,2346.468259,2346.468259,2346.468259,None,None,2,0,0.9133755,,,,,,,,,,,,,,,,,,,10,13,1,2024-10-28_12h07.22.819,uWM_experiment,2022.2.3,59.99383264
,,,,,,,,,,,,,,,,,,,,2,0,2,0,,,,,0,0,0,0,,,,,,,,,,,,,,,,,,,,,,,,,,,,,,,,,,,,,,,,,,,,,,,,,,,,,,,,,,,,,,,,,,,,,,,,,,,,,,,,,,,,,,,,,,,,,,,,,,,,,,,,,,,,2347.401626,2347.401626,space,19.6197777,space,None,,2367.052422,2367.052422,13.9610811,,,,,,,,,10,13,1,2024-10-28_12h07.22.819,uWM_experiment,2022.2.3,59.99383264
,,,,,,,,,,,,,,,,,,,,2,0,2,0,,,,,1,0,1,0,,,,,,,,,,,,,,,,,,,,,,,,,,,,,,,,,,,,,,,,,,,,,,,,,,,,,,,,,,,,,,,,,,,,,,,,,,,,,,,,,,,,,,,,,,,,,,,,,,,,,,,,,,,,,,,,,,,,,,,,,,,,,,10,13,1,2024-10-28_12h07.22.819,uWM_experiment,2022.2.3,59.99383264
,,,,,,,,,,,,,,,,,,,,2,0,2,0,,,,,2,0,2,0,,,,,,,,,,,,,,,,,,,,,,,,,,,,,,,,,,,,,,,,,,,,,,,,,,,,,,,,,,,,,,,,,,,,,,,,,,,,,,,,,,,,,,,,,,,,,,,,,,,,,,,,,,,,,,,,,,,,,,,,,,,,,,10,13,1,2024-10-28_12h07.22.819,uWM_experiment,2022.2.3,59.99383264
,,,,,,,,,,,,,,,,,,,,3,0,3,0,0,0,0,0,,,,,,,,,,,,,,,,,,,,,,,,,,,,,,,,,,,,,,,,,,,,,,,,,,,,,,,,,,,,,,,,,,,,,,0,,,,,,,,,,,,,,,,,,,,2381.036299,2381.736331,2382.036342,2382.73639,2383.036381,2383.736406,2383.736406,2384.053079,right,1,10,30,40,0,2390.470017,2390.470017,2390.470017,None,None,2,0,1.5593228,,,,,,,None,,,,,,,,,,,,10,13,1,2024-10-28_12h07.22.819,uWM_experiment,2022.2.3,59.99383264
,,,,,,,,,,,,,,,,,,,,3,0,3,0,1,0,1,0,,,,,,,,,,,,,,,,,,,,,,,,,,,,,,,,,,,,,,,,,,,,,,,,,,,,,,,,,,,,,,,,,,,,,,0,,,,,,,,,,,,,,,,,,,,,,,,,,,,left,1,10,-30,-20,0,2397.736968,2397.736968,2397.736968,None,None,1,1,0.7243707,,,,,,,,,,,,,,,,,,,10,13,1,2024-10-28_12h07.22.819,uWM_experiment,2022.2.3,59.99383264
,,,,,,,,,,,,,,,,,,,,3,0,3,0,2,0,2,0,,,,,,,,,,,,,,,,,,,,,,,,,,,,,,,,,,,,,,,,,,,,,,,,,,,,,,,,,,,,,,,,,,,,,,0,,,,,,,,,,,,,,,,,,,,,,,,,,,,right,0,10,-30,-20,0,2403.787208,2403.787208,2403.787208,None,None,1,1,1.1941565,,,,,,,,,,,,,,,,,,,10,13,1,2024-10-28_12h07.22.819,uWM_experiment,2022.2.3,59.99383264
,,,,,,,,,,,,,,,,,,,,3,0,3,0,3,0,3,0,,,,,,,,,,,,,,,,,,,,,,,,,,,,,,,,,,,,,,,,,,,,,,,,,,,,,,,,,,,,,,,,,,,,,,0.075,,,,,,,,,,,,,,,,,,,,,,,,,,,,left,0,40,30,70,1,2410.137483,2410.137483,2410.137483,None,None,2,0,1.0516761,,,,,,,,,,,,,,,,,,,10,13,1,2024-10-28_12h07.22.819,uWM_experiment,2022.2.3,59.99383264
,,,,,,,,,,,,,,,,,,,,3,0,3,0,4,0,4,0,,,,,,,,,,,,,,,,,,,,,,,,,,,,,,,,,,,,,,,,,,,,,,,,,,,,,,,,,,,,,,,,,,,,,,0.065,,,,,,,,,,,,,,,,,,,,,,,,,,,,right,1,70,30,100,1,2416.671039,2416.671039,2416.671039,None,None,1,1,0.7902236,,,,,,,,,,,,,,,,,,,10,13,1,2024-10-28_12h07.22.819,uWM_experiment,2022.2.3,59.99383264
,,,,,,,,,,,,,,,,,,,,3,0,3,0,5,0,5,0,,,,,,,,,,,,,,,,,,,,,,,,,,,,,,,,,,,,,,,,,,,,,,,,,,,,,,,,,,,,,,,,,,,,,,0,,,,,,,,,,,,,,,,,,,,,,,,,,,,left,0,10,30,40,0,2427.388145,2427.388145,2427.388145,None,None,1,1,1.0571526,,,,,,,,,,,,,,,,,,,10,13,1,2024-10-28_12h07.22.819,uWM_experiment,2022.2.3,59.99383264
,,,,,,,,,,,,,,,,,,,,3,0,3,0,6,0,6,0,,,,,,,,,,,,,,,,,,,,,,,,,,,,,,,,,,,,,,,,,,,,,,,,,,,,,,,,,,,,,,,,,,,,,,0.1,,,,,,,,,,,,,,,,,,,,,,,,,,,,left,1,100,-30,70,2,2435.488478,2435.488478,2435.488478,None,None,1,1,0.7088401,,,,,,,,,,,,,,,,,,,10,13,1,2024-10-28_12h07.22.819,uWM_experiment,2022.2.3,59.99383264
,,,,,,,,,,,,,,,,,,,,3,0,3,0,7,0,7,0,,,,,,,,,,,,,,,,,,,,,,,,,,,,,,,,,,,,,,,,,,,,,,,,,,,,,,,,,,,,,,,,,,,,,,0.075,,,,,,,,,,,,,,,,,,,,,,,,,,,,right,1,130,30,160,1,2442.105379,2442.105379,2442.105379,None,None,1,1,0.9477998,,,,,,,,,,,,,,,,,,,10,13,1,2024-10-28_12h07.22.819,uWM_experiment,2022.2.3,59.99383264
,,,,,,,,,,,,,,,,,,,,3,0,3,0,8,0,8,0,,,,,,,,,,,,,,,,,,,,,,,,,,,,,,,,,,,,,,,,,,,,,,,,,,,,,,,,,,,,,,,,,,,,,,0,,,,,,,,,,,,,,,,,,,,,,,,,,,,left,0,40,30,70,0,2449.672384,2449.672384,2449.672384,None,None,2,0,0.9886221,,,,,,,,,,,,,,,,,,,10,13,1,2024-10-28_12h07.22.819,uWM_experiment,2022.2.3,59.99383264
,,,,,,,,,,,,,,,,,,,,3,0,3,0,9,0,9,0,,,,,,,,,,,,,,,,,,,,,,,,,,,,,,,,,,,,,,,,,,,,,,,,,,,,,,,,,,,,,,,,,,,,,,0.085,,,,,,,,,,,,,,,,,,,,,,,,,,,,left,1,160,-30,130,1,2457.222655,2457.222655,2457.222655,None,None,1,1,1.0144555,,,,,,,,,,,,,,,,,,,10,13,1,2024-10-28_12h07.22.819,uWM_experiment,2022.2.3,59.99383264
,,,,,,,,,,,,,,,,,,,,3,0,3,0,10,0,10,0,,,,,,,,,,,,,,,,,,,,,,,,,,,,,,,,,,,,,,,,,,,,,,,,,,,,,,,,,,,,,,,,,,,,,,0.095,,,,,,,,,,,,,,,,,,,,,,,,,,,,right,1,10,30,40,1,2463.989593,2463.989593,2463.989593,None,None,1,1,0.511414,,,,,,,,,,,,,,,,,,,10,13,1,2024-10-28_12h07.22.819,uWM_experiment,2022.2.3,59.99383264
,,,,,,,,,,,,,,,,,,,,3,0,3,0,11,0,11,0,,,,,,,,,,,,,,,,,,,,,,,,,,,,,,,,,,,,,,,,,,,,,,,,,,,,,,,,,,,,,,,,,,,,,,0.105,,,,,,,,,,,,,,,,,,,,,,,,,,,,right,1,40,30,70,1,2474.823383,2474.823383,2474.823383,None,None,2,0,1.6135957,,,,,,,,,,,,,,,,,,,10,13,1,2024-10-28_12h07.22.819,uWM_experiment,2022.2.3,59.99383264
,,,,,,,,,,,,,,,,,,,,3,0,3,0,12,0,12,0,,,,,,,,,,,,,,,,,,,,,,,,,,,,,,,,,,,,,,,,,,,,,,,,,,,,,,,,,,,,,,,,,,,,,,0.095,,,,,,,,,,,,,,,,,,,,,,,,,,,,left,1,130,-30,100,1,2481.706958,2481.706958,2481.706958,None,None,2,0,2.2580499,,,,,,,,,,,,,,,,,,,10,13,1,2024-10-28_12h07.22.819,uWM_experiment,2022.2.3,59.99383264
,,,,,,,,,,,,,,,,,,,,3,0,3,0,13,0,13,0,,,,,,,,,,,,,,,,,,,,,,,,,,,,,,,,,,,,,,,,,,,,,,,,,,,,,,,,,,,,,,,,,,,,,,0.085,,,,,,,,,,,,,,,,,,,,,,,,,,,,left,1,10,-30,-20,1,2490.940637,2490.940637,2490.940637,None,None,1,1,0.8003711,,,,,,,,,,,,,,,,,,,10,13,1,2024-10-28_12h07.22.819,uWM_experiment,2022.2.3,59.99383264
,,,,,,,,,,,,,,,,,,,,3,0,3,0,14,0,14,0,,,,,,,,,,,,,,,,,,,,,,,,,,,,,,,,,,,,,,,,,,,,,,,,,,,,,,,,,,,,,,,,,,,,,,0,,,,,,,,,,,,,,,,,,,,,,,,,,,,right,0,40,-30,10,0,2497.507564,2497.507564,2497.507564,None,None,2,0,0.8492335,,,,,,,,,,,,,,,,,,,10,13,1,2024-10-28_12h07.22.819,uWM_experiment,2022.2.3,59.99383264
,,,,,,,,,,,,,,,,,,,,3,0,3,0,15,0,15,0,,,,,,,,,,,,,,,,,,,,,,,,,,,,,,,,,,,,,,,,,,,,,,,,,,,,,,,,,,,,,,,,,,,,,,0.095,,,,,,,,,,,,,,,,,,,,,,,,,,,,right,0,40,-30,10,1,2504.291187,2504.291187,2504.291187,None,None,2,0,0.8895308,,,,,,,,,,,,,,,,,,,10,13,1,2024-10-28_12h07.22.819,uWM_experiment,2022.2.3,59.99383264
,,,,,,,,,,,,,,,,,,,,3,0,3,0,16,0,16,0,,,,,,,,,,,,,,,,,,,,,,,,,,,,,,,,,,,,,,,,,,,,,,,,,,,,,,,,,,,,,,,,,,,,,,0.085,,,,,,,,,,,,,,,,,,,,,,,,,,,,right,1,40,30,70,1,2511.158124,2511.158124,2511.158124,None,None,1,1,0.9106124,,,,,,,,,,,,,,,,,,,10,13,1,2024-10-28_12h07.22.819,uWM_experiment,2022.2.3,59.99383264
,,,,,,,,,,,,,,,,,,,,3,0,3,0,17,0,17,0,,,,,,,,,,,,,,,,,,,,,,,,,,,,,,,,,,,,,,,,,,,,,,,,,,,,,,,,,,,,,,,,,,,,,,0,,,,,,,,,,,,,,,,,,,,,,,,,,,,left,0,130,30,160,0,2517.608387,2517.608387,2517.608387,None,None,1,1,0.8283287,,,,,,,,,,,,,,,,,,,10,13,1,2024-10-28_12h07.22.819,uWM_experiment,2022.2.3,59.99383264
,,,,,,,,,,,,,,,,,,,,3,0,3,0,18,0,18,0,,,,,,,,,,,,,,,,,,,,,,,,,,,,,,,,,,,,,,,,,,,,,,,,,,,,,,,,,,,,,,,,,,,,,,0.095,,,,,,,,,,,,,,,,,,,,,,,,,,,,left,0,10,30,40,1,2525.275347,2525.275347,2525.275347,None,None,2,0,2.009434,,,,,,,,,,,,,,,,,,,10,13,1,2024-10-28_12h07.22.819,uWM_experiment,2022.2.3,59.99383264
,,,,,,,,,,,,,,,,,,,,3,0,3,0,19,0,19,0,,,,,,,,,,,,,,,,,,,,,,,,,,,,,,,,,,,,,,,,,,,,,,,,,,,,,,,,,,,,,,,,,,,,,,0,,,,,,,,,,,,,,,,,,,,,,,,,,,,right,1,40,30,70,0,2533.509027,2533.509027,2533.509027,None,None,2,0,1.5757355,,,,,,,,,,,,,,,,,,,10,13,1,2024-10-28_12h07.22.819,uWM_experiment,2022.2.3,59.99383264
,,,,,,,,,,,,,,,,,,,,3,0,3,0,20,0,20,0,,,,,,,,,,,,,,,,,,,,,,,,,,,,,,,,,,,,,,,,,,,,,,,,,,,,,,,,,,,,,,,,,,,,,,0.085,,,,,,,,,,,,,,,,,,,,,,,,,,,,right,1,40,30,70,1,2541.542642,2541.542642,2541.542642,None,None,1,1,0.7179257,,,,,,,,,,,,,,,,,,,10,13,1,2024-10-28_12h07.22.819,uWM_experiment,2022.2.3,59.99383264
,,,,,,,,,,,,,,,,,,,,3,0,3,0,21,0,21,0,,,,,,,,,,,,,,,,,,,,,,,,,,,,,,,,,,,,,,,,,,,,,,,,,,,,,,,,,,,,,,,,,,,,,,0.095,,,,,,,,,,,,,,,,,,,,,,,,,,,,right,1,10,30,40,1,2548.29293,2548.29293,2548.29293,None,None,1,1,0.8076617,,,,,,,,,,,,,,,,,,,10,13,1,2024-10-28_12h07.22.819,uWM_experiment,2022.2.3,59.99383264
,,,,,,,,,,,,,,,,,,,,3,0,3,0,22,0,22,0,,,,,,,,,,,,,,,,,,,,,,,,,,,,,,,,,,,,,,,,,,,,,,,,,,,,,,,,,,,,,,,,,,,,,,0,,,,,,,,,,,,,,,,,,,,,,,,,,,,left,1,100,-30,70,0,2556.176555,2556.176555,2556.176555,None,None,2,0,0.8280285,,,,,,,,,,,,,,,,,,,10,13,1,2024-10-28_12h07.22.819,uWM_experiment,2022.2.3,59.99383264
,,,,,,,,,,,,,,,,,,,,3,0,3,0,23,0,23,0,,,,,,,,,,,,,,,,,,,,,,,,,,,,,,,,,,,,,,,,,,,,,,,,,,,,,,,,,,,,,,,,,,,,,,0,,,,,,,,,,,,,,,,,,,,,,,,,,,,left,0,130,30,160,0,2562.910211,2562.910211,2562.910211,None,None,1,1,0.7423978,,,,,,,,,,,,,,,,,,,10,13,1,2024-10-28_12h07.22.819,uWM_experiment,2022.2.3,59.99383264
,,,,,,,,,,,,,,,,,,,,3,0,3,0,,,,,0,0,0,0,,,,,,,,,,,,,,,,,,,,,,,,,,,,,,,,,,,,,,,,,,,,,,,,,,,,,,,,,,,,,,,,,,,,,,,,,,,,,,,,,,,,,,,,,,,,,,,,,,,,,,,,,,,,2563.676851,2563.676851,space,21.1356479,None,None,,,,,,,,,,,,,10,13,1,2024-10-28_12h07.22.819,uWM_experiment,2022.2.3,59.99383264
,,,,,,,,,,,,,,,,,,,,3,0,3,0,,,,,1,0,1,0,,,,,,,,,,,,,,,,,,,,,,,,,,,,,,,,,,,,,,,,,,,,,,,,,,,,,,,,,,,,,,,,,,,,,,,,,,,,,,,,,,,,,,,,,,,,,,,,,,,,,,,,,,,,,,,,,,,,,,,,,,,,,,10,13,1,2024-10-28_12h07.22.819,uWM_experiment,2022.2.3,59.99383264
,,,,,,,,,,,,,,,,,,,,3,0,3,0,,,,,2,0,2,0,,,,,,,,,,,,,,,,,,,,,,,,,,,,,,,,,,,,,,,,,,,,,,,,,,,,,,,,,,,,,,,,,,,,,,,,,,,,,,,,,,,,,,,,,,,,,,,,,,,,,,,,,,,,,,,,,,,,,,,,,,,,,,10,13,1,2024-10-28_12h07.22.819,uWM_experiment,2022.2.3,59.99383264
,,,,,,,,,,,,,,,,,,,,4,0,4,0,0,0,0,0,,,,,,,,,,,,,,,,,,,,,,,,,,,,,,,,,,,,,,,,,,,,,,,,,,,,,,,,,,,,,,,,,,,,,,0.105,,,,,,,,,,,,,,,,,,,,2584.844367,2585.544384,2585.844417,2586.544453,2586.844429,2587.544452,2587.544452,2587.86115,right,0,100,-30,70,1,2592.361318,2592.361318,2592.361318,None,None,1,1,0.7471174,,,,,,,None,,,,,,,,,,,,10,13,1,2024-10-28_12h07.22.819,uWM_experiment,2022.2.3,59.99383264
,,,,,,,,,,,,,,,,,,,,4,0,4,0,1,0,1,0,,,,,,,,,,,,,,,,,,,,,,,,,,,,,,,,,,,,,,,,,,,,,,,,,,,,,,,,,,,,,,,,,,,,,,0.115,,,,,,,,,,,,,,,,,,,,,,,,,,,,left,0,70,30,100,1,2598.928253,2598.928253,2598.928253,None,None,2,0,1.1561863,,,,,,,,,,,,,,,,,,,10,13,1,2024-10-28_12h07.22.819,uWM_experiment,2022.2.3,59.99383264
,,,,,,,,,,,,,,,,,,,,4,0,4,0,2,0,2,0,,,,,,,,,,,,,,,,,,,,,,,,,,,,,,,,,,,,,,,,,,,,,,,,,,,,,,,,,,,,,,,,,,,,,,0.105,,,,,,,,,,,,,,,,,,,,,,,,,,,,right,0,10,-30,-20,1,2607.47858,2607.47858,2607.47858,None,None,1,1,0.9497327,,,,,,,,,,,,,,,,,,,10,13,1,2024-10-28_12h07.22.819,uWM_experiment,2022.2.3,59.99383264
,,,,,,,,,,,,,,,,,,,,4,0,4,0,3,0,3,0,,,,,,,,,,,,,,,,,,,,,,,,,,,,,,,,,,,,,,,,,,,,,,,,,,,,,,,,,,,,,,,,,,,,,,0,,,,,,,,,,,,,,,,,,,,,,,,,,,,right,0,70,-30,40,0,2619.279076,2619.279076,2619.279076,None,None,1,1,1.5171648,,,,,,,,,,,,,,,,,,,10,13,1,2024-10-28_12h07.22.819,uWM_experiment,2022.2.3,59.99383264
,,,,,,,,,,,,,,,,,,,,4,0,4,0,4,0,4,0,,,,,,,,,,,,,,,,,,,,,,,,,,,,,,,,,,,,,,,,,,,,,,,,,,,,,,,,,,,,,,,,,,,,,,0.115,,,,,,,,,,,,,,,,,,,,,,,,,,,,left,0,100,30,130,1,2627.846105,2627.846105,2627.846105,None,None,1,1,0.5101368,,,,,,,,,,,,,,,,,,,10,13,1,2024-10-28_12h07.22.819,uWM_experiment,2022.2.3,59.99383264
,,,,,,,,,,,,,,,,,,,,4,0,4,0,5,0,5,0,,,,,,,,,,,,,,,,,,,,,,,,,,,,,,,,,,,,,,,,,,,,,,,,,,,,,,,,,,,,,,,,,,,,,,0.1,,,,,,,,,,,,,,,,,,,,,,,,,,,,left,0,70,30,100,2,2639.179859,2639.179859,2639.179859,None,None,3,0,2.9842356,,,,,,,,,,,,,,,,,,,10,13,1,2024-10-28_12h07.22.819,uWM_experiment,2022.2.3,59.99383264
,,,,,,,,,,,,,,,,,,,,4,0,4,0,6,0,6,0,,,,,,,,,,,,,,,,,,,,,,,,,,,,,,,,,,,,,,,,,,,,,,,,,,,,,,,,,,,,,,,,,,,,,,0,,,,,,,,,,,,,,,,,,,,,,,,,,,,left,0,130,30,160,0,2648.996899,2648.996899,2648.996899,None,None,1,1,1.295214,,,,,,,,,,,,,,,,,,,10,13,1,2024-10-28_12h07.22.819,uWM_experiment,2022.2.3,59.99383264
,,,,,,,,,,,,,,,,,,,,4,0,4,0,7,0,7,0,,,,,,,,,,,,,,,,,,,,,,,,,,,,,,,,,,,,,,,,,,,,,,,,,,,,,,,,,,,,,,,,,,,,,,0.125,,,,,,,,,,,,,,,,,,,,,,,,,,,,left,0,100,30,130,1,2657.230545,2657.230545,2657.230545,None,None,2,0,3.6135323,,,,,,,,,,,,,,,,,,,10,13,1,2024-10-28_12h07.22.819,uWM_experiment,2022.2.3,59.99383264
,,,,,,,,,,,,,,,,,,,,4,0,4,0,8,0,8,0,,,,,,,,,,,,,,,,,,,,,,,,,,,,,,,,,,,,,,,,,,,,,,,,,,,,,,,,,,,,,,,,,,,,,,0.115,,,,,,,,,,,,,,,,,,,,,,,,,,,,left,0,100,30,130,1,2667.514313,2667.514313,2667.514313,None,None,1,1,0.6257946,,,,,,,,,,,,,,,,,,,10,13,1,2024-10-28_12h07.22.819,uWM_experiment,2022.2.3,59.99383264
,,,,,,,,,,,,,,,,,,,,4,0,4,0,9,0,9,0,,,,,,,,,,,,,,,,,,,,,,,,,,,,,,,,,,,,,,,,,,,,,,,,,,,,,,,,,,,,,,,,,,,,,,0,,,,,,,,,,,,,,,,,,,,,,,,,,,,right,0,100,-30,70,0,2673.981219,2673.981219,2673.981219,None,None,1,1,1.4706959,,,,,,,,,,,,,,,,,,,10,13,1,2024-10-28_12h07.22.819,uWM_experiment,2022.2.3,59.99383264
,,,,,,,,,,,,,,,,,,,,4,0,4,0,10,0,10,0,,,,,,,,,,,,,,,,,,,,,,,,,,,,,,,,,,,,,,,,,,,,,,,,,,,,,,,,,,,,,,,,,,,,,,0,,,,,,,,,,,,,,,,,,,,,,,,,,,,right,1,10,30,40,0,2683.998269,2683.998269,2683.998269,None,None,1,1,0.8936613,,,,,,,,,,,,,,,,,,,10,13,1,2024-10-28_12h07.22.819,uWM_experiment,2022.2.3,59.99383264
,,,,,,,,,,,,,,,,,,,,4,0,4,0,11,0,11,0,,,,,,,,,,,,,,,,,,,,,,,,,,,,,,,,,,,,,,,,,,,,,,,,,,,,,,,,,,,,,,,,,,,,,,0,,,,,,,,,,,,,,,,,,,,,,,,,,,,right,1,10,30,40,0,2690.748569,2690.748569,2690.748569,None,None,2,0,0.6872588,,,,,,,,,,,,,,,,,,,10,13,1,2024-10-28_12h07.22.819,uWM_experiment,2022.2.3,59.99383264
,,,,,,,,,,,,,,,,,,,,4,0,4,0,12,0,12,0,,,,,,,,,,,,,,,,,,,,,,,,,,,,,,,,,,,,,,,,,,,,,,,,,,,,,,,,,,,,,,,,,,,,,,0.125,,,,,,,,,,,,,,,,,,,,,,,,,,,,left,1,160,-30,130,1,2697.882176,2697.882176,2697.882176,None,None,1,1,2.2497956,,,,,,,,,,,,,,,,,,,10,13,1,2024-10-28_12h07.22.819,uWM_experiment,2022.2.3,59.99383264
,,,,,,,,,,,,,,,,,,,,4,0,4,0,13,0,13,0,,,,,,,,,,,,,,,,,,,,,,,,,,,,,,,,,,,,,,,,,,,,,,,,,,,,,,,,,,,,,,,,,,,,,,0.135,,,,,,,,,,,,,,,,,,,,,,,,,,,,right,1,40,30,70,1,2705.615778,2705.615778,2705.615778,None,None,2,0,1.3879918,,,,,,,,,,,,,,,,,,,10,13,1,2024-10-28_12h07.22.819,uWM_experiment,2022.2.3,59.99383264
,,,,,,,,,,,,,,,,,,,,4,0,4,0,14,0,14,0,,,,,,,,,,,,,,,,,,,,,,,,,,,,,,,,,,,,,,,,,,,,,,,,,,,,,,,,,,,,,,,,,,,,,,0.125,,,,,,,,,,,,,,,,,,,,,,,,,,,,left,0,70,30,100,1,2713.099426,2713.099426,2713.099426,None,None,2,0,1.9444782,,,,,,,,,,,,,,,,,,,10,13,1,2024-10-28_12h07.22.819,uWM_experiment,2022.2.3,59.99383264
,,,,,,,,,,,,,,,,,,,,4,0,4,0,15,0,15,0,,,,,,,,,,,,,,,,,,,,,,,,,,,,,,,,,,,,,,,,,,,,,,,,,,,,,,,,,,,,,,,,,,,,,,0,,,,,,,,,,,,,,,,,,,,,,,,,,,,left,0,100,30,130,0,2722.199778,2722.199778,2722.199778,None,None,1,1,3.5160509,,,,,,,,,,,,,,,,,,,10,13,1,2024-10-28_12h07.22.819,uWM_experiment,2022.2.3,59.99383264
,,,,,,,,,,,,,,,,,,,,4,0,4,0,16,0,16,0,,,,,,,,,,,,,,,,,,,,,,,,,,,,,,,,,,,,,,,,,,,,,,,,,,,,,,,,,,,,,,,,,,,,,,0,,,,,,,,,,,,,,,,,,,,,,,,,,,,right,1,130,30,160,0,2731.450155,2731.450155,2731.450155,None,None,1,1,1.6656411,,,,,,,,,,,,,,,,,,,10,13,1,2024-10-28_12h07.22.819,uWM_experiment,2022.2.3,59.99383264
,,,,,,,,,,,,,,,,,,,,4,0,4,0,17,0,17,0,,,,,,,,,,,,,,,,,,,,,,,,,,,,,,,,,,,,,,,,,,,,,,,,,,,,,,,,,,,,,,,,,,,,,,0,,,,,,,,,,,,,,,,,,,,,,,,,,,,left,1,10,-30,-20,0,2738.533782,2738.533782,2738.533782,None,None,2,0,1.0459286,,,,,,,,,,,,,,,,,,,10,13,1,2024-10-28_12h07.22.819,uWM_experiment,2022.2.3,59.99383264
,,,,,,,,,,,,,,,,,,,,4,0,4,0,18,0,18,0,,,,,,,,,,,,,,,,,,,,,,,,,,,,,,,,,,,,,,,,,,,,,,,,,,,,,,,,,,,,,,,,,,,,,,0,,,,,,,,,,,,,,,,,,,,,,,,,,,,left,0,100,30,130,0,2746.767416,2746.767416,2746.767416,None,None,1,1,0.7321907,,,,,,,,,,,,,,,,,,,10,13,1,2024-10-28_12h07.22.819,uWM_experiment,2022.2.3,59.99383264
,,,,,,,,,,,,,,,,,,,,4,0,4,0,19,0,19,0,,,,,,,,,,,,,,,,,,,,,,,,,,,,,,,,,,,,,,,,,,,,,,,,,,,,,,,,,,,,,,,,,,,,,,0.115,,,,,,,,,,,,,,,,,,,,,,,,,,,,left,1,10,-30,-20,1,2753.317694,2753.317694,2753.317694,None,None,1,1,2.0300199,,,,,,,,,,,,,,,,,,,10,13,1,2024-10-28_12h07.22.819,uWM_experiment,2022.2.3,59.99383264
,,,,,,,,,,,,,,,,,,,,4,0,4,0,20,0,20,0,,,,,,,,,,,,,,,,,,,,,,,,,,,,,,,,,,,,,,,,,,,,,,,,,,,,,,,,,,,,,,,,,,,,,,0.125,,,,,,,,,,,,,,,,,,,,,,,,,,,,right,0,70,-30,40,1,2761.001339,2761.001339,2761.001339,None,None,1,1,1.6903184,,,,,,,,,,,,,,,,,,,10,13,1,2024-10-28_12h07.22.819,uWM_experiment,2022.2.3,59.99383264
,,,,,,,,,,,,,,,,,,,,4,0,4,0,21,0,21,0,,,,,,,,,,,,,,,,,,,,,,,,,,,,,,,,,,,,,,,,,,,,,,,,,,,,,,,,,,,,,,,,,,,,,,0.135,,,,,,,,,,,,,,,,,,,,,,,,,,,,left,0,40,30,70,1,2769.001621,2769.001621,2769.001621,None,None,1,1,3.5779541,,,,,,,,,,,,,,,,,,,10,13,1,2024-10-28_12h07.22.819,uWM_experiment,2022.2.3,59.99383264
,,,,,,,,,,,,,,,,,,,,4,0,4,0,22,0,22,0,,,,,,,,,,,,,,,,,,,,,,,,,,,,,,,,,,,,,,,,,,,,,,,,,,,,,,,,,,,,,,,,,,,,,,0.145,,,,,,,,,,,,,,,,,,,,,,,,,,,,right,1,100,30,130,1,2778.352004,2778.352004,2778.352004,None,None,2,0,1.4435698,,,,,,,,,,,,,,,,,,,10,13,1,2024-10-28_12h07.22.819,uWM_experiment,2022.2.3,59.99383264
,,,,,,,,,,,,,,,,,,,,4,0,4,0,23,0,23,0,,,,,,,,,,,,,,,,,,,,,,,,,,,,,,,,,,,,,,,,,,,,,,,,,,,,,,,,,,,,,,,,,,,,,,0.135,,,,,,,,,,,,,,,,,,,,,,,,,,,,right,0,70,-30,40,1,2786.102323,2786.102323,2786.102323,None,None,1,1,0.9651958,,,,,,,,,,,,,,,,,,,10,13,1,2024-10-28_12h07.22.819,uWM_experiment,2022.2.3,59.99383264
,,,,,,,,,,,,,,,,,,,,4,0,4,0,,,,,0,0,0,0,,,,,,,,,,,,,,,,,,,,,,,,,,,,,,,,,,,,,,,,,,,,,,,,,,,,,,,,,,,,,,,,,,,,,,,,,,,,,,,,,,,,,,,,,,,,,,,,,,,,,,,,,,,,2787.085671,2787.085671,space,40.2296837,None,None,,,,,,,,,,,,,10,13,1,2024-10-28_12h07.22.819,uWM_experiment,2022.2.3,59.99383264
,,,,,,,,,,,,,,,,,,,,4,0,4,0,,,,,1,0,1,0,,,,,,,,,,,,,,,,,,,,,,,,,,,,,,,,,,,,,,,,,,,,,,,,,,,,,,,,,,,,,,,,,,,,,,,,,,,,,,,,,,,,,,,,,,,,,,,,,,,,,,,,,,,,,,,,,,,,,,,,,,,,,,10,13,1,2024-10-28_12h07.22.819,uWM_experiment,2022.2.3,59.99383264
,,,,,,,,,,,,,,,,,,,,4,0,4,0,,,,,2,0,2,0,,,,,,,,,,,,,,,,,,,,,,,,,,,,,,,,,,,,,,,,,,,,,,,,,,,,,,,,,,,,,,,,,,,,,,,,,,,,,,,,,,,,,,,,,,,,,,,,,,,,,,,,,,,,,,,,,,,,,,,,,,,,,,10,13,1,2024-10-28_12h07.22.819,uWM_experiment,2022.2.3,59.99383264
,,,,,,,,,,,,,,,,,,,,5,0,5,0,0,0,0,0,,,,,,,,,,,,,,,,,,,,,,,,,,,,,,,,,,,,,,,,,,,,,,,,,,,,,,,,,,,,,,,,,,,,,,0.145,,,,,,,,,,,,,,,,,,,,2827.337267,2828.037292,2828.337307,2829.037331,2829.33735,2830.03737,2830.03737,2830.354061,right,1,160,30,190,1,2835.187567,2835.187567,2835.187567,None,None,1,1,0.7035976,,,,,,,None,,,,,,,,,,,,10,13,1,2024-10-28_12h07.22.819,uWM_experiment,2022.2.3,59.99383264
,,,,,,,,,,,,,,,,,,,,5,0,5,0,1,0,1,0,,,,,,,,,,,,,,,,,,,,,,,,,,,,,,,,,,,,,,,,,,,,,,,,,,,,,,,,,,,,,,,,,,,,,,0.155,,,,,,,,,,,,,,,,,,,,,,,,,,,,right,0,70,-30,40,1,2841.80451,2841.80451,2841.80451,None,None,2,0,0.6706113,,,,,,,,,,,,,,,,,,,10,13,1,2024-10-28_12h07.22.819,uWM_experiment,2022.2.3,59.99383264
,,,,,,,,,,,,,,,,,,,,5,0,5,0,2,0,2,0,,,,,,,,,,,,,,,,,,,,,,,,,,,,,,,,,,,,,,,,,,,,,,,,,,,,,,,,,,,,,,,,,,,,,,0.145,,,,,,,,,,,,,,,,,,,,,,,,,,,,left,0,160,30,190,1,2849.638128,2849.638128,2849.638128,None,None,1,1,1.0369774,,,,,,,,,,,,,,,,,,,10,13,1,2024-10-28_12h07.22.819,uWM_experiment,2022.2.3,59.99383264
,,,,,,,,,,,,,,,,,,,,5,0,5,0,3,0,3,0,,,,,,,,,,,,,,,,,,,,,,,,,,,,,,,,,,,,,,,,,,,,,,,,,,,,,,,,,,,,,,,,,,,,,,0,,,,,,,,,,,,,,,,,,,,,,,,,,,,left,0,100,30,130,0,2856.738463,2856.738463,2856.738463,None,None,1,1,1.3686001,,,,,,,,,,,,,,,,,,,10,13,1,2024-10-28_12h07.22.819,uWM_experiment,2022.2.3,59.99383264
,,,,,,,,,,,,,,,,,,,,5,0,5,0,4,0,4,0,,,,,,,,,,,,,,,,,,,,,,,,,,,,,,,,,,,,,,,,,,,,,,,,,,,,,,,,,,,,,,,,,,,,,,0.155,,,,,,,,,,,,,,,,,,,,,,,,,,,,left,1,100,-30,70,1,2863.872069,2863.872069,2863.872069,None,None,2,0,0.6830118,,,,,,,,,,,,,,,,,,,10,13,1,2024-10-28_12h07.22.819,uWM_experiment,2022.2.3,59.99383264
,,,,,,,,,,,,,,,,,,,,5,0,5,0,5,0,5,0,,,,,,,,,,,,,,,,,,,,,,,,,,,,,,,,,,,,,,,,,,,,,,,,,,,,,,,,,,,,,,,,,,,,,,0.145,,,,,,,,,,,,,,,,,,,,,,,,,,,,right,1,70,30,100,1,2870.705652,2870.705652,2870.705652,None,None,1,1,0.7775084,,,,,,,,,,,,,,,,,,,10,13,1,2024-10-28_12h07.22.819,uWM_experiment,2022.2.3,59.99383264
,,,,,,,,,,,,,,,,,,,,5,0,5,0,6,0,6,0,,,,,,,,,,,,,,,,,,,,,,,,,,,,,,,,,,,,,,,,,,,,,,,,,,,,,,,,,,,,,,,,,,,,,,0,,,,,,,,,,,,,,,,,,,,,,,,,,,,left,1,40,-30,10,0,2876.78923,2876.78923,2876.78923,None,None,2,0,1.821836,,,,,,,,,,,,,,,,,,,10,13,1,2024-10-28_12h07.22.819,uWM_experiment,2022.2.3,59.99383264
,,,,,,,,,,,,,,,,,,,,5,0,5,0,7,0,7,0,,,,,,,,,,,,,,,,,,,,,,,,,,,,,,,,,,,,,,,,,,,,,,,,,,,,,,,,,,,,,,,,,,,,,,0.155,,,,,,,,,,,,,,,,,,,,,,,,,,,,right,1,130,30,160,1,2884.639528,2884.639528,2884.639528,None,None,1,1,1.3954421,,,,,,,,,,,,,,,,,,,10,13,1,2024-10-28_12h07.22.819,uWM_experiment,2022.2.3,59.99383264
,,,,,,,,,,,,,,,,,,,,5,0,5,0,8,0,8,0,,,,,,,,,,,,,,,,,,,,,,,,,,,,,,,,,,,,,,,,,,,,,,,,,,,,,,,,,,,,,,,,,,,,,,0.165,,,,,,,,,,,,,,,,,,,,,,,,,,,,right,0,100,-30,70,1,2892.3732,2892.3732,2892.3732,None,None,2,0,0.6536777,,,,,,,,,,,,,,,,,,,10,13,1,2024-10-28_12h07.22.819,uWM_experiment,2022.2.3,59.99383264
,,,,,,,,,,,,,,,,,,,,5,0,5,0,9,0,9,0,,,,,,,,,,,,,,,,,,,,,,,,,,,,,,,,,,,,,,,,,,,,,,,,,,,,,,,,,,,,,,,,,,,,,,0,,,,,,,,,,,,,,,,,,,,,,,,,,,,left,0,160,30,190,0,2898.323415,2898.323415,2898.323415,None,None,2,0,1.0955789,,,,,,,,,,,,,,,,,,,10,13,1,2024-10-28_12h07.22.819,uWM_experiment,2022.2.3,59.99383264
,,,,,,,,,,,,,,,,,,,,5,0,5,0,10,0,10,0,,,,,,,,,,,,,,,,,,,,,,,,,,,,,,,,,,,,,,,,,,,,,,,,,,,,,,,,,,,,,,,,,,,,,,0,,,,,,,,,,,,,,,,,,,,,,,,,,,,right,0,70,-30,40,0,2904.990349,2904.990349,2904.990349,None,None,1,1,0.9085741,,,,,,,,,,,,,,,,,,,10,13,1,2024-10-28_12h07.22.819,uWM_experiment,2022.2.3,59.99383264
,,,,,,,,,,,,,,,,,,,,5,0,5,0,11,0,11,0,,,,,,,,,,,,,,,,,,,,,,,,,,,,,,,,,,,,,,,,,,,,,,,,,,,,,,,,,,,,,,,,,,,,,,0.155,,,,,,,,,,,,,,,,,,,,,,,,,,,,right,0,100,-30,70,1,2911.640589,2911.640589,2911.640589,None,None,1,1,1.5303912,,,,,,,,,,,,,,,,,,,10,13,1,2024-10-28_12h07.22.819,uWM_experiment,2022.2.3,59.99383264
,,,,,,,,,,,,,,,,,,,,5,0,5,0,12,0,12,0,,,,,,,,,,,,,,,,,,,,,,,,,,,,,,,,,,,,,,,,,,,,,,,,,,,,,,,,,,,,,,,,,,,,,,0.165,,,,,,,,,,,,,,,,,,,,,,,,,,,,right,0,130,-30,100,1,2921.357656,2921.357656,2921.357656,None,None,1,1,1.125305,,,,,,,,,,,,,,,,,,,10,13,1,2024-10-28_12h07.22.819,uWM_experiment,2022.2.3,59.99383264
,,,,,,,,,,,,,,,,,,,,5,0,5,0,13,0,13,0,,,,,,,,,,,,,,,,,,,,,,,,,,,,,,,,,,,,,,,,,,,,,,,,,,,,,,,,,,,,,,,,,,,,,,0,,,,,,,,,,,,,,,,,,,,,,,,,,,,left,1,70,-30,40,0,2928.107929,2928.107929,2928.107929,None,None,1,1,0.9028601,,,,,,,,,,,,,,,,,,,10,13,1,2024-10-28_12h07.22.819,uWM_experiment,2022.2.3,59.99383264
,,,,,,,,,,,,,,,,,,,,5,0,5,0,14,0,14,0,,,,,,,,,,,,,,,,,,,,,,,,,,,,,,,,,,,,,,,,,,,,,,,,,,,,,,,,,,,,,,,,,,,,,,0.175,,,,,,,,,,,,,,,,,,,,,,,,,,,,right,1,160,30,190,1,2935.441563,2935.441563,2935.441563,None,None,1,1,1.0253388,,,,,,,,,,,,,,,,,,,10,13,1,2024-10-28_12h07.22.819,uWM_experiment,2022.2.3,59.99383264
,,,,,,,,,,,,,,,,,,,,5,0,5,0,15,0,15,0,,,,,,,,,,,,,,,,,,,,,,,,,,,,,,,,,,,,,,,,,,,,,,,,,,,,,,,,,,,,,,,,,,,,,,0.185,,,,,,,,,,,,,,,,,,,,,,,,,,,,left,1,160,-30,130,1,2942.441806,2942.441806,2942.441806,None,None,1,1,2.1129998,,,,,,,,,,,,,,,,,,,10,13,1,2024-10-28_12h07.22.819,uWM_experiment,2022.2.3,59.99383264
,,,,,,,,,,,,,,,,,,,,5,0,5,0,16,0,16,0,,,,,,,,,,,,,,,,,,,,,,,,,,,,,,,,,,,,,,,,,,,,,,,,,,,,,,,,,,,,,,,,,,,,,,0.195,,,,,,,,,,,,,,,,,,,,,,,,,,,,right,1,160,30,190,1,2950.275451,2950.275451,2950.275451,None,None,2,0,0.5992444,,,,,,,,,,,,,,,,,,,10,13,1,2024-10-28_12h07.22.819,uWM_experiment,2022.2.3,59.99383264
,,,,,,,,,,,,,,,,,,,,5,0,5,0,17,0,17,0,,,,,,,,,,,,,,,,,,,,,,,,,,,,,,,,,,,,,,,,,,,,,,,,,,,,,,,,,,,,,,,,,,,,,,0.185,,,,,,,,,,,,,,,,,,,,,,,,,,,,left,0,100,30,130,1,2957.47574,2957.47574,2957.47574,None,None,1,1,3.630883,,,,,,,,,,,,,,,,,,,10,13,1,2024-10-28_12h07.22.819,uWM_experiment,2022.2.3,59.99383264
,,,,,,,,,,,,,,,,,,,,5,0,5,0,18,0,18,0,,,,,,,,,,,,,,,,,,,,,,,,,,,,,,,,,,,,,,,,,,,,,,,,,,,,,,,,,,,,,,,,,,,,,,0.195,,,,,,,,,,,,,,,,,,,,,,,,,,,,left,1,70,-30,40,1,2967.342807,2967.342807,2967.342807,None,None,1,1,0.8118645,,,,,,,,,,,,,,,,,,,10,13,1,2024-10-28_12h07.22.819,uWM_experiment,2022.2.3,59.99383264
,,,,,,,,,,,,,,,,,,,,5,0,5,0,19,0,19,0,,,,,,,,,,,,,,,,,,,,,,,,,,,,,,,,,,,,,,,,,,,,,,,,,,,,,,,,,,,,,,,,,,,,,,0.205,,,,,,,,,,,,,,,,,,,,,,,,,,,,right,0,100,-30,70,1,2974.393089,2974.393089,2974.393089,None,None,2,0,1.4975682,,,,,,,,,,,,,,,,,,,10,13,1,2024-10-28_12h07.22.819,uWM_experiment,2022.2.3,59.99383264
,,,,,,,,,,,,,,,,,,,,5,0,5,0,20,0,20,0,,,,,,,,,,,,,,,,,,,,,,,,,,,,,,,,,,,,,,,,,,,,,,,,,,,,,,,,,,,,,,,,,,,,,,0,,,,,,,,,,,,,,,,,,,,,,,,,,,,left,1,100,-30,70,0,2982.710079,2982.710079,2982.710079,None,None,1,1,1.6765534,,,,,,,,,,,,,,,,,,,10,13,1,2024-10-28_12h07.22.819,uWM_experiment,2022.2.3,59.99383264
,,,,,,,,,,,,,,,,,,,,5,0,5,0,21,0,21,0,,,,,,,,,,,,,,,,,,,,,,,,,,,,,,,,,,,,,,,,,,,,,,,,,,,,,,,,,,,,,,,,,,,,,,0,,,,,,,,,,,,,,,,,,,,,,,,,,,,right,1,160,30,190,0,2990.643733,2990.643733,2990.643733,None,None,2,0,0.9827973,,,,,,,,,,,,,,,,,,,10,13,1,2024-10-28_12h07.22.819,uWM_experiment,2022.2.3,59.99383264
,,,,,,,,,,,,,,,,,,,,5,0,5,0,22,0,22,0,,,,,,,,,,,,,,,,,,,,,,,,,,,,,,,,,,,,,,,,,,,,,,,,,,,,,,,,,,,,,,,,,,,,,,0.195,,,,,,,,,,,,,,,,,,,,,,,,,,,,left,0,130,30,160,1,2996.793963,2996.793963,2996.793963,None,None,1,1,2.2485985,,,,,,,,,,,,,,,,,,,10,13,1,2024-10-28_12h07.22.819,uWM_experiment,2022.2.3,59.99383264
,,,,,,,,,,,,,,,,,,,,5,0,5,0,23,0,23,0,,,,,,,,,,,,,,,,,,,,,,,,,,,,,,,,,,,,,,,,,,,,,,,,,,,,,,,,,,,,,,,,,,,,,,0.205,,,,,,,,,,,,,,,,,,,,,,,,,,,,right,1,160,30,190,1,3004.394272,3004.394272,3004.394272,None,None,1,1,0.9922429,,,,,,,,,,,,,,,,,,,10,13,1,2024-10-28_12h07.22.819,uWM_experiment,2022.2.3,59.99383264
,,,,,,,,,,,,,,,,,,,,5,0,5,0,,,,,0,0,0,0,,,,,,,,,,,,,,,,,,,,,,,,,,,,,,,,,,,,,,,,,,,,,,,,,,,,,,,,,,,,,,,,,,,,,,,,,,,,,,,,,,,,,,,,,,,,,,,,,,,,,,,,,,,,3005.410986,3005.410986,space,48.8473497,space,None,,3054.279575,3054.279575,5.2267132,,,,,,,,,10,13,1,2024-10-28_12h07.22.819,uWM_experiment,2022.2.3,59.99383264
,,,,,,,,,,,,,,,,,,,,5,0,5,0,,,,,1,0,1,0,,,,,,,,,,,,,,,,,,,,,,,,,,,,,,,,,,,,,,,,,,,,,,,,,,,,,,,,,,,,,,,,,,,,,,,,,,,,,,,,,,,,,,,,,,,,,,,,,,,,,,,,,,,,,,,,,,,,,,,,,,,,,,10,13,1,2024-10-28_12h07.22.819,uWM_experiment,2022.2.3,59.99383264
,,,,,,,,,,,,,,,,,,,,5,0,5,0,,,,,2,0,2,0,,,,,,,,,,,,,,,,,,,,,,,,,,,,,,,,,,,,,,,,,,,,,,,,,,,,,,,,,,,,,,,,,,,,,,,,,,,,,,,,,,,,,,,,,,,,,,,,,,,,,,,,,,,,,,,,,,,,,,,,,,,,,,10,13,1,2024-10-28_12h07.22.819,uWM_experiment,2022.2.3,59.99383264
,,,,,,,,,,,,,,,,,,,,6,0,6,0,0,0,0,0,,,,,,,,,,,,,,,,,,,,,,,,,,,,,,,,,,,,,,,,,,,,,,,,,,,,,,,,,,,,,,,,,,,,,,0.215,,,,,,,,,,,,,,,,,,,,3059.529784,3060.229809,3060.529821,3061.22985,3061.529862,3062.229888,3062.229888,3062.546607,left,0,130,30,160,1,3068.630166,3068.630166,3068.630166,None,None,2,0,1.1800785,,,,,,,None,,,,,,,,,,,,10,13,1,2024-10-28_12h07.22.819,uWM_experiment,2022.2.3,59.99383264
,,,,,,,,,,,,,,,,,,,,6,0,6,0,1,0,1,0,,,,,,,,,,,,,,,,,,,,,,,,,,,,,,,,,,,,,,,,,,,,,,,,,,,,,,,,,,,,,,,,,,,,,,0.205,,,,,,,,,,,,,,,,,,,,,,,,,,,,left,1,160,-30,130,1,3075.44708,3075.44708,3075.44708,None,None,1,1,1.0910438,,,,,,,,,,,,,,,,,,,10,13,1,2024-10-28_12h07.22.819,uWM_experiment,2022.2.3,59.99383264
,,,,,,,,,,,,,,,,,,,,6,0,6,0,2,0,2,0,,,,,,,,,,,,,,,,,,,,,,,,,,,,,,,,,,,,,,,,,,,,,,,,,,,,,,,,,,,,,,,,,,,,,,0,,,,,,,,,,,,,,,,,,,,,,,,,,,,right,0,70,-30,40,0,3082.864041,3082.864041,3082.864041,None,None,2,0,0.8980805,,,,,,,,,,,,,,,,,,,10,13,1,2024-10-28_12h07.22.819,uWM_experiment,2022.2.3,59.99383264
,,,,,,,,,,,,,,,,,,,,6,0,6,0,3,0,3,0,,,,,,,,,,,,,,,,,,,,,,,,,,,,,,,,,,,,,,,,,,,,,,,,,,,,,,,,,,,,,,,,,,,,,,0,,,,,,,,,,,,,,,,,,,,,,,,,,,,left,0,100,30,130,0,3089.497659,3089.497659,3089.497659,None,None,1,1,0.7043038,,,,,,,,,,,,,,,,,,,10,13,1,2024-10-28_12h07.22.819,uWM_experiment,2022.2.3,59.99383264
,,,,,,,,,,,,,,,,,,,,6,0,6,0,4,0,4,0,,,,,,,,,,,,,,,,,,,,,,,,,,,,,,,,,,,,,,,,,,,,,,,,,,,,,,,,,,,,,,,,,,,,,,0.1,,,,,,,,,,,,,,,,,,,,,,,,,,,,right,0,100,-30,70,2,3097.114596,3097.114596,3097.114596,None,None,3,0,3.5353177,,,,,,,,,,,,,,,,,,,10,13,1,2024-10-28_12h07.22.819,uWM_experiment,2022.2.3,59.99383264
,,,,,,,,,,,,,,,,,,,,6,0,6,0,5,0,5,0,,,,,,,,,,,,,,,,,,,,,,,,,,,,,,,,,,,,,,,,,,,,,,,,,,,,,,,,,,,,,,,,,,,,,,0.215,,,,,,,,,,,,,,,,,,,,,,,,,,,,right,0,160,-30,130,1,3108.431723,3108.431723,3108.431723,None,None,2,0,2.1142525,,,,,,,,,,,,,,,,,,,10,13,1,2024-10-28_12h07.22.819,uWM_experiment,2022.2.3,59.99383264
,,,,,,,,,,,,,,,,,,,,6,0,6,0,6,0,6,0,,,,,,,,,,,,,,,,,,,,,,,,,,,,,,,,,,,,,,,,,,,,,,,,,,,,,,,,,,,,,,,,,,,,,,0.1,,,,,,,,,,,,,,,,,,,,,,,,,,,,right,0,70,-30,40,2,3116.948707,3116.948707,3116.948707,None,None,4,0,4.3173279,,,,,,,,,,,,,,,,,,,10,13,1,2024-10-28_12h07.22.819,uWM_experiment,2022.2.3,59.99383264
,,,,,,,,,,,,,,,,,,,,6,0,6,0,7,0,7,0,,,,,,,,,,,,,,,,,,,,,,,,,,,,,,,,,,,,,,,,,,,,,,,,,,,,,,,,,,,,,,,,,,,,,,0.205,,,,,,,,,,,,,,,,,,,,,,,,,,,,left,0,100,30,130,1,3127.565837,3127.565837,3127.565837,None,None,2,0,2.9719359,,,,,,,,,,,,,,,,,,,10,13,1,2024-10-28_12h07.22.819,uWM_experiment,2022.2.3,59.99383264
,,,,,,,,,,,,,,,,,,,,6,0,6,0,8,0,8,0,,,,,,,,,,,,,,,,,,,,,,,,,,,,,,,,,,,,,,,,,,,,,,,,,,,,,,,,,,,,,,,,,,,,,,0.195,,,,,,,,,,,,,,,,,,,,,,,,,,,,left,1,160,-30,130,1,3137.332857,3137.332857,3137.332857,None,None,2,0,3.3008677,,,,,,,,,,,,,,,,,,,10,13,1,2024-10-28_12h07.22.819,uWM_experiment,2022.2.3,59.99383264
,,,,,,,,,,,,,,,,,,,,6,0,6,0,9,0,9,0,,,,,,,,,,,,,,,,,,,,,,,,,,,,,,,,,,,,,,,,,,,,,,,,,,,,,,,,,,,,,,,,,,,,,,0.1,,,,,,,,,,,,,,,,,,,,,,,,,,,,right,1,130,30,160,2,3148.616642,3148.616642,3148.616642,None,None,1,1,1.3771962,,,,,,,,,,,,,,,,,,,10,13,1,2024-10-28_12h07.22.819,uWM_experiment,2022.2.3,59.99383264
,,,,,,,,,,,,,,,,,,,,6,0,6,0,10,0,10,0,,,,,,,,,,,,,,,,,,,,,,,,,,,,,,,,,,,,,,,,,,,,,,,,,,,,,,,,,,,,,,,,,,,,,,0.185,,,,,,,,,,,,,,,,,,,,,,,,,,,,left,1,160,-30,130,1,3158.833729,3158.833729,3158.833729,None,None,3,0,1.6560559,,,,,,,,,,,,,,,,,,,10,13,1,2024-10-28_12h07.22.819,uWM_experiment,2022.2.3,59.99383264
,,,,,,,,,,,,,,,,,,,,6,0,6,0,11,0,11,0,,,,,,,,,,,,,,,,,,,,,,,,,,,,,,,,,,,,,,,,,,,,,,,,,,,,,,,,,,,,,,,,,,,,,,0.175,,,,,,,,,,,,,,,,,,,,,,,,,,,,right,1,40,30,70,1,3166.500675,3166.500675,3166.500675,None,None,2,0,1.6770934,,,,,,,,,,,,,,,,,,,10,13,1,2024-10-28_12h07.22.819,uWM_experiment,2022.2.3,59.99383264
,,,,,,,,,,,,,,,,,,,,6,0,6,0,12,0,12,0,,,,,,,,,,,,,,,,,,,,,,,,,,,,,,,,,,,,,,,,,,,,,,,,,,,,,,,,,,,,,,,,,,,,,,0.165,,,,,,,,,,,,,,,,,,,,,,,,,,,,left,1,10,-30,-20,1,3174.150999,3174.150999,3174.150999,None,None,2,0,1.8107456,,,,,,,,,,,,,,,,,,,10,13,1,2024-10-28_12h07.22.819,uWM_experiment,2022.2.3,59.99383264
,,,,,,,,,,,,,,,,,,,,6,0,6,0,13,0,13,0,,,,,,,,,,,,,,,,,,,,,,,,,,,,,,,,,,,,,,,,,,,,,,,,,,,,,,,,,,,,,,,,,,,,,,0.155,,,,,,,,,,,,,,,,,,,,,,,,,,,,left,1,130,-30,100,1,3181.884639,3181.884639,3181.884639,None,None,3,0,2.0770627,,,,,,,,,,,,,,,,,,,10,13,1,2024-10-28_12h07.22.819,uWM_experiment,2022.2.3,59.99383264
,,,,,,,,,,,,,,,,,,,,6,0,6,0,14,0,14,0,,,,,,,,,,,,,,,,,,,,,,,,,,,,,,,,,,,,,,,,,,,,,,,,,,,,,,,,,,,,,,,,,,,,,,0,,,,,,,,,,,,,,,,,,,,,,,,,,,,left,1,10,-30,-20,0,3191.068319,3191.068319,3191.068319,None,None,1,1,1.0452249,,,,,,,,,,,,,,,,,,,10,13,1,2024-10-28_12h07.22.819,uWM_experiment,2022.2.3,59.99383264
,,,,,,,,,,,,,,,,,,,,6,0,6,0,15,0,15,0,,,,,,,,,,,,,,,,,,,,,,,,,,,,,,,,,,,,,,,,,,,,,,,,,,,,,,,,,,,,,,,,,,,,,,0.145,,,,,,,,,,,,,,,,,,,,,,,,,,,,right,0,160,-30,130,1,3198.551949,3198.551949,3198.551949,None,None,2,0,1.2576796,,,,,,,,,,,,,,,,,,,10,13,1,2024-10-28_12h07.22.819,uWM_experiment,2022.2.3,59.99383264
,,,,,,,,,,,,,,,,,,,,6,0,6,0,16,0,16,0,,,,,,,,,,,,,,,,,,,,,,,,,,,,,,,,,,,,,,,,,,,,,,,,,,,,,,,,,,,,,,,,,,,,,,0.135,,,,,,,,,,,,,,,,,,,,,,,,,,,,right,1,40,30,70,1,3205.60222,3205.60222,3205.60222,None,None,3,0,1.4391887,,,,,,,,,,,,,,,,,,,10,13,1,2024-10-28_12h07.22.819,uWM_experiment,2022.2.3,59.99383264
,,,,,,,,,,,,,,,,,,,,6,0,6,0,17,0,17,0,,,,,,,,,,,,,,,,,,,,,,,,,,,,,,,,,,,,,,,,,,,,,,,,,,,,,,,,,,,,,,,,,,,,,,0.125,,,,,,,,,,,,,,,,,,,,,,,,,,,,left,0,70,30,100,1,3212.669188,3212.669188,3212.669188,None,None,2,0,1.6123824,,,,,,,,,,,,,,,,,,,10,13,1,2024-10-28_12h07.22.819,uWM_experiment,2022.2.3,59.99383264
,,,,,,,,,,,,,,,,,,,,6,0,6,0,18,0,18,0,,,,,,,,,,,,,,,,,,,,,,,,,,,,,,,,,,,,,,,,,,,,,,,,,,,,,,,,,,,,,,,,,,,,,,0.115,,,,,,,,,,,,,,,,,,,,,,,,,,,,right,0,100,-30,70,1,3219.986145,3219.986145,3219.986145,None,None,3,0,1.0073625,,,,,,,,,,,,,,,,,,,10,13,1,2024-10-28_12h07.22.819,uWM_experiment,2022.2.3,59.99383264
,,,,,,,,,,,,,,,,,,,,6,0,6,0,19,0,19,0,,,,,,,,,,,,,,,,,,,,,,,,,,,,,,,,,,,,,,,,,,,,,,,,,,,,,,,,,,,,,,,,,,,,,,0.105,,,,,,,,,,,,,,,,,,,,,,,,,,,,right,1,10,30,40,1,3227.403075,3227.403075,3227.403075,None,None,2,0,1.8623731,,,,,,,,,,,,,,,,,,,10,13,1,2024-10-28_12h07.22.819,uWM_experiment,2022.2.3,59.99383264
,,,,,,,,,,,,,,,,,,,,6,0,6,0,20,0,20,0,,,,,,,,,,,,,,,,,,,,,,,,,,,,,,,,,,,,,,,,,,,,,,,,,,,,,,,,,,,,,,,,,,,,,,0.095,,,,,,,,,,,,,,,,,,,,,,,,,,,,left,1,130,-30,100,1,3234.886709,3234.886709,3234.886709,None,None,2,0,2.1947343,,,,,,,,,,,,,,,,,,,10,13,1,2024-10-28_12h07.22.819,uWM_experiment,2022.2.3,59.99383264
,,,,,,,,,,,,,,,,,,,,6,0,6,0,21,0,21,0,,,,,,,,,,,,,,,,,,,,,,,,,,,,,,,,,,,,,,,,,,,,,,,,,,,,,,,,,,,,,,,,,,,,,,0.085,,,,,,,,,,,,,,,,,,,,,,,,,,,,right,0,100,-30,70,1,3242.487017,3242.487017,3242.487017,None,None,1,1,1.4022425,,,,,,,,,,,,,,,,,,,10,13,1,2024-10-28_12h07.22.819,uWM_experiment,2022.2.3,59.99383264
,,,,,,,,,,,,,,,,,,,,6,0,6,0,22,0,22,0,,,,,,,,,,,,,,,,,,,,,,,,,,,,,,,,,,,,,,,,,,,,,,,,,,,,,,,,,,,,,,,,,,,,,,0,,,,,,,,,,,,,,,,,,,,,,,,,,,,right,1,40,30,70,0,3249.670623,3249.670623,3249.670623,None,None,2,0,0.9227169,,,,,,,,,,,,,,,,,,,10,13,1,2024-10-28_12h07.22.819,uWM_experiment,2022.2.3,59.99383264
,,,,,,,,,,,,,,,,,,,,6,0,6,0,23,0,23,0,,,,,,,,,,,,,,,,,,,,,,,,,,,,,,,,,,,,,,,,,,,,,,,,,,,,,,,,,,,,,,,,,,,,,,0.095,,,,,,,,,,,,,,,,,,,,,,,,,,,,right,1,160,30,190,1,3257.087592,3257.087592,3257.087592,None,None,2,0,1.2176475,,,,,,,,,,,,,,,,,,,10,13,1,2024-10-28_12h07.22.819,uWM_experiment,2022.2.3,59.99383264
,,,,,,,,,,,,,,,,,,,,6,0,6,0,,,,,0,0,0,0,,,,,,,,,,,,,,,,,,,,,,,,,,,,,,,,,,,,,,,,,,,,,,,,,,,,,,,,,,,,,,,,,,,,,,,,,,,,,,,,,,,,,,,,,,,,,,,,,,,,,,,,,,,,3258.337629,3258.337629,space,46.5355744,None,space,,,,,3304.906156,3304.906156,11.0068564,,,,,,10,13,1,2024-10-28_12h07.22.819,uWM_experiment,2022.2.3,59.99383264
,,,,,,,,,,,,,,,,,,,,6,0,6,0,,,,,1,0,1,0,,,,,,,,,,,,,,,,,,,,,,,,,,,,,,,,,,,,,,,,,,,,,,,,,,,,,,,,,,,,,,,,,,,,,,,,,,,,,,,,,,,,,,,,,,,,,,,,,,,,,,,,,,,,,,,,,,,,,,,,,,,,,,10,13,1,2024-10-28_12h07.22.819,uWM_experiment,2022.2.3,59.99383264
,,,,,,,,,,,,,,,,,,,,6,0,6,0,,,,,2,0,2,0,,,,,,,,,,,,,,,,,,,,,,,,,,,,,,,,,,,,,,,,,,,,,,,,,,,,,,,,,,,,,,,,,,,,,,,,,,,,,,,,,,,,,,,,,,,,,,,,,,,,,,,,,,,,,,,,,,,,,,,,,,,,,,10,13,1,2024-10-28_12h07.22.819,uWM_experiment,2022.2.3,59.99383264
,,,,,,,,,,,,,,,,,,,,7,0,7,0,0,0,0,0,,,,,,,,,,,,,,,,,,,,,,,,,,,,,,,,,,,,,,,,,,,,,,,,,,,,,,,,,,,,,,,,,,,,,,0.085,,,,,,,,,,,,,,,,,,,,3330.857174,3331.557198,3331.840539,3332.540566,3332.840578,3333.540605,3333.540605,3333.85729,left,0,100,30,130,1,3338.474139,3338.474139,3338.474139,None,None,1,1,1.2467977,,,,,,,space,,,,,,,3323.723559,3323.723559,7.1013769,,,10,13,1,2024-10-28_12h07.22.819,uWM_experiment,2022.2.3,59.99383264
,,,,,,,,,,,,,,,,,,,,7,0,7,0,1,0,1,0,,,,,,,,,,,,,,,,,,,,,,,,,,,,,,,,,,,,,,,,,,,,,,,,,,,,,,,,,,,,,,,,,,,,,,0.095,,,,,,,,,,,,,,,,,,,,,,,,,,,,right,1,10,30,40,1,3345.25775,3345.25775,3345.25775,None,None,2,0,1.7430781,,,,,,,,,,,,,,,,,,,10,13,1,2024-10-28_12h07.22.819,uWM_experiment,2022.2.3,59.99383264
,,,,,,,,,,,,,,,,,,,,7,0,7,0,2,0,2,0,,,,,,,,,,,,,,,,,,,,,,,,,,,,,,,,,,,,,,,,,,,,,,,,,,,,,,,,,,,,,,,,,,,,,,0.085,,,,,,,,,,,,,,,,,,,,,,,,,,,,left,0,100,30,130,1,3352.608014,3352.608014,3352.608014,None,None,1,1,0.9207511,,,,,,,,,,,,,,,,,,,10,13,1,2024-10-28_12h07.22.819,uWM_experiment,2022.2.3,59.99383264
,,,,,,,,,,,,,,,,,,,,7,0,7,0,3,0,3,0,,,,,,,,,,,,,,,,,,,,,,,,,,,,,,,,,,,,,,,,,,,,,,,,,,,,,,,,,,,,,,,,,,,,,,0,,,,,,,,,,,,,,,,,,,,,,,,,,,,left,0,100,30,130,0,3359.291625,3359.291625,3359.291625,None,None,2,0,1.2690675,,,,,,,,,,,,,,,,,,,10,13,1,2024-10-28_12h07.22.819,uWM_experiment,2022.2.3,59.99383264
,,,,,,,,,,,,,,,,,,,,7,0,7,0,4,0,4,0,,,,,,,,,,,,,,,,,,,,,,,,,,,,,,,,,,,,,,,,,,,,,,,,,,,,,,,,,,,,,,,,,,,,,,0.095,,,,,,,,,,,,,,,,,,,,,,,,,,,,left,1,130,-30,100,1,3366.425258,3366.425258,3366.425258,None,None,2,0,2.3595436,,,,,,,,,,,,,,,,,,,10,13,1,2024-10-28_12h07.22.819,uWM_experiment,2022.2.3,59.99383264
,,,,,,,,,,,,,,,,,,,,7,0,7,0,5,0,5,0,,,,,,,,,,,,,,,,,,,,,,,,,,,,,,,,,,,,,,,,,,,,,,,,,,,,,,,,,,,,,,,,,,,,,,0.085,,,,,,,,,,,,,,,,,,,,,,,,,,,,right,1,40,30,70,1,3373.992229,3373.992229,3373.992229,None,None,1,1,5.000511,,,,,,,,,,,,,,,,,,,10,13,1,2024-10-28_12h07.22.819,uWM_experiment,2022.2.3,59.99383264
,,,,,,,,,,,,,,,,,,,,7,0,7,0,6,0,6,0,,,,,,,,,,,,,,,,,,,,,,,,,,,,,,,,,,,,,,,,,,,,,,,,,,,,,,,,,,,,,,,,,,,,,,0.095,,,,,,,,,,,,,,,,,,,,,,,,,,,,right,0,70,-30,40,1,3384.642631,3384.642631,3384.642631,None,None,2,0,1.9740383,,,,,,,,,,,,,,,,,,,10,13,1,2024-10-28_12h07.22.819,uWM_experiment,2022.2.3,59.99383264
,,,,,,,,,,,,,,,,,,,,7,0,7,0,7,0,7,0,,,,,,,,,,,,,,,,,,,,,,,,,,,,,,,,,,,,,,,,,,,,,,,,,,,,,,,,,,,,,,,,,,,,,,0,,,,,,,,,,,,,,,,,,,,,,,,,,,,right,0,70,-30,40,0,3392.542935,3392.542935,3392.542935,None,None,1,1,1.0337712,,,,,,,,,,,,,,,,,,,10,13,1,2024-10-28_12h07.22.819,uWM_experiment,2022.2.3,59.99383264
,,,,,,,,,,,,,,,,,,,,7,0,7,0,8,0,8,0,,,,,,,,,,,,,,,,,,,,,,,,,,,,,,,,,,,,,,,,,,,,,,,,,,,,,,,,,,,,,,,,,,,,,,0.085,,,,,,,,,,,,,,,,,,,,,,,,,,,,right,1,10,30,40,1,3399.376528,3399.376528,3399.376528,None,None,2,0,0.7600739,,,,,,,,,,,,,,,,,,,10,13,1,2024-10-28_12h07.22.819,uWM_experiment,2022.2.3,59.99383264
,,,,,,,,,,,,,,,,,,,,7,0,7,0,9,0,9,0,,,,,,,,,,,,,,,,,,,,,,,,,,,,,,,,,,,,,,,,,,,,,,,,,,,,,,,,,,,,,,,,,,,,,,0,,,,,,,,,,,,,,,,,,,,,,,,,,,,left,1,10,-30,-20,0,3405.810152,3405.810152,3405.810152,None,None,1,1,4.0303915,,,,,,,,,,,,,,,,,,,10,13,1,2024-10-28_12h07.22.819,uWM_experiment,2022.2.3,59.99383264
,,,,,,,,,,,,,,,,,,,,7,0,7,0,10,0,10,0,,,,,,,,,,,,,,,,,,,,,,,,,,,,,,,,,,,,,,,,,,,,,,,,,,,,,,,,,,,,,,,,,,,,,,0.075,,,,,,,,,,,,,,,,,,,,,,,,,,,,left,0,70,30,100,1,3416.610567,3416.610567,3416.610567,None,None,2,0,2.6538317,,,,,,,,,,,,,,,,,,,10,13,1,2024-10-28_12h07.22.819,uWM_experiment,2022.2.3,59.99383264
,,,,,,,,,,,,,,,,,,,,7,0,7,0,11,0,11,0,,,,,,,,,,,,,,,,,,,,,,,,,,,,,,,,,,,,,,,,,,,,,,,,,,,,,,,,,,,,,,,,,,,,,,0.065,,,,,,,,,,,,,,,,,,,,,,,,,,,,right,0,100,-30,70,1,3424.894213,3424.894213,3424.894213,None,None,2,0,2.9221804,,,,,,,,,,,,,,,,,,,10,13,1,2024-10-28_12h07.22.819,uWM_experiment,2022.2.3,59.99383264
,,,,,,,,,,,,,,,,,,,,7,0,7,0,12,0,12,0,,,,,,,,,,,,,,,,,,,,,,,,,,,,,,,,,,,,,,,,,,,,,,,,,,,,,,,,,,,,,,,,,,,,,,0,,,,,,,,,,,,,,,,,,,,,,,,,,,,left,1,100,-30,70,0,3434.544625,3434.544625,3434.544625,None,None,2,0,7.6638438,,,,,,,,,,,,,,,,,,,10,13,1,2024-10-28_12h07.22.819,uWM_experiment,2022.2.3,59.99383264
,,,,,,,,,,,,,,,,,,,,7,0,7,0,13,0,13,0,,,,,,,,,,,,,,,,,,,,,,,,,,,,,,,,,,,,,,,,,,,,,,,,,,,,,,,,,,,,,,,,,,,,,,0.055,,,,,,,,,,,,,,,,,,,,,,,,,,,,left,0,40,30,70,1,3448.128455,3448.128455,3448.128455,None,None,1,1,0.4878114,,,,,,,,,,,,,,,,,,,10,13,1,2024-10-28_12h07.22.819,uWM_experiment,2022.2.3,59.99383264
,,,,,,,,,,,,,,,,,,,,7,0,7,0,14,0,14,0,,,,,,,,,,,,,,,,,,,,,,,,,,,,,,,,,,,,,,,,,,,,,,,,,,,,,,,,,,,,,,,,,,,,,,0.065,,,,,,,,,,,,,,,,,,,,,,,,,,,,right,1,40,30,70,1,3454.178718,3454.178718,3454.178718,None,None,2,0,1.9976766,,,,,,,,,,,,,,,,,,,10,13,1,2024-10-28_12h07.22.819,uWM_experiment,2022.2.3,59.99383264
,,,,,,,,,,,,,,,,,,,,7,0,7,0,15,0,15,0,,,,,,,,,,,,,,,,,,,,,,,,,,,,,,,,,,,,,,,,,,,,,,,,,,,,,,,,,,,,,,,,,,,,,,0.055,,,,,,,,,,,,,,,,,,,,,,,,,,,,left,0,130,30,160,1,3462.162379,3462.162379,3462.162379,None,None,2,0,1.37399,,,,,,,,,,,,,,,,,,,10,13,1,2024-10-28_12h07.22.819,uWM_experiment,2022.2.3,59.99383264
,,,,,,,,,,,,,,,,,,,,7,0,7,0,16,0,16,0,,,,,,,,,,,,,,,,,,,,,,,,,,,,,,,,,,,,,,,,,,,,,,,,,,,,,,,,,,,,,,,,,,,,,,0.045,,,,,,,,,,,,,,,,,,,,,,,,,,,,left,0,70,30,100,1,3470.846064,3470.846064,3470.846064,None,None,2,0,0.8261952,,,,,,,,,,,,,,,,,,,10,13,1,2024-10-28_12h07.22.819,uWM_experiment,2022.2.3,59.99383264
,,,,,,,,,,,,,,,,,,,,7,0,7,0,17,0,17,0,,,,,,,,,,,,,,,,,,,,,,,,,,,,,,,,,,,,,,,,,,,,,,,,,,,,,,,,,,,,,,,,,,,,,,0.035,,,,,,,,,,,,,,,,,,,,,,,,,,,,left,0,70,30,100,1,3478.229689,3478.229689,3478.229689,None,None,3,0,1.058611,,,,,,,,,,,,,,,,,,,10,13,1,2024-10-28_12h07.22.819,uWM_experiment,2022.2.3,59.99383264
,,,,,,,,,,,,,,,,,,,,7,0,7,0,18,0,18,0,,,,,,,,,,,,,,,,,,,,,,,,,,,,,,,,,,,,,,,,,,,,,,,,,,,,,,,,,,,,,,,,,,,,,,0.025,,,,,,,,,,,,,,,,,,,,,,,,,,,,right,0,40,-30,10,1,3485.646636,3485.646636,3485.646636,None,None,1,1,1.2015545,,,,,,,,,,,,,,,,,,,10,13,1,2024-10-28_12h07.22.819,uWM_experiment,2022.2.3,59.99383264
,,,,,,,,,,,,,,,,,,,,7,0,7,0,19,0,19,0,,,,,,,,,,,,,,,,,,,,,,,,,,,,,,,,,,,,,,,,,,,,,,,,,,,,,,,,,,,,,,,,,,,,,,0.035,,,,,,,,,,,,,,,,,,,,,,,,,,,,left,1,130,-30,100,1,3492.513566,3492.513566,3492.513566,None,None,1,1,1.2466326,,,,,,,,,,,,,,,,,,,10,13,1,2024-10-28_12h07.22.819,uWM_experiment,2022.2.3,59.99383264
,,,,,,,,,,,,,,,,,,,,7,0,7,0,20,0,20,0,,,,,,,,,,,,,,,,,,,,,,,,,,,,,,,,,,,,,,,,,,,,,,,,,,,,,,,,,,,,,,,,,,,,,,0.045,,,,,,,,,,,,,,,,,,,,,,,,,,,,right,0,40,-30,10,1,3499.580498,3499.580498,3499.580498,None,None,1,1,0.6836959,,,,,,,,,,,,,,,,,,,10,13,1,2024-10-28_12h07.22.819,uWM_experiment,2022.2.3,59.99383264
,,,,,,,,,,,,,,,,,,,,7,0,7,0,21,0,21,0,,,,,,,,,,,,,,,,,,,,,,,,,,,,,,,,,,,,,,,,,,,,,,,,,,,,,,,,,,,,,,,,,,,,,,0,,,,,,,,,,,,,,,,,,,,,,,,,,,,left,0,130,30,160,0,3506.39747,3506.39747,3506.39747,None,None,1,1,1.1226663,,,,,,,,,,,,,,,,,,,10,13,1,2024-10-28_12h07.22.819,uWM_experiment,2022.2.3,59.99383264
,,,,,,,,,,,,,,,,,,,,7,0,7,0,22,0,22,0,,,,,,,,,,,,,,,,,,,,,,,,,,,,,,,,,,,,,,,,,,,,,,,,,,,,,,,,,,,,,,,,,,,,,,0.055,,,,,,,,,,,,,,,,,,,,,,,,,,,,left,0,100,30,130,1,3513.197711,3513.197711,3513.197711,None,None,1,1,0.8663049,,,,,,,,,,,,,,,,,,,10,13,1,2024-10-28_12h07.22.819,uWM_experiment,2022.2.3,59.99383264
,,,,,,,,,,,,,,,,,,,,7,0,7,0,23,0,23,0,,,,,,,,,,,,,,,,,,,,,,,,,,,,,,,,,,,,,,,,,,,,,,,,,,,,,,,,,,,,,,,,,,,,,,0.065,,,,,,,,,,,,,,,,,,,,,,,,,,,,right,0,10,-30,-20,1,3520.231329,3520.231329,3520.231329,None,None,1,1,0.7686421,,,,,,,,,,,,,,,,,,,10,13,1,2024-10-28_12h07.22.819,uWM_experiment,2022.2.3,59.99383264
,,,,,,,,,,,,,,,,,,,,7,0,7,0,,,,,0,0,0,0,,,,,,,,,,,,,,,,,,,,,,,,,,,,,,,,,,,,,,,,,,,,,,,,,,,,,,,,,,,,,,,,,,,,,,,,,,,,,,,,,,,,,,,,,,,,,,,,,,,,,,,,,,,,3521.031359,3521.031359,space,28.4646072,None,None,,,,,,,,,,,,,10,13,1,2024-10-28_12h07.22.819,uWM_experiment,2022.2.3,59.99383264
,,,,,,,,,,,,,,,,,,,,7,0,7,0,,,,,1,0,1,0,,,,,,,,,,,,,,,,,,,,,,,,,,,,,,,,,,,,,,,,,,,,,,,,,,,,,,,,,,,,,,,,,,,,,,,,,,,,,,,,,,,,,,,,,,,,,,,,,,,,,,,,,,,,,,,,,,,,,,,,,,,,,,10,13,1,2024-10-28_12h07.22.819,uWM_experiment,2022.2.3,59.99383264
,,,,,,,,,,,,,,,,,,,,7,0,7,0,,,,,2,0,2,0,,,,,,,,,,,,,,,,,,,,,,,,,,,,,,,,,,,,,,,,,,,,,,,,,,,,,,,,,,,,,,,,,,,,,,,,,,,,,,,,,,,,,,,,,,,,,,,,,,,,,,,,,,,,,,,,,,,,,,,,,,,,,,10,13,1,2024-10-28_12h07.22.819,uWM_experiment,2022.2.3,59.99383264
,,,,,,,,,,,,,,,,,,,,8,0,8,0,0,0,0,0,,,,,,,,,,,,,,,,,,,,,,,,,,,,,,,,,,,,,,,,,,,,,,,,,,,,,,,,,,,,,,,,,,,,,,0.1,,,,,,,,,,,,,,,,,,,,3549.515817,3550.215919,3550.51585,3551.215884,3551.515899,3552.215924,3552.215924,3552.53261,right,1,40,30,70,2,3558.549515,3558.549515,3558.549515,None,None,3,0,2.1142877,,,,,,,None,,,,,,,,,,,,10,13,1,2024-10-28_12h07.22.819,uWM_experiment,2022.2.3,59.99383264
,,,,,,,,,,,,,,,,,,,,8,0,8,0,1,0,1,0,,,,,,,,,,,,,,,,,,,,,,,,,,,,,,,,,,,,,,,,,,,,,,,,,,,,,,,,,,,,,,,,,,,,,,0.075,,,,,,,,,,,,,,,,,,,,,,,,,,,,right,0,130,-30,100,1,3567.183177,3567.183177,3567.183177,None,None,1,1,0.9287471,,,,,,,,,,,,,,,,,,,10,13,1,2024-10-28_12h07.22.819,uWM_experiment,2022.2.3,59.99383264
,,,,,,,,,,,,,,,,,,,,8,0,8,0,2,0,2,0,,,,,,,,,,,,,,,,,,,,,,,,,,,,,,,,,,,,,,,,,,,,,,,,,,,,,,,,,,,,,,,,,,,,,,0.085,,,,,,,,,,,,,,,,,,,,,,,,,,,,left,0,10,30,40,1,3575.750212,3575.750212,3575.750212,None,None,2,0,1.2015557,,,,,,,,,,,,,,,,,,,10,13,1,2024-10-28_12h07.22.819,uWM_experiment,2022.2.3,59.99383264
,,,,,,,,,,,,,,,,,,,,8,0,8,0,3,0,3,0,,,,,,,,,,,,,,,,,,,,,,,,,,,,,,,,,,,,,,,,,,,,,,,,,,,,,,,,,,,,,,,,,,,,,,0.1,,,,,,,,,,,,,,,,,,,,,,,,,,,,left,0,130,30,160,2,3583.750504,3583.750504,3583.750504,None,None,3,0,2.0652528,,,,,,,,,,,,,,,,,,,10,13,1,2024-10-28_12h07.22.819,uWM_experiment,2022.2.3,59.99383264
,,,,,,,,,,,,,,,,,,,,8,0,8,0,4,0,4,0,,,,,,,,,,,,,,,,,,,,,,,,,,,,,,,,,,,,,,,,,,,,,,,,,,,,,,,,,,,,,,,,,,,,,,0.075,,,,,,,,,,,,,,,,,,,,,,,,,,,,right,0,10,-30,-20,1,3594.167604,3594.167604,3594.167604,None,None,3,0,2.3441297,,,,,,,,,,,,,,,,,,,10,13,1,2024-10-28_12h07.22.819,uWM_experiment,2022.2.3,59.99383264
,,,,,,,,,,,,,,,,,,,,8,0,8,0,5,0,5,0,,,,,,,,,,,,,,,,,,,,,,,,,,,,,,,,,,,,,,,,,,,,,,,,,,,,,,,,,,,,,,,,,,,,,,0.065,,,,,,,,,,,,,,,,,,,,,,,,,,,,left,1,160,-30,130,1,3603.434609,3603.434609,3603.434609,None,None,2,0,0.9330913,,,,,,,,,,,,,,,,,,,10,13,1,2024-10-28_12h07.22.819,uWM_experiment,2022.2.3,59.99383264
,,,,,,,,,,,,,,,,,,,,8,0,8,0,6,0,6,0,,,,,,,,,,,,,,,,,,,,,,,,,,,,,,,,,,,,,,,,,,,,,,,,,,,,,,,,,,,,,,,,,,,,,,0.055,,,,,,,,,,,,,,,,,,,,,,,,,,,,right,0,70,-30,40,1,3610.518236,3610.518236,3610.518236,None,None,1,1,3.2574085,,,,,,,,,,,,,,,,,,,10,13,1,2024-10-28_12h07.22.819,uWM_experiment,2022.2.3,59.99383264
,,,,,,,,,,,,,,,,,,,,8,0,8,0,7,0,7,0,,,,,,,,,,,,,,,,,,,,,,,,,,,,,,,,,,,,,,,,,,,,,,,,,,,,,,,,,,,,,,,,,,,,,,0.065,,,,,,,,,,,,,,,,,,,,,,,,,,,,right,1,160,30,190,1,3619.93527,3619.93527,3619.93527,None,None,2,0,1.0802357,,,,,,,,,,,,,,,,,,,10,13,1,2024-10-28_12h07.22.819,uWM_experiment,2022.2.3,59.99383264
,,,,,,,,,,,,,,,,,,,,8,0,8,0,8,0,8,0,,,,,,,,,,,,,,,,,,,,,,,,,,,,,,,,,,,,,,,,,,,,,,,,,,,,,,,,,,,,,,,,,,,,,,0.055,,,,,,,,,,,,,,,,,,,,,,,,,,,,right,0,70,-30,40,1,3628.68561,3628.68561,3628.68561,None,None,2,0,1.0738793,,,,,,,,,,,,,,,,,,,10,13,1,2024-10-28_12h07.22.819,uWM_experiment,2022.2.3,59.99383264
,,,,,,,,,,,,,,,,,,,,8,0,8,0,9,0,9,0,,,,,,,,,,,,,,,,,,,,,,,,,,,,,,,,,,,,,,,,,,,,,,,,,,,,,,,,,,,,,,,,,,,,,,0,,,,,,,,,,,,,,,,,,,,,,,,,,,,left,0,100,30,130,0,3635.319208,3635.319208,3635.319208,None,None,2,0,2.2483403,,,,,,,,,,,,,,,,,,,10,13,1,2024-10-28_12h07.22.819,uWM_experiment,2022.2.3,59.99383264
,,,,,,,,,,,,,,,,,,,,8,0,8,0,10,0,10,0,,,,,,,,,,,,,,,,,,,,,,,,,,,,,,,,,,,,,,,,,,,,,,,,,,,,,,,,,,,,,,,,,,,,,,0.045,,,,,,,,,,,,,,,,,,,,,,,,,,,,left,0,40,30,70,1,3644.636271,3644.636271,3644.636271,None,None,3,0,1.0672521,,,,,,,,,,,,,,,,,,,10,13,1,2024-10-28_12h07.22.819,uWM_experiment,2022.2.3,59.99383264
,,,,,,,,,,,,,,,,,,,,8,0,8,0,11,0,11,0,,,,,,,,,,,,,,,,,,,,,,,,,,,,,,,,,,,,,,,,,,,,,,,,,,,,,,,,,,,,,,,,,,,,,,0.035,,,,,,,,,,,,,,,,,,,,,,,,,,,,left,1,100,-30,70,1,3652.986572,3652.986572,3652.986572,None,None,2,0,1.6527317,,,,,,,,,,,,,,,,,,,10,13,1,2024-10-28_12h07.22.819,uWM_experiment,2022.2.3,59.99383264
,,,,,,,,,,,,,,,,,,,,8,0,8,0,12,0,12,0,,,,,,,,,,,,,,,,,,,,,,,,,,,,,,,,,,,,,,,,,,,,,,,,,,,,,,,,,,,,,,,,,,,,,,0.025,,,,,,,,,,,,,,,,,,,,,,,,,,,,right,1,70,30,100,1,3660.753552,3660.753552,3660.753552,None,None,2,0,3.4298976,,,,,,,,,,,,,,,,,,,10,13,1,2024-10-28_12h07.22.819,uWM_experiment,2022.2.3,59.99383264
,,,,,,,,,,,,,,,,,,,,8,0,8,0,13,0,13,0,,,,,,,,,,,,,,,,,,,,,,,,,,,,,,,,,,,,,,,,,,,,,,,,,,,,,,,,,,,,,,,,,,,,,,0.015,,,,,,,,,,,,,,,,,,,,,,,,,,,,right,0,40,-30,10,1,3670.487259,3670.487259,3670.487259,None,None,1,1,0.7120167,,,,,,,,,,,,,,,,,,,10,13,1,2024-10-28_12h07.22.819,uWM_experiment,2022.2.3,59.99383264
,,,,,,,,,,,,,,,,,,,,8,0,8,0,14,0,14,0,,,,,,,,,,,,,,,,,,,,,,,,,,,,,,,,,,,,,,,,,,,,,,,,,,,,,,,,,,,,,,,,,,,,,,0,,,,,,,,,,,,,,,,,,,,,,,,,,,,right,0,130,-30,100,0,3678.670915,3678.670915,3678.670915,None,None,2,0,1.2404467,,,,,,,,,,,,,,,,,,,10,13,1,2024-10-28_12h07.22.819,uWM_experiment,2022.2.3,59.99383264
,,,,,,,,,,,,,,,,,,,,8,0,8,0,15,0,15,0,,,,,,,,,,,,,,,,,,,,,,,,,,,,,,,,,,,,,,,,,,,,,,,,,,,,,,,,,,,,,,,,,,,,,,0,,,,,,,,,,,,,,,,,,,,,,,,,,,,left,1,10,-30,-20,0,3686.304565,3686.304565,3686.304565,None,None,3,0,1.8787108,,,,,,,,,,,,,,,,,,,10,13,1,2024-10-28_12h07.22.819,uWM_experiment,2022.2.3,59.99383264
,,,,,,,,,,,,,,,,,,,,8,0,8,0,16,0,16,0,,,,,,,,,,,,,,,,,,,,,,,,,,,,,,,,,,,,,,,,,,,,,,,,,,,,,,,,,,,,,,,,,,,,,,0.025,,,,,,,,,,,,,,,,,,,,,,,,,,,,left,1,130,-30,100,1,3693.671511,3693.671511,3693.671511,None,None,2,0,0.8637002,,,,,,,,,,,,,,,,,,,10,13,1,2024-10-28_12h07.22.819,uWM_experiment,2022.2.3,59.99383264
,,,,,,,,,,,,,,,,,,,,8,0,8,0,17,0,17,0,,,,,,,,,,,,,,,,,,,,,,,,,,,,,,,,,,,,,,,,,,,,,,,,,,,,,,,,,,,,,,,,,,,,,,0,,,,,,,,,,,,,,,,,,,,,,,,,,,,left,1,100,-30,70,0,3700.821822,3700.821822,3700.821822,None,None,3,0,1.3052773,,,,,,,,,,,,,,,,,,,10,13,1,2024-10-28_12h07.22.819,uWM_experiment,2022.2.3,59.99383264
,,,,,,,,,,,,,,,,,,,,8,0,8,0,18,0,18,0,,,,,,,,,,,,,,,,,,,,,,,,,,,,,,,,,,,,,,,,,,,,,,,,,,,,,,,,,,,,,,,,,,,,,,0.015,,,,,,,,,,,,,,,,,,,,,,,,,,,,right,0,40,-30,10,1,3707.772112,3707.772112,3707.772112,None,None,2,0,1.7709455,,,,,,,,,,,,,,,,,,,10,13,1,2024-10-28_12h07.22.819,uWM_experiment,2022.2.3,59.99383264
,,,,,,,,,,,,,,,,,,,,8,0,8,0,19,0,19,0,,,,,,,,,,,,,,,,,,,,,,,,,,,,,,,,,,,,,,,,,,,,,,,,,,,,,,,,,,,,,,,,,,,,,,0.005,,,,,,,,,,,,,,,,,,,,,,,,,,,,left,0,40,30,70,1,3715.255689,3715.255689,3715.255689,None,None,1,1,1.1434736,,,,,,,,,,,,,,,,,,,10,13,1,2024-10-28_12h07.22.819,uWM_experiment,2022.2.3,59.99383264
,,,,,,,,,,,,,,,,,,,,8,0,8,0,20,0,20,0,,,,,,,,,,,,,,,,,,,,,,,,,,,,,,,,,,,,,,,,,,,,,,,,,,,,,,,,,,,,,,,,,,,,,,0.015,,,,,,,,,,,,,,,,,,,,,,,,,,,,right,0,100,-30,70,1,3722.055977,3722.055977,3722.055977,None,None,2,0,0.7910997,,,,,,,,,,,,,,,,,,,10,13,1,2024-10-28_12h07.22.819,uWM_experiment,2022.2.3,59.99383264
,,,,,,,,,,,,,,,,,,,,8,0,8,0,21,0,21,0,,,,,,,,,,,,,,,,,,,,,,,,,,,,,,,,,,,,,,,,,,,,,,,,,,,,,,,,,,,,,,,,,,,,,,0.005,,,,,,,,,,,,,,,,,,,,,,,,,,,,right,1,70,30,100,1,3729.089585,3729.089585,3729.089585,None,None,1,1,1.6853749,,,,,,,,,,,,,,,,,,,10,13,1,2024-10-28_12h07.22.819,uWM_experiment,2022.2.3,59.99383264
,,,,,,,,,,,,,,,,,,,,8,0,8,0,22,0,22,0,,,,,,,,,,,,,,,,,,,,,,,,,,,,,,,,,,,,,,,,,,,,,,,,,,,,,,,,,,,,,,,,,,,,,,0.1,,,,,,,,,,,,,,,,,,,,,,,,,,,,left,0,160,30,190,2,3738.889985,3738.889985,3738.889985,None,None,3,0,1.1251001,,,,,,,,,,,,,,,,,,,10,13,1,2024-10-28_12h07.22.819,uWM_experiment,2022.2.3,59.99383264
,,,,,,,,,,,,,,,,,,,,8,0,8,0,23,0,23,0,,,,,,,,,,,,,,,,,,,,,,,,,,,,,,,,,,,,,,,,,,,,,,,,,,,,,,,,,,,,,,,,,,,,,,0.015,,,,,,,,,,,,,,,,,,,,,,,,,,,,left,1,10,-30,-20,1,3746.823603,3746.823603,3746.823603,None,None,1,1,1.0953353,,,,,,,,,,,,,,,,,,,10,13,1,2024-10-28_12h07.22.819,uWM_experiment,2022.2.3,59.99383264
,,,,,,,,,,,,,,,,,,,,8,0,8,0,,,,,0,0,0,0,,,,,,,,,,,,,,,,,,,,,,,,,,,,,,,,,,,,,,,,,,,,,,,,,,,,,,,,,,,,,,,,,,,,,,,,,,,,,,,,,,,,,,,,,,,,,,,,,,,,,,,,,,,,3747.940323,3747.940323,space,34.8584648,space,None,,3782.825033,3782.825033,2.1338493,,,,,,,,,10,13,1,2024-10-28_12h07.22.819,uWM_experiment,2022.2.3,59.99383264
,,,,,,,,,,,,,,,,,,,,8,0,8,0,,,,,1,0,1,0,,,,,,,,,,,,,,,,,,,,,,,,,,,,,,,,,,,,,,,,,,,,,,,,,,,,,,,,,,,,,,,,,,,,,,,,,,,,,,,,,,,,,,,,,,,,,,,,,,,,,,,,,,,,,,,,,,,,,,,,,,,,,,10,13,1,2024-10-28_12h07.22.819,uWM_experiment,2022.2.3,59.99383264
,,,,,,,,,,,,,,,,,,,,8,0,8,0,,,,,2,0,2,0,,,,,,,,,,,,,,,,,,,,,,,,,,,,,,,,,,,,,,,,,,,,,,,,,,,,,,,,,,,,,,,,,,,,,,,,,,,,,,,,,,,,,,,,,,,,,,,,,,,,,,,,,,,,,,,,,,,,,,,,,,,,,,10,13,1,2024-10-28_12h07.22.819,uWM_experiment,2022.2.3,59.99383264
,,,,,,,,,,,,,,,,,,,,9,0,9,0,0,0,0,0,,,,,,,,,,,,,,,,,,,,,,,,,,,,,,,,,,,,,,,,,,,,,,,,,,,,,,,,,,,,,,,,,,,,,,0.025,,,,,,,,,,,,,,,,,,,,3784.991784,3785.691814,3785.991828,3786.691849,3786.991863,3787.691916,3787.691916,3788.008581,right,1,70,30,100,1,3793.192105,3793.192105,3793.192105,None,None,2,0,1.3747262,,,,,,,None,,,,,,,,,,,,10,13,1,2024-10-28_12h07.22.819,uWM_experiment,2022.2.3,59.99383264
,,,,,,,,,,,,,,,,,,,,9,0,9,0,1,0,1,0,,,,,,,,,,,,,,,,,,,,,,,,,,,,,,,,,,,,,,,,,,,,,,,,,,,,,,,,,,,,,,,,,,,,,,0.015,,,,,,,,,,,,,,,,,,,,,,,,,,,,left,1,10,-30,-20,1,3800.442388,3800.442388,3800.442388,None,None,1,1,0.740385,,,,,,,,,,,,,,,,,,,10,13,1,2024-10-28_12h07.22.819,uWM_experiment,2022.2.3,59.99383264
,,,,,,,,,,,,,,,,,,,,9,0,9,0,2,0,2,0,,,,,,,,,,,,,,,,,,,,,,,,,,,,,,,,,,,,,,,,,,,,,,,,,,,,,,,,,,,,,,,,,,,,,,0.025,,,,,,,,,,,,,,,,,,,,,,,,,,,,right,0,100,-30,70,1,3807.209332,3807.209332,3807.209332,None,None,2,0,1.0293068,,,,,,,,,,,,,,,,,,,10,13,1,2024-10-28_12h07.22.819,uWM_experiment,2022.2.3,59.99383264
,,,,,,,,,,,,,,,,,,,,9,0,9,0,3,0,3,0,,,,,,,,,,,,,,,,,,,,,,,,,,,,,,,,,,,,,,,,,,,,,,,,,,,,,,,,,,,,,,,,,,,,,,0.015,,,,,,,,,,,,,,,,,,,,,,,,,,,,right,0,40,-30,10,1,3815.009642,3815.009642,3815.009642,None,None,1,1,0.9330958,,,,,,,,,,,,,,,,,,,10,13,1,2024-10-28_12h07.22.819,uWM_experiment,2022.2.3,59.99383264
,,,,,,,,,,,,,,,,,,,,9,0,9,0,4,0,4,0,,,,,,,,,,,,,,,,,,,,,,,,,,,,,,,,,,,,,,,,,,,,,,,,,,,,,,,,,,,,,,,,,,,,,,0.025,,,,,,,,,,,,,,,,,,,,,,,,,,,,left,1,10,-30,-20,1,3821.659887,3821.659887,3821.659887,None,None,2,0,0.6346557,,,,,,,,,,,,,,,,,,,10,13,1,2024-10-28_12h07.22.819,uWM_experiment,2022.2.3,59.99383264
,,,,,,,,,,,,,,,,,,,,9,0,9,0,5,0,5,0,,,,,,,,,,,,,,,,,,,,,,,,,,,,,,,,,,,,,,,,,,,,,,,,,,,,,,,,,,,,,,,,,,,,,,0.015,,,,,,,,,,,,,,,,,,,,,,,,,,,,right,1,40,30,70,1,3828.410189,3828.410189,3828.410189,None,None,1,1,1.0522895,,,,,,,,,,,,,,,,,,,10,13,1,2024-10-28_12h07.22.819,uWM_experiment,2022.2.3,59.99383264
,,,,,,,,,,,,,,,,,,,,9,0,9,0,6,0,6,0,,,,,,,,,,,,,,,,,,,,,,,,,,,,,,,,,,,,,,,,,,,,,,,,,,,,,,,,,,,,,,,,,,,,,,0.025,,,,,,,,,,,,,,,,,,,,,,,,,,,,left,0,130,30,160,1,3835.160426,3835.160426,3835.160426,None,None,2,0,0.7020722,,,,,,,,,,,,,,,,,,,10,13,1,2024-10-28_12h07.22.819,uWM_experiment,2022.2.3,59.99383264
,,,,,,,,,,,,,,,,,,,,9,0,9,0,7,0,7,0,,,,,,,,,,,,,,,,,,,,,,,,,,,,,,,,,,,,,,,,,,,,,,,,,,,,,,,,,,,,,,,,,,,,,,0.015,,,,,,,,,,,,,,,,,,,,,,,,,,,,left,1,10,-30,-20,1,3841.527357,3841.527357,3841.527357,None,None,1,1,0.9031067,,,,,,,,,,,,,,,,,,,10,13,1,2024-10-28_12h07.22.819,uWM_experiment,2022.2.3,59.99383264
,,,,,,,,,,,,,,,,,,,,9,0,9,0,8,0,8,0,,,,,,,,,,,,,,,,,,,,,,,,,,,,,,,,,,,,,,,,,,,,,,,,,,,,,,,,,,,,,,,,,,,,,,0.025,,,,,,,,,,,,,,,,,,,,,,,,,,,,left,1,160,-30,130,1,3847.744258,3847.744258,3847.744258,None,None,2,0,0.7341437,,,,,,,,,,,,,,,,,,,10,13,1,2024-10-28_12h07.22.819,uWM_experiment,2022.2.3,59.99383264
,,,,,,,,,,,,,,,,,,,,9,0,9,0,9,0,9,0,,,,,,,,,,,,,,,,,,,,,,,,,,,,,,,,,,,,,,,,,,,,,,,,,,,,,,,,,,,,,,,,,,,,,,0,,,,,,,,,,,,,,,,,,,,,,,,,,,,right,1,160,30,190,0,3855.411224,3855.411224,3855.411224,None,None,1,1,1.0112154,,,,,,,,,,,,,,,,,,,10,13,1,2024-10-28_12h07.22.819,uWM_experiment,2022.2.3,59.99383264
,,,,,,,,,,,,,,,,,,,,9,0,9,0,10,0,10,0,,,,,,,,,,,,,,,,,,,,,,,,,,,,,,,,,,,,,,,,,,,,,,,,,,,,,,,,,,,,,,,,,,,,,,0,,,,,,,,,,,,,,,,,,,,,,,,,,,,left,1,160,-30,130,0,3861.978141,3861.978141,3861.978141,None,None,2,0,0.9962962,,,,,,,,,,,,,,,,,,,10,13,1,2024-10-28_12h07.22.819,uWM_experiment,2022.2.3,59.99383264
,,,,,,,,,,,,,,,,,,,,9,0,9,0,11,0,11,0,,,,,,,,,,,,,,,,,,,,,,,,,,,,,,,,,,,,,,,,,,,,,,,,,,,,,,,,,,,,,,,,,,,,,,0.015,,,,,,,,,,,,,,,,,,,,,,,,,,,,right,1,10,30,40,1,3868.878449,3868.878449,3868.878449,None,None,1,1,1.3678494,,,,,,,,,,,,,,,,,,,10,13,1,2024-10-28_12h07.22.819,uWM_experiment,2022.2.3,59.99383264
,,,,,,,,,,,,,,,,,,,,9,0,9,0,12,0,12,0,,,,,,,,,,,,,,,,,,,,,,,,,,,,,,,,,,,,,,,,,,,,,,,,,,,,,,,,,,,,,,,,,,,,,,0.025,,,,,,,,,,,,,,,,,,,,,,,,,,,,left,1,160,-30,130,1,3875.995385,3875.995385,3875.995385,None,None,2,0,0.7070525,,,,,,,,,,,,,,,,,,,10,13,1,2024-10-28_12h07.22.819,uWM_experiment,2022.2.3,59.99383264
,,,,,,,,,,,,,,,,,,,,9,0,9,0,13,0,13,0,,,,,,,,,,,,,,,,,,,,,,,,,,,,,,,,,,,,,,,,,,,,,,,,,,,,,,,,,,,,,,,,,,,,,,0.015,,,,,,,,,,,,,,,,,,,,,,,,,,,,left,1,160,-30,130,1,3882.062291,3882.062291,3882.062291,None,None,1,1,1.144043,,,,,,,,,,,,,,,,,,,10,13,1,2024-10-28_12h07.22.819,uWM_experiment,2022.2.3,59.99383264
,,,,,,,,,,,,,,,,,,,,9,0,9,0,14,0,14,0,,,,,,,,,,,,,,,,,,,,,,,,,,,,,,,,,,,,,,,,,,,,,,,,,,,,,,,,,,,,,,,,,,,,,,0,,,,,,,,,,,,,,,,,,,,,,,,,,,,right,1,130,30,160,0,3889.512584,3889.512584,3889.512584,None,None,2,0,1.7016592,,,,,,,,,,,,,,,,,,,10,13,1,2024-10-28_12h07.22.819,uWM_experiment,2022.2.3,59.99383264
,,,,,,,,,,,,,,,,,,,,9,0,9,0,15,0,15,0,,,,,,,,,,,,,,,,,,,,,,,,,,,,,,,,,,,,,,,,,,,,,,,,,,,,,,,,,,,,,,,,,,,,,,0.025,,,,,,,,,,,,,,,,,,,,,,,,,,,,left,1,160,-30,130,1,3897.39623,3897.39623,3897.39623,None,None,3,0,0.9699424,,,,,,,,,,,,,,,,,,,10,13,1,2024-10-28_12h07.22.819,uWM_experiment,2022.2.3,59.99383264
,,,,,,,,,,,,,,,,,,,,9,0,9,0,16,0,16,0,,,,,,,,,,,,,,,,,,,,,,,,,,,,,,,,,,,,,,,,,,,,,,,,,,,,,,,,,,,,,,,,,,,,,,0.015,,,,,,,,,,,,,,,,,,,,,,,,,,,,right,0,40,-30,10,1,3904.063179,3904.063179,3904.063179,None,None,2,0,2.1509507,,,,,,,,,,,,,,,,,,,10,13,1,2024-10-28_12h07.22.819,uWM_experiment,2022.2.3,59.99383264
,,,,,,,,,,,,,,,,,,,,9,0,9,0,17,0,17,0,,,,,,,,,,,,,,,,,,,,,,,,,,,,,,,,,,,,,,,,,,,,,,,,,,,,,,,,,,,,,,,,,,,,,,0,,,,,,,,,,,,,,,,,,,,,,,,,,,,right,1,10,30,40,0,3912.063478,3912.063478,3912.063478,None,None,2,0,1.3987136,,,,,,,,,,,,,,,,,,,10,13,1,2024-10-28_12h07.22.819,uWM_experiment,2022.2.3,59.99383264
,,,,,,,,,,,,,,,,,,,,9,0,9,0,18,0,18,0,,,,,,,,,,,,,,,,,,,,,,,,,,,,,,,,,,,,,,,,,,,,,,,,,,,,,,,,,,,,,,,,,,,,,,0,,,,,,,,,,,,,,,,,,,,,,,,,,,,right,0,40,-30,10,0,3919.11375,3919.11375,3919.11375,None,None,1,1,0.5484344,,,,,,,,,,,,,,,,,,,10,13,1,2024-10-28_12h07.22.819,uWM_experiment,2022.2.3,59.99383264
,,,,,,,,,,,,,,,,,,,,9,0,9,0,19,0,19,0,,,,,,,,,,,,,,,,,,,,,,,,,,,,,,,,,,,,,,,,,,,,,,,,,,,,,,,,,,,,,,,,,,,,,,0.005,,,,,,,,,,,,,,,,,,,,,,,,,,,,right,1,10,30,40,1,3925.39733,3925.39733,3925.39733,None,None,2,0,0.8168178,,,,,,,,,,,,,,,,,,,10,13,1,2024-10-28_12h07.22.819,uWM_experiment,2022.2.3,59.99383264
,,,,,,,,,,,,,,,,,,,,9,0,9,0,20,0,20,0,,,,,,,,,,,,,,,,,,,,,,,,,,,,,,,,,,,,,,,,,,,,,,,,,,,,,,,,,,,,,,,,,,,,,,0.005,,,,,,,,,,,,,,,,,,,,,,,,,,,,left,1,130,-30,100,1,3931.547577,3931.547577,3931.547577,None,None,1,1,0.7785944,,,,,,,,,,,,,,,,,,,10,13,1,2024-10-28_12h07.22.819,uWM_experiment,2022.2.3,59.99383264
,,,,,,,,,,,,,,,,,,,,9,0,9,0,21,0,21,0,,,,,,,,,,,,,,,,,,,,,,,,,,,,,,,,,,,,,,,,,,,,,,,,,,,,,,,,,,,,,,,,,,,,,,0.015,,,,,,,,,,,,,,,,,,,,,,,,,,,,right,1,130,30,160,1,3937.79781,3937.79781,3937.79781,None,None,2,0,1.1201953,,,,,,,,,,,,,,,,,,,10,13,1,2024-10-28_12h07.22.819,uWM_experiment,2022.2.3,59.99383264
,,,,,,,,,,,,,,,,,,,,9,0,9,0,22,0,22,0,,,,,,,,,,,,,,,,,,,,,,,,,,,,,,,,,,,,,,,,,,,,,,,,,,,,,,,,,,,,,,,,,,,,,,0.005,,,,,,,,,,,,,,,,,,,,,,,,,,,,left,1,130,-30,100,1,3945.331438,3945.331438,3945.331438,None,None,3,0,2.8906316,,,,,,,,,,,,,,,,,,,10,13,1,2024-10-28_12h07.22.819,uWM_experiment,2022.2.3,59.99383264
