PreTrainingPAS4_loop.thisRepN,PreTrainingPAS4_loop.thisTrialN,PreTrainingPAS4_loop.thisN,PreTrainingPAS4_loop.thisIndex,PreTrainingPAS1_loop.thisRepN,PreTrainingPAS1_loop.thisTrialN,PreTrainingPAS1_loop.thisN,PreTrainingPAS1_loop.thisIndex,RepeatCV_loop.thisRepN,RepeatCV_loop.thisTrialN,RepeatCV_loop.thisN,RepeatCV_loop.thisIndex,TrainingCV_loop.thisRepN,TrainingCV_loop.thisTrialN,TrainingCV_loop.thisN,TrainingCV_loop.thisIndex,TrainingCAL_loop.thisRepN,TrainingCAL_loop.thisTrialN,TrainingCAL_loop.thisN,TrainingCAL_loop.thisIndex,blocks_loop.thisRepN,blocks_loop.thisTrialN,blocks_loop.thisN,blocks_loop.thisIndex,trials_loop.thisRepN,trials_loop.thisTrialN,trials_loop.thisN,trials_loop.thisIndex,TrainingPAS1_loop.thisRepN,TrainingPAS1_loop.thisTrialN,TrainingPAS1_loop.thisN,TrainingPAS1_loop.thisIndex,spacebarWelcome0.started,spacebarWelcome0.keys,spacebarWelcome0.rt,spacebarWelcome1.started,gaborWelcome1.started,maskWelcome1.started,textMaskWelcome1.started,spacebarWelcome1.keys,spacebarWelcome1.rt,spacebarWelcome2.started,spacebarWelcome2.keys,spacebarWelcome2.rt,textInst_PreTrainingPAS4.started,spacebarPreTrainingPAS4.started,spacebarPreTrainingPAS4.keys,spacebarPreTrainingPAS4.rt,textPreTrainingPAS1.started,spacebarPreTrainingPAS1.started,spacebarPreTrainingPAS1.keys,spacebarPreTrainingPAS1.rt,textQUEST0.started,spacebarQUEST0.started,spacebarQUEST0.keys,spacebarQUEST0.rt,spacebar0.started,spacebar0.keys,spacebar0.rt,spacebar1.started,spacebar1.keys,spacebar1.rt,textInstructions2.started,spacebar2.started,Gabor1Inst2.started,Gabor2Inst2.started,Gabor3Inst2.started,Gabor4Inst2.started,spacebar2.keys,spacebar2.rt,textInstructionsPAS.started,spacebarInstPAS.started,spacebarInstPAS.keys,spacebarInstPAS.rt,textInstructions3.started,spacebar3.started,spacebar3.keys,spacebar3.rt,WMresp_CV,WMresp_CV_acc,oriMemo_CV,gyre_CV,oriTest_CV,feedbackText.started,feedbackText.stopped,sliderCV.started,PAStextCV.started,PASkeyCV.started,sliderCV.response,sliderCV.rt,PASkeyCV.keys,PASkeyCV.corr,PASkeyCV.rt,TextInstructionsCAL.started,spacebarCAL.started,spacebarCAL.keys,spacebarCAL.rt,contrast,WMresp_CAL,WMresp_CAL_acc,oriMemo_CAL,gyre_CAL,oriTest_CAL,cue_CAL,sliderCAL.started,PAStextCAL.started,PASkeyCAL.started,sliderCAL.response,sliderCAL.rt,PASkeyCAL.keys,PASkeyCAL.corr,PASkeyCAL.rt,propUnseen_CAL,textStart.started,spacebar4.started,spacebar4.keys,spacebar4.rt,three.started,three.stopped,two.started,two.stopped,one.started,one.stopped,blank_countdown.started,blank_countdown.stopped,WMresp,WMresp_acc,oriMemo,gyre,oriTest,cue,slider.started,textPAS_firstGabor.started,PASkey.started,slider.response,slider.rt,PASkey.keys,PASkey.corr,PASkey.rt,spacebarContinue.started,textBreak.started,spacebarContinue.keys,spacebarContinue.rt,spacebar_reminder.keys,spacebar_TrainingPAS1.keys,spacebar_endpractice.keys,spacebar_reminder.started,textReminder.started,spacebar_reminder.rt,textInst_TrainingPAS1.started,spacebar_TrainingPAS1.started,spacebar_TrainingPAS1.rt,textend_practicePAS1.started,spacebar_endpractice.started,spacebar_endpractice.rt,textThanks.started,buttonURL.started,buttonURL.numClicks,buttonURL.timesOn,buttonURL.timesOff,laboratory,participant,session,date,expName,psychopyVersion,frameRate
,,,,,,,,,,,,,,,,,,,,,,,,,,,,,,,,106.7383671,space,5.9846471,,,,,,,,,,,,,,,,,,,,,,,,,,,,,,,,,,,,,,,,,,,,,,,,,,,,,,,,,,,,,,,,,,,,,,,,,,,,,,,,,,,,,,,,,,,,,,,,,,,,,,,,,,,,,,,,,,,,,,,,,,,,,,10,13,2,2024-10-29_12h00.58.440,uWM_experiment,2022.2.3,59.99764809
,,,,,,,,,,,,,,,,,,,,,,,,,,,,,,,,,,,112.7716957,112.7716957,112.7716957,112.7716957,space,11.7432856,,,,,,,,,,,,,,,,,,,,,,,,,,,,,,,,,,,,,,,,,,,,,,,,,,,,,,,,,,,,,,,,,,,,,,,,,,,,,,,,,,,,,,,,,,,,,,,,,,,,,,,,,,,,,,,,,,,,,,,,10,13,2,2024-10-29_12h00.58.440,uWM_experiment,2022.2.3,59.99764809
,,,,,,,,,,,,,,,,,,,,,,,,,,,,,,,,,,,,,,,,,124.5388136,space,8.8640965,,,,,,,,,,,,,,,,,,,,,,,,,,,,,,,,,,,,,,,,,,,,,,,,,,,,,,,,,,,,,,,,,,,,,,,,,,,,,,,,,,,,,,,,,,,,,,,,,,,,,,,,,,,,,,,,,,,,,10,13,2,2024-10-29_12h00.58.440,uWM_experiment,2022.2.3,59.99764809
,,,,,,,,,,,,,,,,,,,,,,,,,,,,,,,,,,,,,,,,,,,,133.4224956,133.4224956,space,6.4283664,,,,,,,,,,,,,,,,,,,,,,,,,,,,,,,,,,,,,,,,,,,,,,,,,,,,,,,,,,,,,,,,,,,,,,,,,,,,,,,,,,,,,,,,,,,,,,,,,,,,,,,,,,,,,,,,,10,13,2,2024-10-29_12h00.58.440,uWM_experiment,2022.2.3,59.99764809
0,0,0,0,,,,,,,,,,,,,,,,,,,,,,,,,,,,,,,,,,,,,,,,,,,,,,,,,,,,,,,,,,,,,,,,,,,,,,,,,,,,,,,,,,,,,,,,,,,,,,,,,,,,,,,,,,,,,,,,,,,,,,,,,,,,,,,,,,,,,,,,,,,,,,,,,,,,,,,,,,,,,10,13,2,2024-10-29_12h00.58.440,uWM_experiment,2022.2.3,59.99764809
1,0,1,0,,,,,,,,,,,,,,,,,,,,,,,,,,,,,,,,,,,,,,,,,,,,,,,,,,,,,,,,,,,,,,,,,,,,,,,,,,,,,,,,,,,,,,,,,,,,,,,,,,,,,,,,,,,,,,,,,,,,,,,,,,,,,,,,,,,,,,,,,,,,,,,,,,,,,,,,,,,,,10,13,2,2024-10-29_12h00.58.440,uWM_experiment,2022.2.3,59.99764809
2,0,2,0,,,,,,,,,,,,,,,,,,,,,,,,,,,,,,,,,,,,,,,,,,,,,,,,,,,,,,,,,,,,,,,,,,,,,,,,,,,,,,,,,,,,,,,,,,,,,,,,,,,,,,,,,,,,,,,,,,,,,,,,,,,,,,,,,,,,,,,,,,,,,,,,,,,,,,,,,,,,,10,13,2,2024-10-29_12h00.58.440,uWM_experiment,2022.2.3,59.99764809
,,,,,,,,,,,,,,,,,,,,,,,,,,,,,,,,,,,,,,,,,,,,,,,,147.8230604,147.8230604,space,5.1476946,,,,,,,,,,,,,,,,,,,,,,,,,,,,,,,,,,,,,,,,,,,,,,,,,,,,,,,,,,,,,,,,,,,,,,,,,,,,,,,,,,,,,,,,,,,,,,,,,,,,,,,,,,,,,10,13,2,2024-10-29_12h00.58.440,uWM_experiment,2022.2.3,59.99764809
,,,,0,0,0,0,,,,,,,,,,,,,,,,,,,,,,,,,,,,,,,,,,,,,,,,,,,,,,,,,,,,,,,,,,,,,,,,,,,,,,,,,,,,,,,,,,,,,,,,,,,,,,,,,,,,,,,,,,,,,,,,,,,,,,,,,,,,,,,,,,,,,,,,,,,,,,,,,,,,,,,,,10,13,2,2024-10-29_12h00.58.440,uWM_experiment,2022.2.3,59.99764809
,,,,1,0,1,0,,,,,,,,,,,,,,,,,,,,,,,,,,,,,,,,,,,,,,,,,,,,,,,,,,,,,,,,,,,,,,,,,,,,,,,,,,,,,,,,,,,,,,,,,,,,,,,,,,,,,,,,,,,,,,,,,,,,,,,,,,,,,,,,,,,,,,,,,,,,,,,,,,,,,,,,,10,13,2,2024-10-29_12h00.58.440,uWM_experiment,2022.2.3,59.99764809
,,,,2,0,2,0,,,,,,,,,,,,,,,,,,,,,,,,,,,,,,,,,,,,,,,,,,,,,,,,,,,,,,,,,,,,,,,,,,,,,,,,,,,,,,,,,,,,,,,,,,,,,,,,,,,,,,,,,,,,,,,,,,,,,,,,,,,,,,,,,,,,,,,,,,,,,,,,,,,,,,,,,10,13,2,2024-10-29_12h00.58.440,uWM_experiment,2022.2.3,59.99764809
,,,,,,,,,,,,,,,,,,,,,,,,,,,,,,,,,,,,,,,,,,,,,,,,,,,,161.0235812,161.0235812,space,2.1232253,,,,,,,,,,,,,,,,,,,,,,,,,,,,,,,,,,,,,,,,,,,,,,,,,,,,,,,,,,,,,,,,,,,,,,,,,,,,,,,,,,,,,,,,,,,,,,,,,,,,,,,,,10,13,2,2024-10-29_12h00.58.440,uWM_experiment,2022.2.3,59.99764809
,,,,,,,,,,,,,,,,,,,,,,,,,,,,,,,,,,,,,,,,,,,,,,,,,,,,,,,,295.2789138,space,4.0112665,,,,,,,,,,,,,,,,,,,,,,,,,,,,,,,,,,,,,,,,,,,,,,,,,,,,,,,,,,,,,,,,,,,,,,,,,,,,,,,,,,,,,,,,,,,,,,,,,,,,,,10,13,2,2024-10-29_12h00.58.440,uWM_experiment,2022.2.3,59.99764809
,,,,,,,,,,,,,,,,,,,,,,,,,,,,,,,,,,,,,,,,,,,,,,,,,,,,,,,,,,,299.3123989,space,17.7457214,,,,,,,,,,,,,,,,,,,,,,,,,,,,,,,,,,,,,,,,,,,,,,,,,,,,,,,,,,,,,,,,,,,,,,,,,,,,,,,,,,,,,,,,,,,,,,,,,,,10,13,2,2024-10-29_12h00.58.440,uWM_experiment,2022.2.3,59.99764809
,,,,,,,,,,,,,,,,,,,,,,,,,,,,,,,,,,,,,,,,,,,,,,,,,,,,,,,,,,,,,,317.0797798,317.0797798,317.0797798,317.0797798,317.0797798,317.0797798,space,53.4979992,,,,,,,,,,,,,,,,,,,,,,,,,,,,,,,,,,,,,,,,,,,,,,,,,,,,,,,,,,,,,,,,,,,,,,,,,,,,,,,,,,,,,,,,,,,10,13,2,2024-10-29_12h00.58.440,uWM_experiment,2022.2.3,59.99764809
,,,,,,,,,,,,,,,,,,,,,,,,,,,,,,,,,,,,,,,,,,,,,,,,,,,,,,,,,,,,,,,,,,,,,,370.5985634,370.5985634,space,7.3312157,,,,,,,,,,,,,,,,,,,,,,,,,,,,,,,,,,,,,,,,,,,,,,,,,,,,,,,,,,,,,,,,,,,,,,,,,,,,,,,,,,,,,,,10,13,2,2024-10-29_12h00.58.440,uWM_experiment,2022.2.3,59.99764809
,,,,,,,,,,,,,,,,,,,,,,,,,,,,,,,,,,,,,,,,,,,,,,,,,,,,,,,,,,,,,,,,,,,,,,,,,,377.9488815,377.9488815,space,2.940947,,,,,,,,,,,,,,,,,,,,,,,,,,,,,,,,,,,,,,,,,,,,,,,,,,,,,,,,,,,,,,,,,,,,,,,,,,,,,,,,,,,10,13,2,2024-10-29_12h00.58.440,uWM_experiment,2022.2.3,59.99764809
,,,,,,,,0,0,0,0,0,0,0,0,,,,,,,,,,,,,,,,,,,,,,,,,,,,,,,,,,,,,,,,,,,,,,,,,,,,,,,,,,,,,,,left,0,70,30,100,387.3992386,388.3992968,388.3992968,388.3992968,388.3992968,None,None,2,0,1.1144434,,,,,,,,,,,,,,,,,,,,,,,,,,,,,,,,,,,,,,,,,,,,,,,,,,,,,,,,,,,,,,,,,,,,10,13,2,2024-10-29_12h00.58.440,uWM_experiment,2022.2.3,59.99764809
,,,,,,,,0,0,0,0,1,0,1,0,,,,,,,,,,,,,,,,,,,,,,,,,,,,,,,,,,,,,,,,,,,,,,,,,,,,,,,,,,,,,,,left,1,160,-30,130,395.9162836,396.9162994,396.9162994,396.9162994,396.9162994,None,None,2,0,1.0853201,,,,,,,,,,,,,,,,,,,,,,,,,,,,,,,,,,,,,,,,,,,,,,,,,,,,,,,,,,,,,,,,,,,,10,13,2,2024-10-29_12h00.58.440,uWM_experiment,2022.2.3,59.99764809
,,,,,,,,0,0,0,0,2,0,2,0,,,,,,,,,,,,,,,,,,,,,,,,,,,,,,,,,,,,,,,,,,,,,,,,,,,,,,,,,,,,,,,right,1,130,30,160,404.8332641,405.833311,405.833311,405.833311,405.833311,None,None,4,0,3.0483566,,,,,,,,,,,,,,,,,,,,,,,,,,,,,,,,,,,,,,,,,,,,,,,,,,,,,,,,,,,,,,,,,,,,10,13,2,2024-10-29_12h00.58.440,uWM_experiment,2022.2.3,59.99764809
,,,,,,,,0,0,0,0,3,0,3,0,,,,,,,,,,,,,,,,,,,,,,,,,,,,,,,,,,,,,,,,,,,,,,,,,,,,,,,,,,,,,,,left,1,10,-30,-20,415.1837193,416.1837388,416.1837388,416.1837388,416.1837388,None,None,4,0,4.9778275,,,,,,,,,,,,,,,,,,,,,,,,,,,,,,,,,,,,,,,,,,,,,,,,,,,,,,,,,,,,,,,,,,,,10,13,2,2024-10-29_12h00.58.440,uWM_experiment,2022.2.3,59.99764809
,,,,,,,,0,0,0,0,4,0,4,0,,,,,,,,,,,,,,,,,,,,,,,,,,,,,,,,,,,,,,,,,,,,,,,,,,,,,,,,,,,,,,,right,1,40,30,70,427.3508471,428.3509022,428.3509022,428.3509022,428.3509022,None,None,2,0,1.7226377,,,,,,,,,,,,,,,,,,,,,,,,,,,,,,,,,,,,,,,,,,,,,,,,,,,,,,,,,,,,,,,,,,,,10,13,2,2024-10-29_12h00.58.440,uWM_experiment,2022.2.3,59.99764809
,,,,,,,,0,0,0,0,5,0,5,0,,,,,,,,,,,,,,,,,,,,,,,,,,,,,,,,,,,,,,,,,,,,,,,,,,,,,,,,,,,,,,,left,1,40,-30,10,436.9012678,,437.9012769,437.9012769,437.9012769,None,None,4,0,2.0602686,,,,,,,,,,,,,,,,,,,,,,,,,,,,,,,,,,,,,,,,,,,,,,,,,,,,,,,,,,,,,,,,,,,,10,13,2,2024-10-29_12h00.58.440,uWM_experiment,2022.2.3,59.99764809
,,,,,,,,0,0,0,0,,,,,,,,,,,,,,,,,,,,,,,,,,,,,,,,,,,,,,,,,,,,,,,,,,,,,,,,,,,,,,,,,,,,,,,,,,,,,,,,,,,,,,,,,,,,,,,,,,,,,,,,,,,,,,,,,,,,,,,,,,,,,,,,,,,,,,,,,,,,,,,,,,,,,10,13,2,2024-10-29_12h00.58.440,uWM_experiment,2022.2.3,59.99764809
,,,,,,,,,,,,,,,,,,,,,,,,,,,,,,,,,,,,,,,,,,,,,,,,,,,,,,,,,,,,,,,,,,,,,,,,,,,,,,,,,,,,,,,,,,,,,443.3348246,443.3348246,space,5.0747267,,,,,,,,,,,,,,,,,,,,,,,,,,,,,,,,,,,,,,,,,,,,,,,,,,,,,,,,,,,,,,,,10,13,2,2024-10-29_12h00.58.440,uWM_experiment,2022.2.3,59.99764809
,,,,,,,,,,,,,,,,0,0,0,0,,,,,,,,,,,,,,,,,,,,,,,,,,,,,,,,,,,,,,,,,,,,,,,,,,,,,,,,,,,,,,,,,,,,,,,,,,,,,,0.068600643,right,0,130,-30,100,1,455.0352917,455.0352917,455.0352917,None,None,3,0,2.9742077,,,,,,,,,,,,,,,,,,,,,,,,,,,,,,,,,,,,,,,,,,,,,,,,,10,13,2,2024-10-29_12h00.58.440,uWM_experiment,2022.2.3,59.99764809
,,,,,,,,,,,,,,,,1,0,1,0,,,,,,,,,,,,,,,,,,,,,,,,,,,,,,,,,,,,,,,,,,,,,,,,,,,,,,,,,,,,,,,,,,,,,,,,,,,,,,0.1,right,1,10,30,40,2,464.0023075,464.0023075,464.0023075,None,None,3,0,3.0951348,0,,,,,,,,,,,,,,,,,,,,,,,,,,,,,,,,,,,,,,,,,,,,,,,,10,13,2,2024-10-29_12h00.58.440,uWM_experiment,2022.2.3,59.99764809
,,,,,,,,,,,,,,,,2,0,2,0,,,,,,,,,,,,,,,,,,,,,,,,,,,,,,,,,,,,,,,,,,,,,,,,,,,,,,,,,,,,,,,,,,,,,,,,,,,,,,0.058600643,left,1,40,-30,10,1,473.0693635,473.0693635,473.0693635,None,None,2,0,1.0919926,0,,,,,,,,,,,,,,,,,,,,,,,,,,,,,,,,,,,,,,,,,,,,,,,,10,13,2,2024-10-29_12h00.58.440,uWM_experiment,2022.2.3,59.99764809
,,,,,,,,,,,,,,,,3,0,3,0,,,,,,,,,,,,,,,,,,,,,,,,,,,,,,,,,,,,,,,,,,,,,,,,,,,,,,,,,,,,,,,,,,,,,,,,,,,,,,0.1,right,1,160,30,190,2,480.1363028,480.1363028,480.1363028,None,None,4,0,3.9930619,0,,,,,,,,,,,,,,,,,,,,,,,,,,,,,,,,,,,,,,,,,,,,,,,,10,13,2,2024-10-29_12h00.58.440,uWM_experiment,2022.2.3,59.99764809
,,,,,,,,,,,,,,,,4,0,4,0,,,,,,,,,,,,,,,,,,,,,,,,,,,,,,,,,,,,,,,,,,,,,,,,,,,,,,,,,,,,,,,,,,,,,,,,,,,,,,0.048600643,right,0,70,-30,40,1,490.0200205,490.0200205,490.0200205,None,None,2,0,1.4132142,0,,,,,,,,,,,,,,,,,,,,,,,,,,,,,,,,,,,,,,,,,,,,,,,,10,13,2,2024-10-29_12h00.58.440,uWM_experiment,2022.2.3,59.99764809
,,,,,,,,,,,,,,,,5,0,5,0,,,,,,,,,,,,,,,,,,,,,,,,,,,,,,,,,,,,,,,,,,,,,,,,,,,,,,,,,,,,,,,,,,,,,,,,,,,,,,0.1,left,0,100,30,130,2,497.7870309,497.7870309,497.7870309,None,None,3,0,3.7822243,0,,,,,,,,,,,,,,,,,,,,,,,,,,,,,,,,,,,,,,,,,,,,,,,,10,13,2,2024-10-29_12h00.58.440,uWM_experiment,2022.2.3,59.99764809
,,,,,,,,,,,,,,,,,,,,,,,,,,,,,,,,,,,,,,,,,,,,,,,,,,,,,,,,,,,,,,,,,,,,,,,,,,,,,,,,,,,,,,,,,,,,,,,,,,,,,,,,,,,,,,,,,501.5871417,502.5705127,space,5.2467241,,,,,,,,,,,,,,,,,,,,,,,,,,,,,,,,,,,,,,,,,,,,10,13,2,2024-10-29_12h00.58.440,uWM_experiment,2022.2.3,59.99764809
,,,,,,,,,,,,,,,,,,,,0,0,0,0,0,0,0,0,,,,,,,,,,,,,,,,,,,,,,,,,,,,,,,,,,,,,,,,,,,,,,,,,,,,,,,,,,,,,,,,,,,,,,0.048600643,,,,,,,,,,,,,,,,,,,,507.8374016,508.5374439,508.8207678,509.5208066,509.8208144,510.5208432,510.5208432,510.8708646,right,0,70,-30,40,1,516.3877654,516.3877654,516.3877654,None,None,2,0,1.3094204,,,,,,,,,,,,,,,,,,,,,,10,13,2,2024-10-29_12h00.58.440,uWM_experiment,2022.2.3,59.99764809
,,,,,,,,,,,,,,,,,,,,0,0,0,0,1,0,1,0,,,,,,,,,,,,,,,,,,,,,,,,,,,,,,,,,,,,,,,,,,,,,,,,,,,,,,,,,,,,,,,,,,,,,,0.038600643,,,,,,,,,,,,,,,,,,,,,,,,,,,,left,1,10,-30,-20,1,524.2713834,524.2713834,524.2713834,None,None,2,0,0.8658132,,,,,,,,,,,,,,,,,,,,,,10,13,2,2024-10-29_12h00.58.440,uWM_experiment,2022.2.3,59.99764809
,,,,,,,,,,,,,,,,,,,,0,0,0,0,2,0,2,0,,,,,,,,,,,,,,,,,,,,,,,,,,,,,,,,,,,,,,,,,,,,,,,,,,,,,,,,,,,,,,,,,,,,,,0.028600643,,,,,,,,,,,,,,,,,,,,,,,,,,,,right,1,40,30,70,1,530.7383093,530.7383093,530.7383093,None,None,1,1,0.5748776,,,,,,,,,,,,,,,,,,,,,,10,13,2,2024-10-29_12h00.58.440,uWM_experiment,2022.2.3,59.99764809
,,,,,,,,,,,,,,,,,,,,0,0,0,0,3,0,3,0,,,,,,,,,,,,,,,,,,,,,,,,,,,,,,,,,,,,,,,,,,,,,,,,,,,,,,,,,,,,,,,,,,,,,,0.038600643,,,,,,,,,,,,,,,,,,,,,,,,,,,,left,1,40,-30,10,1,543.6888557,543.6888557,543.6888557,None,None,2,0,2.3361098,,,,,,,,,,,,,,,,,,,,,,10,13,2,2024-10-29_12h00.58.440,uWM_experiment,2022.2.3,59.99764809
,,,,,,,,,,,,,,,,,,,,0,0,0,0,4,0,4,0,,,,,,,,,,,,,,,,,,,,,,,,,,,,,,,,,,,,,,,,,,,,,,,,,,,,,,,,,,,,,,,,,,,,,,0,,,,,,,,,,,,,,,,,,,,,,,,,,,,right,1,40,30,70,0,551.9558154,551.9558154,551.9558154,None,None,2,0,2.8211407,,,,,,,,,,,,,,,,,,,,,,10,13,2,2024-10-29_12h00.58.440,uWM_experiment,2022.2.3,59.99764809
,,,,,,,,,,,,,,,,,,,,0,0,0,0,5,0,5,0,,,,,,,,,,,,,,,,,,,,,,,,,,,,,,,,,,,,,,,,,,,,,,,,,,,,,,,,,,,,,,,,,,,,,,0.028600643,,,,,,,,,,,,,,,,,,,,,,,,,,,,left,1,160,-30,130,1,560.6395364,560.6395364,560.6395364,None,None,1,1,2.809376,,,,,,,,,,,,,,,,,,,,,,10,13,2,2024-10-29_12h00.58.440,uWM_experiment,2022.2.3,59.99764809
,,,,,,,,,,,,,,,,,,,,0,0,0,0,6,0,6,0,,,,,,,,,,,,,,,,,,,,,,,,,,,,,,,,,,,,,,,,,,,,,,,,,,,,,,,,,,,,,,,,,,,,,,0.038600643,,,,,,,,,,,,,,,,,,,,,,,,,,,,left,0,40,30,70,1,571.756632,571.756632,571.756632,None,None,2,0,0.91628,,,,,,,,,,,,,,,,,,,,,,10,13,2,2024-10-29_12h00.58.440,uWM_experiment,2022.2.3,59.99764809
,,,,,,,,,,,,,,,,,,,,0,0,0,0,7,0,7,0,,,,,,,,,,,,,,,,,,,,,,,,,,,,,,,,,,,,,,,,,,,,,,,,,,,,,,,,,,,,,,,,,,,,,,0.1,,,,,,,,,,,,,,,,,,,,,,,,,,,,left,1,130,-30,100,2,580.4736605,580.4736605,580.4736605,None,None,3,0,1.2232914,,,,,,,,,,,,,,,,,,,,,,10,13,2,2024-10-29_12h00.58.440,uWM_experiment,2022.2.3,59.99764809
,,,,,,,,,,,,,,,,,,,,0,0,0,0,8,0,8,0,,,,,,,,,,,,,,,,,,,,,,,,,,,,,,,,,,,,,,,,,,,,,,,,,,,,,,,,,,,,,,,,,,,,,,0,,,,,,,,,,,,,,,,,,,,,,,,,,,,left,0,160,30,190,0,588.0239504,588.0239504,588.0239504,None,None,2,0,3.264963,,,,,,,,,,,,,,,,,,,,,,10,13,2,2024-10-29_12h00.58.440,uWM_experiment,2022.2.3,59.99764809
,,,,,,,,,,,,,,,,,,,,0,0,0,0,9,0,9,0,,,,,,,,,,,,,,,,,,,,,,,,,,,,,,,,,,,,,,,,,,,,,,,,,,,,,,,,,,,,,,,,,,,,,,0.028600643,,,,,,,,,,,,,,,,,,,,,,,,,,,,right,1,10,30,40,1,597.3076242,597.3076242,597.3076242,None,None,2,0,1.3972522,,,,,,,,,,,,,,,,,,,,,,10,13,2,2024-10-29_12h00.58.440,uWM_experiment,2022.2.3,59.99764809
,,,,,,,,,,,,,,,,,,,,0,0,0,0,10,0,10,0,,,,,,,,,,,,,,,,,,,,,,,,,,,,,,,,,,,,,,,,,,,,,,,,,,,,,,,,,,,,,,,,,,,,,,0.018600643,,,,,,,,,,,,,,,,,,,,,,,,,,,,left,0,70,30,100,1,604.624597,604.624597,604.624597,None,None,1,1,0.4323065,,,,,,,,,,,,,,,,,,,,,,10,13,2,2024-10-29_12h00.58.440,uWM_experiment,2022.2.3,59.99764809
,,,,,,,,,,,,,,,,,,,,0,0,0,0,11,0,11,0,,,,,,,,,,,,,,,,,,,,,,,,,,,,,,,,,,,,,,,,,,,,,,,,,,,,,,,,,,,,,,,,,,,,,,0.028600643,,,,,,,,,,,,,,,,,,,,,,,,,,,,left,1,70,-30,40,1,611.7582259,611.7582259,611.7582259,None,None,2,0,0.9945426,,,,,,,,,,,,,,,,,,,,,,10,13,2,2024-10-29_12h00.58.440,uWM_experiment,2022.2.3,59.99764809
,,,,,,,,,,,,,,,,,,,,0,0,0,0,12,0,12,0,,,,,,,,,,,,,,,,,,,,,,,,,,,,,,,,,,,,,,,,,,,,,,,,,,,,,,,,,,,,,,,,,,,,,,0.018600643,,,,,,,,,,,,,,,,,,,,,,,,,,,,right,0,100,-30,70,1,620.791928,620.791928,620.791928,None,None,2,0,0.5928264,,,,,,,,,,,,,,,,,,,,,,10,13,2,2024-10-29_12h00.58.440,uWM_experiment,2022.2.3,59.99764809
,,,,,,,,,,,,,,,,,,,,0,0,0,0,13,0,13,0,,,,,,,,,,,,,,,,,,,,,,,,,,,,,,,,,,,,,,,,,,,,,,,,,,,,,,,,,,,,,,,,,,,,,,0,,,,,,,,,,,,,,,,,,,,,,,,,,,,left,0,40,30,70,0,627.8088731,627.8088731,627.8088731,None,None,1,1,1.4718559,,,,,,,,,,,,,,,,,,,,,,10,13,2,2024-10-29_12h00.58.440,uWM_experiment,2022.2.3,59.99764809
,,,,,,,,,,,,,,,,,,,,0,0,0,0,14,0,14,0,,,,,,,,,,,,,,,,,,,,,,,,,,,,,,,,,,,,,,,,,,,,,,,,,,,,,,,,,,,,,,,,,,,,,,0.008600643,,,,,,,,,,,,,,,,,,,,,,,,,,,,left,0,130,30,160,1,636.7592306,636.7592306,636.7592306,None,None,3,0,2.2814434,,,,,,,,,,,,,,,,,,,,,,10,13,2,2024-10-29_12h00.58.440,uWM_experiment,2022.2.3,59.99764809
,,,,,,,,,,,,,,,,,,,,0,0,0,0,15,0,15,0,,,,,,,,,,,,,,,,,,,,,,,,,,,,,,,,,,,,,,,,,,,,,,,,,,,,,,,,,,,,,,,,,,,,,,0,,,,,,,,,,,,,,,,,,,,,,,,,,,,left,1,10,-30,-20,0,646.4429547,646.4429547,646.4429547,None,None,1,1,1.0056127,,,,,,,,,,,,,,,,,,,,,,10,13,2,2024-10-29_12h00.58.440,uWM_experiment,2022.2.3,59.99764809
,,,,,,,,,,,,,,,,,,,,0,0,0,0,16,0,16,0,,,,,,,,,,,,,,,,,,,,,,,,,,,,,,,,,,,,,,,,,,,,,,,,,,,,,,,,,,,,,,,,,,,,,,0,,,,,,,,,,,,,,,,,,,,,,,,,,,,left,0,130,30,160,0,654.8599725,654.8599725,654.8599725,None,None,3,0,1.6205076,,,,,,,,,,,,,,,,,,,,,,10,13,2,2024-10-29_12h00.58.440,uWM_experiment,2022.2.3,59.99764809
,,,,,,,,,,,,,,,,,,,,0,0,0,0,17,0,17,0,,,,,,,,,,,,,,,,,,,,,,,,,,,,,,,,,,,,,,,,,,,,,,,,,,,,,,,,,,,,,,,,,,,,,,0,,,,,,,,,,,,,,,,,,,,,,,,,,,,right,0,40,-30,10,0,663.5436611,663.5436611,663.5436611,None,None,2,0,1.7288952,,,,,,,,,,,,,,,,,,,,,,10,13,2,2024-10-29_12h00.58.440,uWM_experiment,2022.2.3,59.99764809
,,,,,,,,,,,,,,,,,,,,0,0,0,0,18,0,18,0,,,,,,,,,,,,,,,,,,,,,,,,,,,,,,,,,,,,,,,,,,,,,,,,,,,,,,,,,,,,,,,,,,,,,,0.005,,,,,,,,,,,,,,,,,,,,,,,,,,,,right,0,130,-30,100,1,671.6106335,671.6106335,671.6106335,None,None,2,0,1.6697729,,,,,,,,,,,,,,,,,,,,,,10,13,2,2024-10-29_12h00.58.440,uWM_experiment,2022.2.3,59.99764809
,,,,,,,,,,,,,,,,,,,,0,0,0,0,19,0,19,0,,,,,,,,,,,,,,,,,,,,,,,,,,,,,,,,,,,,,,,,,,,,,,,,,,,,,,,,,,,,,,,,,,,,,,0.005,,,,,,,,,,,,,,,,,,,,,,,,,,,,left,0,40,30,70,1,680.0443091,680.0443091,680.0443091,None,None,1,1,0.5962208,,,,,,,,,,,,,,,,,,,,,,10,13,2,2024-10-29_12h00.58.440,uWM_experiment,2022.2.3,59.99764809
,,,,,,,,,,,,,,,,,,,,0,0,0,0,20,0,20,0,,,,,,,,,,,,,,,,,,,,,,,,,,,,,,,,,,,,,,,,,,,,,,,,,,,,,,,,,,,,,,,,,,,,,,0.015,,,,,,,,,,,,,,,,,,,,,,,,,,,,left,1,100,-30,70,1,688.5779462,688.5779462,688.5779462,None,None,2,0,1.3824619,,,,,,,,,,,,,,,,,,,,,,10,13,2,2024-10-29_12h00.58.440,uWM_experiment,2022.2.3,59.99764809
,,,,,,,,,,,,,,,,,,,,0,0,0,0,21,0,21,0,,,,,,,,,,,,,,,,,,,,,,,,,,,,,,,,,,,,,,,,,,,,,,,,,,,,,,,,,,,,,,,,,,,,,,0,,,,,,,,,,,,,,,,,,,,,,,,,,,,right,1,130,30,160,0,698.3783581,698.3783581,698.3783581,None,None,2,0,2.1260109,,,,,,,,,,,,,,,,,,,,,,10,13,2,2024-10-29_12h00.58.440,uWM_experiment,2022.2.3,59.99764809
,,,,,,,,,,,,,,,,,,,,0,0,0,0,22,0,22,0,,,,,,,,,,,,,,,,,,,,,,,,,,,,,,,,,,,,,,,,,,,,,,,,,,,,,,,,,,,,,,,,,,,,,,0.005,,,,,,,,,,,,,,,,,,,,,,,,,,,,right,0,160,-30,130,1,706.5286941,706.5286941,706.5286941,None,None,1,1,1.0636477,,,,,,,,,,,,,,,,,,,,,,10,13,2,2024-10-29_12h00.58.440,uWM_experiment,2022.2.3,59.99764809
,,,,,,,,,,,,,,,,,,,,0,0,0,0,23,0,23,0,,,,,,,,,,,,,,,,,,,,,,,,,,,,,,,,,,,,,,,,,,,,,,,,,,,,,,,,,,,,,,,,,,,,,,0.015,,,,,,,,,,,,,,,,,,,,,,,,,,,,right,0,10,-30,-20,1,714.0789933,714.0789933,714.0789933,None,None,2,0,0.8653726,,,,,,,,,,,,,,,,,,,,,,10,13,2,2024-10-29_12h00.58.440,uWM_experiment,2022.2.3,59.99764809
,,,,,,,,,,,,,,,,,,,,0,0,0,0,,,,,0,0,0,0,,,,,,,,,,,,,,,,,,,,,,,,,,,,,,,,,,,,,,,,,,,,,,,,,,,,,,,,,,,,,,,,,,,,,,,,,,,,,,,,,,,,,,,,,,,,,,,,,,,,,,,,,,,,714.9623342,714.9623342,space,80.3737024,None,None,,,,,,,,,,,,,,,,10,13,2,2024-10-29_12h00.58.440,uWM_experiment,2022.2.3,59.99764809
,,,,,,,,,,,,,,,,,,,,0,0,0,0,,,,,1,0,1,0,,,,,,,,,,,,,,,,,,,,,,,,,,,,,,,,,,,,,,,,,,,,,,,,,,,,,,,,,,,,,,,,,,,,,,,,,,,,,,,,,,,,,,,,,,,,,,,,,,,,,,,,,,,,,,,,,,,,,,,,,,,,,,,,,10,13,2,2024-10-29_12h00.58.440,uWM_experiment,2022.2.3,59.99764809
,,,,,,,,,,,,,,,,,,,,0,0,0,0,,,,,2,0,2,0,,,,,,,,,,,,,,,,,,,,,,,,,,,,,,,,,,,,,,,,,,,,,,,,,,,,,,,,,,,,,,,,,,,,,,,,,,,,,,,,,,,,,,,,,,,,,,,,,,,,,,,,,,,,,,,,,,,,,,,,,,,,,,,,,10,13,2,2024-10-29_12h00.58.440,uWM_experiment,2022.2.3,59.99764809
,,,,,,,,,,,,,,,,,,,,1,0,1,0,0,0,0,0,,,,,,,,,,,,,,,,,,,,,,,,,,,,,,,,,,,,,,,,,,,,,,,,,,,,,,,,,,,,,,,,,,,,,,0.005,,,,,,,,,,,,,,,,,,,,795.3655464,796.0655876,796.3655967,797.065633,797.3656409,798.0656624,798.0656624,798.3823536,right,0,70,-30,40,1,803.5492193,803.5492193,803.5492193,None,None,2,0,3.3546236,,,,,,,None,,,,,,,,,,,,,,,10,13,2,2024-10-29_12h00.58.440,uWM_experiment,2022.2.3,59.99764809
,,,,,,,,,,,,,,,,,,,,1,0,1,0,1,0,1,0,,,,,,,,,,,,,,,,,,,,,,,,,,,,,,,,,,,,,,,,,,,,,,,,,,,,,,,,,,,,,,,,,,,,,,0.005,,,,,,,,,,,,,,,,,,,,,,,,,,,,right,1,160,30,190,1,813.5662686,813.5662686,813.5662686,None,None,2,0,2.0176008,,,,,,,,,,,,,,,,,,,,,,10,13,2,2024-10-29_12h00.58.440,uWM_experiment,2022.2.3,59.99764809
,,,,,,,,,,,,,,,,,,,,1,0,1,0,2,0,2,0,,,,,,,,,,,,,,,,,,,,,,,,,,,,,,,,,,,,,,,,,,,,,,,,,,,,,,,,,,,,,,,,,,,,,,0.005,,,,,,,,,,,,,,,,,,,,,,,,,,,,left,1,100,-30,70,1,821.5332827,821.5332827,821.5332827,None,None,1,1,0.4985895,,,,,,,,,,,,,,,,,,,,,,10,13,2,2024-10-29_12h00.58.440,uWM_experiment,2022.2.3,59.99764809
,,,,,,,,,,,,,,,,,,,,1,0,1,0,3,0,3,0,,,,,,,,,,,,,,,,,,,,,,,,,,,,,,,,,,,,,,,,,,,,,,,,,,,,,,,,,,,,,,,,,,,,,,0.015,,,,,,,,,,,,,,,,,,,,,,,,,,,,right,0,10,-30,-20,1,833.3337558,833.3337558,833.3337558,None,None,1,1,3.1460186,,,,,,,,,,,,,,,,,,,,,,10,13,2,2024-10-29_12h00.58.440,uWM_experiment,2022.2.3,59.99764809
,,,,,,,,,,,,,,,,,,,,1,0,1,0,4,0,4,0,,,,,,,,,,,,,,,,,,,,,,,,,,,,,,,,,,,,,,,,,,,,,,,,,,,,,,,,,,,,,,,,,,,,,,0.025,,,,,,,,,,,,,,,,,,,,,,,,,,,,left,0,70,30,100,1,842.8174355,842.8174355,842.8174355,None,None,2,0,0.9743579,,,,,,,,,,,,,,,,,,,,,,10,13,2,2024-10-29_12h00.58.440,uWM_experiment,2022.2.3,59.99764809
,,,,,,,,,,,,,,,,,,,,1,0,1,0,5,0,5,0,,,,,,,,,,,,,,,,,,,,,,,,,,,,,,,,,,,,,,,,,,,,,,,,,,,,,,,,,,,,,,,,,,,,,,0.015,,,,,,,,,,,,,,,,,,,,,,,,,,,,right,0,10,-30,-20,1,850.784438,850.784438,850.784438,None,None,2,0,2.0871714,,,,,,,,,,,,,,,,,,,,,,10,13,2,2024-10-29_12h00.58.440,uWM_experiment,2022.2.3,59.99764809
,,,,,,,,,,,,,,,,,,,,1,0,1,0,6,0,6,0,,,,,,,,,,,,,,,,,,,,,,,,,,,,,,,,,,,,,,,,,,,,,,,,,,,,,,,,,,,,,,,,,,,,,,0.005,,,,,,,,,,,,,,,,,,,,,,,,,,,,left,0,40,30,70,1,861.4015392,861.4015392,861.4015392,None,None,2,0,1.2141827,,,,,,,,,,,,,,,,,,,,,,10,13,2,2024-10-29_12h00.58.440,uWM_experiment,2022.2.3,59.99764809
,,,,,,,,,,,,,,,,,,,,1,0,1,0,7,0,7,0,,,,,,,,,,,,,,,,,,,,,,,,,,,,,,,,,,,,,,,,,,,,,,,,,,,,,,,,,,,,,,,,,,,,,,0,,,,,,,,,,,,,,,,,,,,,,,,,,,,right,1,40,30,70,0,869.068486,869.068486,869.068486,None,None,1,1,1.6111909,,,,,,,,,,,,,,,,,,,,,,10,13,2,2024-10-29_12h00.58.440,uWM_experiment,2022.2.3,59.99764809
,,,,,,,,,,,,,,,,,,,,1,0,1,0,8,0,8,0,,,,,,,,,,,,,,,,,,,,,,,,,,,,,,,,,,,,,,,,,,,,,,,,,,,,,,,,,,,,,,,,,,,,,,0,,,,,,,,,,,,,,,,,,,,,,,,,,,,left,0,130,30,160,0,882.0190224,882.0190224,882.0190224,None,None,2,0,1.6126099,,,,,,,,,,,,,,,,,,,,,,10,13,2,2024-10-29_12h00.58.440,uWM_experiment,2022.2.3,59.99764809
,,,,,,,,,,,,,,,,,,,,1,0,1,0,9,0,9,0,,,,,,,,,,,,,,,,,,,,,,,,,,,,,,,,,,,,,,,,,,,,,,,,,,,,,,,,,,,,,,,,,,,,,,0.005,,,,,,,,,,,,,,,,,,,,,,,,,,,,right,0,160,-30,130,1,890.0526778,890.0526778,890.0526778,None,None,2,0,7.1629216,,,,,,,,,,,,,,,,,,,,,,10,13,2,2024-10-29_12h00.58.440,uWM_experiment,2022.2.3,59.99764809
,,,,,,,,,,,,,,,,,,,,1,0,1,0,10,0,10,0,,,,,,,,,,,,,,,,,,,,,,,,,,,,,,,,,,,,,,,,,,,,,,,,,,,,,,,,,,,,,,,,,,,,,,0,,,,,,,,,,,,,,,,,,,,,,,,,,,,right,1,100,30,130,0,906.4866616,906.4866616,906.4866616,None,None,2,0,1.5448254,,,,,,,,,,,,,,,,,,,,,,10,13,2,2024-10-29_12h00.58.440,uWM_experiment,2022.2.3,59.99764809
,,,,,,,,,,,,,,,,,,,,1,0,1,0,11,0,11,0,,,,,,,,,,,,,,,,,,,,,,,,,,,,,,,,,,,,,,,,,,,,,,,,,,,,,,,,,,,,,,,,,,,,,,0,,,,,,,,,,,,,,,,,,,,,,,,,,,,left,0,70,30,100,0,916.2037784,916.2037784,916.2037784,None,None,3,0,3.7396696,,,,,,,,,,,,,,,,,,,,,,10,13,2,2024-10-29_12h00.58.440,uWM_experiment,2022.2.3,59.99764809
,,,,,,,,,,,,,,,,,,,,1,0,1,0,12,0,12,0,,,,,,,,,,,,,,,,,,,,,,,,,,,,,,,,,,,,,,,,,,,,,,,,,,,,,,,,,,,,,,,,,,,,,,0,,,,,,,,,,,,,,,,,,,,,,,,,,,,left,0,130,30,160,0,926.0874615,926.0874615,926.0874615,None,None,2,0,8.1999162,,,,,,,,,,,,,,,,,,,,,,10,13,2,2024-10-29_12h00.58.440,uWM_experiment,2022.2.3,59.99764809
,,,,,,,,,,,,,,,,,,,,1,0,1,0,13,0,13,0,,,,,,,,,,,,,,,,,,,,,,,,,,,,,,,,,,,,,,,,,,,,,,,,,,,,,,,,,,,,,,,,,,,,,,0,,,,,,,,,,,,,,,,,,,,,,,,,,,,left,0,100,30,130,0,947.6883161,947.6883161,947.6883161,None,None,1,1,1.902866,,,,,,,,,,,,,,,,,,,,,,10,13,2,2024-10-29_12h00.58.440,uWM_experiment,2022.2.3,59.99764809
,,,,,,,,,,,,,,,,,,,,1,0,1,0,14,0,14,0,,,,,,,,,,,,,,,,,,,,,,,,,,,,,,,,,,,,,,,,,,,,,,,,,,,,,,,,,,,,,,,,,,,,,,0,,,,,,,,,,,,,,,,,,,,,,,,,,,,right,0,130,-30,100,0,959.7221346,959.7221346,959.7221346,None,None,2,0,1.2370029,,,,,,,,,,,,,,,,,,,,,,10,13,2,2024-10-29_12h00.58.440,uWM_experiment,2022.2.3,59.99764809
,,,,,,,,,,,,,,,,,,,,1,0,1,0,15,0,15,0,,,,,,,,,,,,,,,,,,,,,,,,,,,,,,,,,,,,,,,,,,,,,,,,,,,,,,,,,,,,,,,,,,,,,,0,,,,,,,,,,,,,,,,,,,,,,,,,,,,right,1,70,30,100,0,966.9057422,966.9057422,966.9057422,None,None,2,0,2.2134733,,,,,,,,,,,,,,,,,,,,,,10,13,2,2024-10-29_12h00.58.440,uWM_experiment,2022.2.3,59.99764809
,,,,,,,,,,,,,,,,,,,,1,0,1,0,16,0,16,0,,,,,,,,,,,,,,,,,,,,,,,,,,,,,,,,,,,,,,,,,,,,,,,,,,,,,,,,,,,,,,,,,,,,,,0.005,,,,,,,,,,,,,,,,,,,,,,,,,,,,right,0,40,-30,10,1,975.5894191,975.5894191,975.5894191,None,None,1,1,1.4657056,,,,,,,,,,,,,,,,,,,,,,10,13,2,2024-10-29_12h00.58.440,uWM_experiment,2022.2.3,59.99764809
,,,,,,,,,,,,,,,,,,,,1,0,1,0,17,0,17,0,,,,,,,,,,,,,,,,,,,,,,,,,,,,,,,,,,,,,,,,,,,,,,,,,,,,,,,,,,,,,,,,,,,,,,0.015,,,,,,,,,,,,,,,,,,,,,,,,,,,,left,0,40,30,70,1,982.9230619,982.9230619,982.9230619,None,None,2,0,4.0839862,,,,,,,,,,,,,,,,,,,,,,10,13,2,2024-10-29_12h00.58.440,uWM_experiment,2022.2.3,59.99764809
,,,,,,,,,,,,,,,,,,,,1,0,1,0,18,0,18,0,,,,,,,,,,,,,,,,,,,,,,,,,,,,,,,,,,,,,,,,,,,,,,,,,,,,,,,,,,,,,,,,,,,,,,0.005,,,,,,,,,,,,,,,,,,,,,,,,,,,,left,1,10,-30,-20,1,993.8068288,993.8068288,993.8068288,None,None,3,0,7.2003088,,,,,,,,,,,,,,,,,,,,,,10,13,2,2024-10-29_12h00.58.440,uWM_experiment,2022.2.3,59.99764809
,,,,,,,,,,,,,,,,,,,,1,0,1,0,19,0,19,0,,,,,,,,,,,,,,,,,,,,,,,,,,,,,,,,,,,,,,,,,,,,,,,,,,,,,,,,,,,,,,,,,,,,,,0.005,,,,,,,,,,,,,,,,,,,,,,,,,,,,left,1,130,-30,100,1,1009.074102,1009.074102,1009.074102,None,None,2,0,0.8849135,,,,,,,,,,,,,,,,,,,,,,10,13,2,2024-10-29_12h00.58.440,uWM_experiment,2022.2.3,59.99764809
,,,,,,,,,,,,,,,,,,,,1,0,1,0,20,0,20,0,,,,,,,,,,,,,,,,,,,,,,,,,,,,,,,,,,,,,,,,,,,,,,,,,,,,,,,,,,,,,,,,,,,,,,0.005,,,,,,,,,,,,,,,,,,,,,,,,,,,,left,0,100,30,130,1,1018.891159,1018.891159,1018.891159,None,None,1,1,1.331805,,,,,,,,,,,,,,,,,,,,,,10,13,2,2024-10-29_12h00.58.440,uWM_experiment,2022.2.3,59.99764809
,,,,,,,,,,,,,,,,,,,,1,0,1,0,21,0,21,0,,,,,,,,,,,,,,,,,,,,,,,,,,,,,,,,,,,,,,,,,,,,,,,,,,,,,,,,,,,,,,,,,,,,,,0.015,,,,,,,,,,,,,,,,,,,,,,,,,,,,right,0,40,-30,10,1,1031.40832,1031.40832,1031.40832,None,None,2,0,1.3025473,,,,,,,,,,,,,,,,,,,,,,10,13,2,2024-10-29_12h00.58.440,uWM_experiment,2022.2.3,59.99764809
,,,,,,,,,,,,,,,,,,,,1,0,1,0,22,0,22,0,,,,,,,,,,,,,,,,,,,,,,,,,,,,,,,,,,,,,,,,,,,,,,,,,,,,,,,,,,,,,,,,,,,,,,0.005,,,,,,,,,,,,,,,,,,,,,,,,,,,,left,0,100,30,130,1,1048.525683,1048.525683,1048.525683,None,None,2,0,1.4171335,,,,,,,,,,,,,,,,,,,,,,10,13,2,2024-10-29_12h00.58.440,uWM_experiment,2022.2.3,59.99764809
,,,,,,,,,,,,,,,,,,,,1,0,1,0,23,0,23,0,,,,,,,,,,,,,,,,,,,,,,,,,,,,,,,,,,,,,,,,,,,,,,,,,,,,,,,,,,,,,,,,,,,,,,0.1,,,,,,,,,,,,,,,,,,,,,,,,,,,,left,0,130,30,160,2,1063.342937,1063.342937,1063.342937,None,None,2,0,1.6877824,,,,,,,,,,,,,,,,,,,,,,10,13,2,2024-10-29_12h00.58.440,uWM_experiment,2022.2.3,59.99764809
,,,,,,,,,,,,,,,,,,,,1,0,1,0,,,,,0,0,0,0,,,,,,,,,,,,,,,,,,,,,,,,,,,,,,,,,,,,,,,,,,,,,,,,,,,,,,,,,,,,,,,,,,,,,,,,,,,,,,,,,,,,,,,,,,,,,,,,,,,,,,,,,,,,1065.059651,1065.059651,space,44.9629566,None,None,,,,,,,,,,,,,,,,10,13,2,2024-10-29_12h00.58.440,uWM_experiment,2022.2.3,59.99764809
,,,,,,,,,,,,,,,,,,,,1,0,1,0,,,,,1,0,1,0,,,,,,,,,,,,,,,,,,,,,,,,,,,,,,,,,,,,,,,,,,,,,,,,,,,,,,,,,,,,,,,,,,,,,,,,,,,,,,,,,,,,,,,,,,,,,,,,,,,,,,,,,,,,,,,,,,,,,,,,,,,,,,,,,10,13,2,2024-10-29_12h00.58.440,uWM_experiment,2022.2.3,59.99764809
,,,,,,,,,,,,,,,,,,,,1,0,1,0,,,,,2,0,2,0,,,,,,,,,,,,,,,,,,,,,,,,,,,,,,,,,,,,,,,,,,,,,,,,,,,,,,,,,,,,,,,,,,,,,,,,,,,,,,,,,,,,,,,,,,,,,,,,,,,,,,,,,,,,,,,,,,,,,,,,,,,,,,,,,10,13,2,2024-10-29_12h00.58.440,uWM_experiment,2022.2.3,59.99764809
,,,,,,,,,,,,,,,,,,,,2,0,2,0,0,0,0,0,,,,,,,,,,,,,,,,,,,,,,,,,,,,,,,,,,,,,,,,,,,,,,,,,,,,,,,,,,,,,,,,,,,,,,0.005,,,,,,,,,,,,,,,,,,,,1110.044789,1110.744824,1111.044832,1111.744855,1112.044864,1112.744883,1112.744883,1113.061591,right,1,160,30,190,1,1118.095134,1118.095134,1118.095134,None,None,2,0,1.0233962,,,,,,,None,,,,,,,,,,,,,,,10,13,2,2024-10-29_12h00.58.440,uWM_experiment,2022.2.3,59.99764809
,,,,,,,,,,,,,,,,,,,,2,0,2,0,1,0,1,0,,,,,,,,,,,,,,,,,,,,,,,,,,,,,,,,,,,,,,,,,,,,,,,,,,,,,,,,,,,,,,,,,,,,,,0.005,,,,,,,,,,,,,,,,,,,,,,,,,,,,left,1,160,-30,130,1,1124.945378,1124.945378,1124.945378,None,None,1,1,1.1811891,,,,,,,,,,,,,,,,,,,,,,10,13,2,2024-10-29_12h00.58.440,uWM_experiment,2022.2.3,59.99764809
,,,,,,,,,,,,,,,,,,,,2,0,2,0,2,0,2,0,,,,,,,,,,,,,,,,,,,,,,,,,,,,,,,,,,,,,,,,,,,,,,,,,,,,,,,,,,,,,,,,,,,,,,0.1,,,,,,,,,,,,,,,,,,,,,,,,,,,,right,0,40,-30,10,2,1132.129046,1132.129046,1132.129046,None,None,3,0,2.5895283,,,,,,,,,,,,,,,,,,,,,,10,13,2,2024-10-29_12h00.58.440,uWM_experiment,2022.2.3,59.99764809
,,,,,,,,,,,,,,,,,,,,2,0,2,0,3,0,3,0,,,,,,,,,,,,,,,,,,,,,,,,,,,,,,,,,,,,,,,,,,,,,,,,,,,,,,,,,,,,,,,,,,,,,,0,,,,,,,,,,,,,,,,,,,,,,,,,,,,left,1,10,-30,-20,0,1140.996031,1140.996031,1140.996031,None,None,2,0,0.5064344,,,,,,,,,,,,,,,,,,,,,,10,13,2,2024-10-29_12h00.58.440,uWM_experiment,2022.2.3,59.99764809
,,,,,,,,,,,,,,,,,,,,2,0,2,0,4,0,4,0,,,,,,,,,,,,,,,,,,,,,,,,,,,,,,,,,,,,,,,,,,,,,,,,,,,,,,,,,,,,,,,,,,,,,,0,,,,,,,,,,,,,,,,,,,,,,,,,,,,right,1,10,30,40,0,1148.479652,1148.479652,1148.479652,None,None,2,0,1.1426633,,,,,,,,,,,,,,,,,,,,,,10,13,2,2024-10-29_12h00.58.440,uWM_experiment,2022.2.3,59.99764809
,,,,,,,,,,,,,,,,,,,,2,0,2,0,5,0,5,0,,,,,,,,,,,,,,,,,,,,,,,,,,,,,,,,,,,,,,,,,,,,,,,,,,,,,,,,,,,,,,,,,,,,,,0,,,,,,,,,,,,,,,,,,,,,,,,,,,,left,1,70,-30,40,0,1155.829961,1155.829961,1155.829961,None,None,1,1,0.6164786,,,,,,,,,,,,,,,,,,,,,,10,13,2,2024-10-29_12h00.58.440,uWM_experiment,2022.2.3,59.99764809
,,,,,,,,,,,,,,,,,,,,2,0,2,0,6,0,6,0,,,,,,,,,,,,,,,,,,,,,,,,,,,,,,,,,,,,,,,,,,,,,,,,,,,,,,,,,,,,,,,,,,,,,,0.015,,,,,,,,,,,,,,,,,,,,,,,,,,,,right,0,130,-30,100,1,1162.11354,1162.11354,1162.11354,None,None,2,0,1.7407938,,,,,,,,,,,,,,,,,,,,,,10,13,2,2024-10-29_12h00.58.440,uWM_experiment,2022.2.3,59.99764809
,,,,,,,,,,,,,,,,,,,,2,0,2,0,7,0,7,0,,,,,,,,,,,,,,,,,,,,,,,,,,,,,,,,,,,,,,,,,,,,,,,,,,,,,,,,,,,,,,,,,,,,,,0.005,,,,,,,,,,,,,,,,,,,,,,,,,,,,left,1,70,-30,40,1,1169.980516,1169.980516,1169.980516,None,None,1,1,1.7617942,,,,,,,,,,,,,,,,,,,,,,10,13,2,2024-10-29_12h00.58.440,uWM_experiment,2022.2.3,59.99764809
,,,,,,,,,,,,,,,,,,,,2,0,2,0,8,0,8,0,,,,,,,,,,,,,,,,,,,,,,,,,,,,,,,,,,,,,,,,,,,,,,,,,,,,,,,,,,,,,,,,,,,,,,0.015,,,,,,,,,,,,,,,,,,,,,,,,,,,,left,0,40,30,70,1,1178.914217,1178.914217,1178.914217,None,None,1,1,1.5879546,,,,,,,,,,,,,,,,,,,,,,10,13,2,2024-10-29_12h00.58.440,uWM_experiment,2022.2.3,59.99764809
,,,,,,,,,,,,,,,,,,,,2,0,2,0,9,0,9,0,,,,,,,,,,,,,,,,,,,,,,,,,,,,,,,,,,,,,,,,,,,,,,,,,,,,,,,,,,,,,,,,,,,,,,0,,,,,,,,,,,,,,,,,,,,,,,,,,,,right,0,130,-30,100,0,1188.081249,1188.081249,1188.081249,None,None,2,0,1.8528681,,,,,,,,,,,,,,,,,,,,,,10,13,2,2024-10-29_12h00.58.440,uWM_experiment,2022.2.3,59.99764809
,,,,,,,,,,,,,,,,,,,,2,0,2,0,10,0,10,0,,,,,,,,,,,,,,,,,,,,,,,,,,,,,,,,,,,,,,,,,,,,,,,,,,,,,,,,,,,,,,,,,,,,,,0.025,,,,,,,,,,,,,,,,,,,,,,,,,,,,right,0,70,-30,40,1,1196.014892,1196.014892,1196.014892,None,None,1,1,0.5833184,,,,,,,,,,,,,,,,,,,,,,10,13,2,2024-10-29_12h00.58.440,uWM_experiment,2022.2.3,59.99764809
,,,,,,,,,,,,,,,,,,,,2,0,2,0,11,0,11,0,,,,,,,,,,,,,,,,,,,,,,,,,,,,,,,,,,,,,,,,,,,,,,,,,,,,,,,,,,,,,,,,,,,,,,0.035,,,,,,,,,,,,,,,,,,,,,,,,,,,,right,1,10,30,40,1,1204.381883,1204.381883,1204.381883,None,None,2,0,1.3521757,,,,,,,,,,,,,,,,,,,,,,10,13,2,2024-10-29_12h00.58.440,uWM_experiment,2022.2.3,59.99764809
,,,,,,,,,,,,,,,,,,,,2,0,2,0,12,0,12,0,,,,,,,,,,,,,,,,,,,,,,,,,,,,,,,,,,,,,,,,,,,,,,,,,,,,,,,,,,,,,,,,,,,,,,0.025,,,,,,,,,,,,,,,,,,,,,,,,,,,,left,1,160,-30,130,1,1212.348878,1212.348878,1212.348878,None,None,1,1,1.0892743,,,,,,,,,,,,,,,,,,,,,,10,13,2,2024-10-29_12h00.58.440,uWM_experiment,2022.2.3,59.99764809
,,,,,,,,,,,,,,,,,,,,2,0,2,0,13,0,13,0,,,,,,,,,,,,,,,,,,,,,,,,,,,,,,,,,,,,,,,,,,,,,,,,,,,,,,,,,,,,,,,,,,,,,,0.035,,,,,,,,,,,,,,,,,,,,,,,,,,,,right,0,100,-30,70,1,1222.632608,1222.632608,1222.632608,None,None,2,0,1.8694289,,,,,,,,,,,,,,,,,,,,,,10,13,2,2024-10-29_12h00.58.440,uWM_experiment,2022.2.3,59.99764809
,,,,,,,,,,,,,,,,,,,,2,0,2,0,14,0,14,0,,,,,,,,,,,,,,,,,,,,,,,,,,,,,,,,,,,,,,,,,,,,,,,,,,,,,,,,,,,,,,,,,,,,,,0.025,,,,,,,,,,,,,,,,,,,,,,,,,,,,left,0,100,30,130,1,1231.382968,1231.382968,1231.382968,None,None,1,1,0.8071045,,,,,,,,,,,,,,,,,,,,,,10,13,2,2024-10-29_12h00.58.440,uWM_experiment,2022.2.3,59.99764809
,,,,,,,,,,,,,,,,,,,,2,0,2,0,15,0,15,0,,,,,,,,,,,,,,,,,,,,,,,,,,,,,,,,,,,,,,,,,,,,,,,,,,,,,,,,,,,,,,,,,,,,,,0,,,,,,,,,,,,,,,,,,,,,,,,,,,,right,0,10,-30,-20,0,1239.699969,1239.699969,1239.699969,None,None,2,0,1.0420168,,,,,,,,,,,,,,,,,,,,,,10,13,2,2024-10-29_12h00.58.440,uWM_experiment,2022.2.3,59.99764809
,,,,,,,,,,,,,,,,,,,,2,0,2,0,16,0,16,0,,,,,,,,,,,,,,,,,,,,,,,,,,,,,,,,,,,,,,,,,,,,,,,,,,,,,,,,,,,,,,,,,,,,,,0.035,,,,,,,,,,,,,,,,,,,,,,,,,,,,right,1,10,30,40,1,1246.716901,1246.716901,1246.716901,None,None,1,1,0.3770544,,,,,,,,,,,,,,,,,,,,,,10,13,2,2024-10-29_12h00.58.440,uWM_experiment,2022.2.3,59.99764809
,,,,,,,,,,,,,,,,,,,,2,0,2,0,17,0,17,0,,,,,,,,,,,,,,,,,,,,,,,,,,,,,,,,,,,,,,,,,,,,,,,,,,,,,,,,,,,,,,,,,,,,,,0.045,,,,,,,,,,,,,,,,,,,,,,,,,,,,left,0,160,30,190,1,1253.450511,1253.450511,1253.450511,None,None,2,0,0.8114674,,,,,,,,,,,,,,,,,,,,,,10,13,2,2024-10-29_12h00.58.440,uWM_experiment,2022.2.3,59.99764809
,,,,,,,,,,,,,,,,,,,,2,0,2,0,18,0,18,0,,,,,,,,,,,,,,,,,,,,,,,,,,,,,,,,,,,,,,,,,,,,,,,,,,,,,,,,,,,,,,,,,,,,,,0,,,,,,,,,,,,,,,,,,,,,,,,,,,,right,1,10,30,40,0,1261.100835,1261.100835,1261.100835,None,None,2,0,8.9209481,,,,,,,,,,,,,,,,,,,,,,10,13,2,2024-10-29_12h00.58.440,uWM_experiment,2022.2.3,59.99764809
,,,,,,,,,,,,,,,,,,,,2,0,2,0,19,0,19,0,,,,,,,,,,,,,,,,,,,,,,,,,,,,,,,,,,,,,,,,,,,,,,,,,,,,,,,,,,,,,,,,,,,,,,0.035,,,,,,,,,,,,,,,,,,,,,,,,,,,,left,1,10,-30,-20,1,1276.868106,1276.868106,1276.868106,None,None,2,0,0.8499592,,,,,,,,,,,,,,,,,,,,,,10,13,2,2024-10-29_12h00.58.440,uWM_experiment,2022.2.3,59.99764809
,,,,,,,,,,,,,,,,,,,,2,0,2,0,20,0,20,0,,,,,,,,,,,,,,,,,,,,,,,,,,,,,,,,,,,,,,,,,,,,,,,,,,,,,,,,,,,,,,,,,,,,,,0.025,,,,,,,,,,,,,,,,,,,,,,,,,,,,left,1,130,-30,100,1,1283.501735,1283.501735,1283.501735,None,None,1,1,0.4401259,,,,,,,,,,,,,,,,,,,,,,10,13,2,2024-10-29_12h00.58.440,uWM_experiment,2022.2.3,59.99764809
,,,,,,,,,,,,,,,,,,,,2,0,2,0,21,0,21,0,,,,,,,,,,,,,,,,,,,,,,,,,,,,,,,,,,,,,,,,,,,,,,,,,,,,,,,,,,,,,,,,,,,,,,0.035,,,,,,,,,,,,,,,,,,,,,,,,,,,,right,1,40,30,70,1,1289.535279,1289.535279,1289.535279,None,None,2,0,0.9424848,,,,,,,,,,,,,,,,,,,,,,10,13,2,2024-10-29_12h00.58.440,uWM_experiment,2022.2.3,59.99764809
,,,,,,,,,,,,,,,,,,,,2,0,2,0,22,0,22,0,,,,,,,,,,,,,,,,,,,,,,,,,,,,,,,,,,,,,,,,,,,,,,,,,,,,,,,,,,,,,,,,,,,,,,0,,,,,,,,,,,,,,,,,,,,,,,,,,,,right,1,70,30,100,0,1296.368889,1296.368889,1296.368889,None,None,1,1,0.564933,,,,,,,,,,,,,,,,,,,,,,10,13,2,2024-10-29_12h00.58.440,uWM_experiment,2022.2.3,59.99764809
,,,,,,,,,,,,,,,,,,,,2,0,2,0,23,0,23,0,,,,,,,,,,,,,,,,,,,,,,,,,,,,,,,,,,,,,,,,,,,,,,,,,,,,,,,,,,,,,,,,,,,,,,0.1,,,,,,,,,,,,,,,,,,,,,,,,,,,,right,0,70,-30,40,2,1304.435859,1304.435859,1304.435859,None,None,1,1,1.0658953,,,,,,,,,,,,,,,,,,,,,,10,13,2,2024-10-29_12h00.58.440,uWM_experiment,2022.2.3,59.99764809
,,,,,,,,,,,,,,,,,,,,2,0,2,0,,,,,0,0,0,0,,,,,,,,,,,,,,,,,,,,,,,,,,,,,,,,,,,,,,,,,,,,,,,,,,,,,,,,,,,,,,,,,,,,,,,,,,,,,,,,,,,,,,,,,,,,,,,,,,,,,,,,,,,,1305.519239,1305.519239,space,86.4541159,space,None,,1392.006057,1392.006057,9.3193274,,,,,,,,,,,,10,13,2,2024-10-29_12h00.58.440,uWM_experiment,2022.2.3,59.99764809
,,,,,,,,,,,,,,,,,,,,2,0,2,0,,,,,1,0,1,0,,,,,,,,,,,,,,,,,,,,,,,,,,,,,,,,,,,,,,,,,,,,,,,,,,,,,,,,,,,,,,,,,,,,,,,,,,,,,,,,,,,,,,,,,,,,,,,,,,,,,,,,,,,,,,,,,,,,,,,,,,,,,,,,,10,13,2,2024-10-29_12h00.58.440,uWM_experiment,2022.2.3,59.99764809
,,,,,,,,,,,,,,,,,,,,2,0,2,0,,,,,2,0,2,0,,,,,,,,,,,,,,,,,,,,,,,,,,,,,,,,,,,,,,,,,,,,,,,,,,,,,,,,,,,,,,,,,,,,,,,,,,,,,,,,,,,,,,,,,,,,,,,,,,,,,,,,,,,,,,,,,,,,,,,,,,,,,,,,,10,13,2,2024-10-29_12h00.58.440,uWM_experiment,2022.2.3,59.99764809
,,,,,,,,,,,,,,,,,,,,3,0,3,0,0,0,0,0,,,,,,,,,,,,,,,,,,,,,,,,,,,,,,,,,,,,,,,,,,,,,,,,,,,,,,,,,,,,,,,,,,,,,,0,,,,,,,,,,,,,,,,,,,,1401.356416,1402.056443,1402.356454,1403.056483,1403.356483,1404.056524,1404.056524,1404.37321,right,0,40,-30,10,0,1409.24007,1409.24007,1409.24007,None,None,2,0,0.821107,,,,,,,None,,,,,,,,,,,,,,,10,13,2,2024-10-29_12h00.58.440,uWM_experiment,2022.2.3,59.99764809
,,,,,,,,,,,,,,,,,,,,3,0,3,0,1,0,1,0,,,,,,,,,,,,,,,,,,,,,,,,,,,,,,,,,,,,,,,,,,,,,,,,,,,,,,,,,,,,,,,,,,,,,,0,,,,,,,,,,,,,,,,,,,,,,,,,,,,left,0,40,30,70,0,1417.257056,1417.257056,1417.257056,None,None,3,0,3.6442154,,,,,,,,,,,,,,,,,,,,,,10,13,2,2024-10-29_12h00.58.440,uWM_experiment,2022.2.3,59.99764809
,,,,,,,,,,,,,,,,,,,,3,0,3,0,2,0,2,0,,,,,,,,,,,,,,,,,,,,,,,,,,,,,,,,,,,,,,,,,,,,,,,,,,,,,,,,,,,,,,,,,,,,,,0.1,,,,,,,,,,,,,,,,,,,,,,,,,,,,right,1,70,30,100,2,1427.890812,1427.890812,1427.890812,None,None,2,0,0.7863093,,,,,,,,,,,,,,,,,,,,,,10,13,2,2024-10-29_12h00.58.440,uWM_experiment,2022.2.3,59.99764809
,,,,,,,,,,,,,,,,,,,,3,0,3,0,3,0,3,0,,,,,,,,,,,,,,,,,,,,,,,,,,,,,,,,,,,,,,,,,,,,,,,,,,,,,,,,,,,,,,,,,,,,,,0.025,,,,,,,,,,,,,,,,,,,,,,,,,,,,left,0,160,30,190,1,1434.907756,1434.907756,1434.907756,None,None,1,1,0.625363,,,,,,,,,,,,,,,,,,,,,,10,13,2,2024-10-29_12h00.58.440,uWM_experiment,2022.2.3,59.99764809
,,,,,,,,,,,,,,,,,,,,3,0,3,0,4,0,4,0,,,,,,,,,,,,,,,,,,,,,,,,,,,,,,,,,,,,,,,,,,,,,,,,,,,,,,,,,,,,,,,,,,,,,,0.035,,,,,,,,,,,,,,,,,,,,,,,,,,,,left,0,100,30,130,1,1441.308022,1441.308022,1441.308022,None,None,2,0,0.7690136,,,,,,,,,,,,,,,,,,,,,,10,13,2,2024-10-29_12h00.58.440,uWM_experiment,2022.2.3,59.99764809
,,,,,,,,,,,,,,,,,,,,3,0,3,0,5,0,5,0,,,,,,,,,,,,,,,,,,,,,,,,,,,,,,,,,,,,,,,,,,,,,,,,,,,,,,,,,,,,,,,,,,,,,,0.025,,,,,,,,,,,,,,,,,,,,,,,,,,,,left,0,70,30,100,1,1448.458305,1448.458305,1448.458305,None,None,1,1,0.5788725,,,,,,,,,,,,,,,,,,,,,,10,13,2,2024-10-29_12h00.58.440,uWM_experiment,2022.2.3,59.99764809
,,,,,,,,,,,,,,,,,,,,3,0,3,0,6,0,6,0,,,,,,,,,,,,,,,,,,,,,,,,,,,,,,,,,,,,,,,,,,,,,,,,,,,,,,,,,,,,,,,,,,,,,,0.035,,,,,,,,,,,,,,,,,,,,,,,,,,,,left,0,70,30,100,1,1455.275244,1455.275244,1455.275244,None,None,2,0,0.7537223,,,,,,,,,,,,,,,,,,,,,,10,13,2,2024-10-29_12h00.58.440,uWM_experiment,2022.2.3,59.99764809
,,,,,,,,,,,,,,,,,,,,3,0,3,0,7,0,7,0,,,,,,,,,,,,,,,,,,,,,,,,,,,,,,,,,,,,,,,,,,,,,,,,,,,,,,,,,,,,,,,,,,,,,,0.025,,,,,,,,,,,,,,,,,,,,,,,,,,,,left,1,130,-30,100,1,1461.175513,1461.175513,1461.175513,None,None,1,1,1.221428,,,,,,,,,,,,,,,,,,,,,,10,13,2,2024-10-29_12h00.58.440,uWM_experiment,2022.2.3,59.99764809
,,,,,,,,,,,,,,,,,,,,3,0,3,0,8,0,8,0,,,,,,,,,,,,,,,,,,,,,,,,,,,,,,,,,,,,,,,,,,,,,,,,,,,,,,,,,,,,,,,,,,,,,,0.035,,,,,,,,,,,,,,,,,,,,,,,,,,,,left,1,70,-30,40,1,1469.092452,1469.092452,1469.092452,None,None,3,0,0.7845138,,,,,,,,,,,,,,,,,,,,,,10,13,2,2024-10-29_12h00.58.440,uWM_experiment,2022.2.3,59.99764809
,,,,,,,,,,,,,,,,,,,,3,0,3,0,9,0,9,0,,,,,,,,,,,,,,,,,,,,,,,,,,,,,,,,,,,,,,,,,,,,,,,,,,,,,,,,,,,,,,,,,,,,,,0.025,,,,,,,,,,,,,,,,,,,,,,,,,,,,right,0,40,-30,10,1,1476.159409,1476.159409,1476.159409,None,None,2,0,0.7895074,,,,,,,,,,,,,,,,,,,,,,10,13,2,2024-10-29_12h00.58.440,uWM_experiment,2022.2.3,59.99764809
,,,,,,,,,,,,,,,,,,,,3,0,3,0,10,0,10,0,,,,,,,,,,,,,,,,,,,,,,,,,,,,,,,,,,,,,,,,,,,,,,,,,,,,,,,,,,,,,,,,,,,,,,0.015,,,,,,,,,,,,,,,,,,,,,,,,,,,,left,1,40,-30,10,1,1482.626355,1482.626355,1482.626355,None,None,1,1,1.2265777,,,,,,,,,,,,,,,,,,,,,,10,13,2,2024-10-29_12h00.58.440,uWM_experiment,2022.2.3,59.99764809
,,,,,,,,,,,,,,,,,,,,3,0,3,0,11,0,11,0,,,,,,,,,,,,,,,,,,,,,,,,,,,,,,,,,,,,,,,,,,,,,,,,,,,,,,,,,,,,,,,,,,,,,,0.025,,,,,,,,,,,,,,,,,,,,,,,,,,,,right,1,130,30,160,1,1490.709982,1490.709982,1490.709982,None,None,2,0,1.078948,,,,,,,,,,,,,,,,,,,,,,10,13,2,2024-10-29_12h00.58.440,uWM_experiment,2022.2.3,59.99764809
,,,,,,,,,,,,,,,,,,,,3,0,3,0,12,0,12,0,,,,,,,,,,,,,,,,,,,,,,,,,,,,,,,,,,,,,,,,,,,,,,,,,,,,,,,,,,,,,,,,,,,,,,0.015,,,,,,,,,,,,,,,,,,,,,,,,,,,,left,1,130,-30,100,1,1501.043717,1501.043717,1501.043717,None,None,1,1,0.9850453,,,,,,,,,,,,,,,,,,,,,,10,13,2,2024-10-29_12h00.58.440,uWM_experiment,2022.2.3,59.99764809
,,,,,,,,,,,,,,,,,,,,3,0,3,0,13,0,13,0,,,,,,,,,,,,,,,,,,,,,,,,,,,,,,,,,,,,,,,,,,,,,,,,,,,,,,,,,,,,,,,,,,,,,,0.025,,,,,,,,,,,,,,,,,,,,,,,,,,,,left,1,40,-30,10,1,1508.377386,1508.377386,1508.377386,None,None,2,0,0.7074822,,,,,,,,,,,,,,,,,,,,,,10,13,2,2024-10-29_12h00.58.440,uWM_experiment,2022.2.3,59.99764809
,,,,,,,,,,,,,,,,,,,,3,0,3,0,14,0,14,0,,,,,,,,,,,,,,,,,,,,,,,,,,,,,,,,,,,,,,,,,,,,,,,,,,,,,,,,,,,,,,,,,,,,,,0.015,,,,,,,,,,,,,,,,,,,,,,,,,,,,right,0,160,-30,130,1,1515.027648,1515.027648,1515.027648,None,None,1,1,1.0731236,,,,,,,,,,,,,,,,,,,,,,10,13,2,2024-10-29_12h00.58.440,uWM_experiment,2022.2.3,59.99764809
,,,,,,,,,,,,,,,,,,,,3,0,3,0,15,0,15,0,,,,,,,,,,,,,,,,,,,,,,,,,,,,,,,,,,,,,,,,,,,,,,,,,,,,,,,,,,,,,,,,,,,,,,0.025,,,,,,,,,,,,,,,,,,,,,,,,,,,,left,0,10,30,40,1,1523.544618,1523.544618,1523.544618,None,None,2,0,0.8281308,,,,,,,,,,,,,,,,,,,,,,10,13,2,2024-10-29_12h00.58.440,uWM_experiment,2022.2.3,59.99764809
,,,,,,,,,,,,,,,,,,,,3,0,3,0,16,0,16,0,,,,,,,,,,,,,,,,,,,,,,,,,,,,,,,,,,,,,,,,,,,,,,,,,,,,,,,,,,,,,,,,,,,,,,0.015,,,,,,,,,,,,,,,,,,,,,,,,,,,,left,1,40,-30,10,1,1534.811757,1534.811757,1534.811757,None,None,2,0,1.0809444,,,,,,,,,,,,,,,,,,,,,,10,13,2,2024-10-29_12h00.58.440,uWM_experiment,2022.2.3,59.99764809
,,,,,,,,,,,,,,,,,,,,3,0,3,0,17,0,17,0,,,,,,,,,,,,,,,,,,,,,,,,,,,,,,,,,,,,,,,,,,,,,,,,,,,,,,,,,,,,,,,,,,,,,,0.005,,,,,,,,,,,,,,,,,,,,,,,,,,,,left,0,100,30,130,1,1542.762095,1542.762095,1542.762095,None,None,2,0,2.2024847,,,,,,,,,,,,,,,,,,,,,,10,13,2,2024-10-29_12h00.58.440,uWM_experiment,2022.2.3,59.99764809
,,,,,,,,,,,,,,,,,,,,3,0,3,0,18,0,18,0,,,,,,,,,,,,,,,,,,,,,,,,,,,,,,,,,,,,,,,,,,,,,,,,,,,,,,,,,,,,,,,,,,,,,,0.1,,,,,,,,,,,,,,,,,,,,,,,,,,,,right,0,40,-30,10,2,1550.829074,1550.829074,1550.829074,None,None,1,1,0.8956453,,,,,,,,,,,,,,,,,,,,,,10,13,2,2024-10-29_12h00.58.440,uWM_experiment,2022.2.3,59.99764809
,,,,,,,,,,,,,,,,,,,,3,0,3,0,19,0,19,0,,,,,,,,,,,,,,,,,,,,,,,,,,,,,,,,,,,,,,,,,,,,,,,,,,,,,,,,,,,,,,,,,,,,,,0.005,,,,,,,,,,,,,,,,,,,,,,,,,,,,left,1,160,-30,130,1,1557.379322,1557.379322,1557.379322,None,None,3,0,1.4011797,,,,,,,,,,,,,,,,,,,,,,10,13,2,2024-10-29_12h00.58.440,uWM_experiment,2022.2.3,59.99764809
,,,,,,,,,,,,,,,,,,,,3,0,3,0,20,0,20,0,,,,,,,,,,,,,,,,,,,,,,,,,,,,,,,,,,,,,,,,,,,,,,,,,,,,,,,,,,,,,,,,,,,,,,0.005,,,,,,,,,,,,,,,,,,,,,,,,,,,,right,1,160,30,190,1,1564.56294,1564.56294,1564.56294,None,None,3,0,1.6896215,,,,,,,,,,,,,,,,,,,,,,10,13,2,2024-10-29_12h00.58.440,uWM_experiment,2022.2.3,59.99764809
,,,,,,,,,,,,,,,,,,,,3,0,3,0,21,0,21,0,,,,,,,,,,,,,,,,,,,,,,,,,,,,,,,,,,,,,,,,,,,,,,,,,,,,,,,,,,,,,,,,,,,,,,0,,,,,,,,,,,,,,,,,,,,,,,,,,,,left,1,10,-30,-20,0,1573.013293,1573.013293,1573.013293,None,None,1,1,2.5511796,,,,,,,,,,,,,,,,,,,,,,10,13,2,2024-10-29_12h00.58.440,uWM_experiment,2022.2.3,59.99764809
,,,,,,,,,,,,,,,,,,,,3,0,3,0,22,0,22,0,,,,,,,,,,,,,,,,,,,,,,,,,,,,,,,,,,,,,,,,,,,,,,,,,,,,,,,,,,,,,,,,,,,,,,0.005,,,,,,,,,,,,,,,,,,,,,,,,,,,,left,0,70,30,100,1,1583.213672,1583.213672,1583.213672,None,None,2,0,1.1108633,,,,,,,,,,,,,,,,,,,,,,10,13,2,2024-10-29_12h00.58.440,uWM_experiment,2022.2.3,59.99764809
,,,,,,,,,,,,,,,,,,,,3,0,3,0,23,0,23,0,,,,,,,,,,,,,,,,,,,,,,,,,,,,,,,,,,,,,,,,,,,,,,,,,,,,,,,,,,,,,,,,,,,,,,0.005,,,,,,,,,,,,,,,,,,,,,,,,,,,,left,0,130,30,160,1,1590.013973,1590.013973,1590.013973,None,None,1,1,0.5825075,,,,,,,,,,,,,,,,,,,,,,10,13,2,2024-10-29_12h00.58.440,uWM_experiment,2022.2.3,59.99764809
,,,,,,,,,,,,,,,,,,,,3,0,3,0,,,,,0,0,0,0,,,,,,,,,,,,,,,,,,,,,,,,,,,,,,,,,,,,,,,,,,,,,,,,,,,,,,,,,,,,,,,,,,,,,,,,,,,,,,,,,,,,,,,,,,,,,,,,,,,,,,,,,,,,1590.613966,1590.613966,space,66.5262358,None,None,,,,,,,,,,,,,,,,10,13,2,2024-10-29_12h00.58.440,uWM_experiment,2022.2.3,59.99764809
,,,,,,,,,,,,,,,,,,,,3,0,3,0,,,,,1,0,1,0,,,,,,,,,,,,,,,,,,,,,,,,,,,,,,,,,,,,,,,,,,,,,,,,,,,,,,,,,,,,,,,,,,,,,,,,,,,,,,,,,,,,,,,,,,,,,,,,,,,,,,,,,,,,,,,,,,,,,,,,,,,,,,,,,10,13,2,2024-10-29_12h00.58.440,uWM_experiment,2022.2.3,59.99764809
,,,,,,,,,,,,,,,,,,,,3,0,3,0,,,,,2,0,2,0,,,,,,,,,,,,,,,,,,,,,,,,,,,,,,,,,,,,,,,,,,,,,,,,,,,,,,,,,,,,,,,,,,,,,,,,,,,,,,,,,,,,,,,,,,,,,,,,,,,,,,,,,,,,,,,,,,,,,,,,,,,,,,,,,10,13,2,2024-10-29_12h00.58.440,uWM_experiment,2022.2.3,59.99764809
,,,,,,,,,,,,,,,,,,,,4,0,4,0,0,0,0,0,,,,,,,,,,,,,,,,,,,,,,,,,,,,,,,,,,,,,,,,,,,,,,,,,,,,,,,,,,,,,,,,,,,,,,0.015,,,,,,,,,,,,,,,,,,,,1657.16663,1657.866656,1658.166671,1658.866697,1659.166697,1659.866741,1659.866741,1660.183417,left,0,100,30,130,1,1666.133656,1666.133656,1666.133656,None,None,1,1,0.7184155,,,,,,,None,,,,,,,,,,,,,,,10,13,2,2024-10-29_12h00.58.440,uWM_experiment,2022.2.3,59.99764809
,,,,,,,,,,,,,,,,,,,,4,0,4,0,1,0,1,0,,,,,,,,,,,,,,,,,,,,,,,,,,,,,,,,,,,,,,,,,,,,,,,,,,,,,,,,,,,,,,,,,,,,,,0.025,,,,,,,,,,,,,,,,,,,,,,,,,,,,left,1,160,-30,130,1,1673.533958,1673.533958,1673.533958,None,None,1,1,2.28605,,,,,,,,,,,,,,,,,,,,,,10,13,2,2024-10-29_12h00.58.440,uWM_experiment,2022.2.3,59.99764809
,,,,,,,,,,,,,,,,,,,,4,0,4,0,2,0,2,0,,,,,,,,,,,,,,,,,,,,,,,,,,,,,,,,,,,,,,,,,,,,,,,,,,,,,,,,,,,,,,,,,,,,,,0.035,,,,,,,,,,,,,,,,,,,,,,,,,,,,right,0,100,-30,70,1,1681.567587,1681.567587,1681.567587,None,None,2,0,0.556447,,,,,,,,,,,,,,,,,,,,,,10,13,2,2024-10-29_12h00.58.440,uWM_experiment,2022.2.3,59.99764809
,,,,,,,,,,,,,,,,,,,,4,0,4,0,3,0,3,0,,,,,,,,,,,,,,,,,,,,,,,,,,,,,,,,,,,,,,,,,,,,,,,,,,,,,,,,,,,,,,,,,,,,,,0.025,,,,,,,,,,,,,,,,,,,,,,,,,,,,right,0,160,-30,130,1,1688.051211,1688.051211,1688.051211,None,None,1,1,0.976834,,,,,,,,,,,,,,,,,,,,,,10,13,2,2024-10-29_12h00.58.440,uWM_experiment,2022.2.3,59.99764809
,,,,,,,,,,,,,,,,,,,,4,0,4,0,4,0,4,0,,,,,,,,,,,,,,,,,,,,,,,,,,,,,,,,,,,,,,,,,,,,,,,,,,,,,,,,,,,,,,,,,,,,,,0.035,,,,,,,,,,,,,,,,,,,,,,,,,,,,left,1,70,-30,40,1,1698.13494,1698.13494,1698.13494,None,None,2,0,1.2209843,,,,,,,,,,,,,,,,,,,,,,10,13,2,2024-10-29_12h00.58.440,uWM_experiment,2022.2.3,59.99764809
,,,,,,,,,,,,,,,,,,,,4,0,4,0,5,0,5,0,,,,,,,,,,,,,,,,,,,,,,,,,,,,,,,,,,,,,,,,,,,,,,,,,,,,,,,,,,,,,,,,,,,,,,0.025,,,,,,,,,,,,,,,,,,,,,,,,,,,,right,0,100,-30,70,1,1705.201889,1705.201889,1705.201889,None,None,1,1,2.4741318,,,,,,,,,,,,,,,,,,,,,,10,13,2,2024-10-29_12h00.58.440,uWM_experiment,2022.2.3,59.99764809
,,,,,,,,,,,,,,,,,,,,4,0,4,0,6,0,6,0,,,,,,,,,,,,,,,,,,,,,,,,,,,,,,,,,,,,,,,,,,,,,,,,,,,,,,,,,,,,,,,,,,,,,,0,,,,,,,,,,,,,,,,,,,,,,,,,,,,right,1,70,30,100,0,1713.302204,1713.302204,1713.302204,None,None,2,0,0.6936852,,,,,,,,,,,,,,,,,,,,,,10,13,2,2024-10-29_12h00.58.440,uWM_experiment,2022.2.3,59.99764809
,,,,,,,,,,,,,,,,,,,,4,0,4,0,7,0,7,0,,,,,,,,,,,,,,,,,,,,,,,,,,,,,,,,,,,,,,,,,,,,,,,,,,,,,,,,,,,,,,,,,,,,,,0,,,,,,,,,,,,,,,,,,,,,,,,,,,,right,0,160,-30,130,0,1719.969131,1719.969131,1719.969131,None,None,1,1,0.8907504,,,,,,,,,,,,,,,,,,,,,,10,13,2,2024-10-29_12h00.58.440,uWM_experiment,2022.2.3,59.99764809
,,,,,,,,,,,,,,,,,,,,4,0,4,0,8,0,8,0,,,,,,,,,,,,,,,,,,,,,,,,,,,,,,,,,,,,,,,,,,,,,,,,,,,,,,,,,,,,,,,,,,,,,,0.035,,,,,,,,,,,,,,,,,,,,,,,,,,,,right,1,10,30,40,1,1727.719494,1727.719494,1727.719494,None,None,2,0,0.6522879,,,,,,,,,,,,,,,,,,,,,,10,13,2,2024-10-29_12h00.58.440,uWM_experiment,2022.2.3,59.99764809
,,,,,,,,,,,,,,,,,,,,4,0,4,0,9,0,9,0,,,,,,,,,,,,,,,,,,,,,,,,,,,,,,,,,,,,,,,,,,,,,,,,,,,,,,,,,,,,,,,,,,,,,,0,,,,,,,,,,,,,,,,,,,,,,,,,,,,right,1,130,30,160,0,1734.553057,1734.553057,1734.553057,None,None,1,1,0.9387497,,,,,,,,,,,,,,,,,,,,,,10,13,2,2024-10-29_12h00.58.440,uWM_experiment,2022.2.3,59.99764809
,,,,,,,,,,,,,,,,,,,,4,0,4,0,10,0,10,0,,,,,,,,,,,,,,,,,,,,,,,,,,,,,,,,,,,,,,,,,,,,,,,,,,,,,,,,,,,,,,,,,,,,,,0.025,,,,,,,,,,,,,,,,,,,,,,,,,,,,left,0,100,30,130,1,1741.83668,1741.83668,1741.83668,None,None,3,0,3.2791195,,,,,,,,,,,,,,,,,,,,,,10,13,2,2024-10-29_12h00.58.440,uWM_experiment,2022.2.3,59.99764809
,,,,,,,,,,,,,,,,,,,,4,0,4,0,11,0,11,0,,,,,,,,,,,,,,,,,,,,,,,,,,,,,,,,,,,,,,,,,,,,,,,,,,,,,,,,,,,,,,,,,,,,,,0.015,,,,,,,,,,,,,,,,,,,,,,,,,,,,left,0,130,30,160,1,1751.353733,1751.353733,1751.353733,None,None,2,0,0.6980948,,,,,,,,,,,,,,,,,,,,,,10,13,2,2024-10-29_12h00.58.440,uWM_experiment,2022.2.3,59.99764809
,,,,,,,,,,,,,,,,,,,,4,0,4,0,12,0,12,0,,,,,,,,,,,,,,,,,,,,,,,,,,,,,,,,,,,,,,,,,,,,,,,,,,,,,,,,,,,,,,,,,,,,,,0,,,,,,,,,,,,,,,,,,,,,,,,,,,,left,1,130,-30,100,0,1758.254007,1758.254007,1758.254007,None,None,1,1,0.7577367,,,,,,,,,,,,,,,,,,,,,,10,13,2,2024-10-29_12h00.58.440,uWM_experiment,2022.2.3,59.99764809
,,,,,,,,,,,,,,,,,,,,4,0,4,0,13,0,13,0,,,,,,,,,,,,,,,,,,,,,,,,,,,,,,,,,,,,,,,,,,,,,,,,,,,,,,,,,,,,,,,,,,,,,,0.005,,,,,,,,,,,,,,,,,,,,,,,,,,,,right,1,130,30,160,1,1765.054258,1765.054258,1765.054258,None,None,3,0,1.3573984,,,,,,,,,,,,,,,,,,,,,,10,13,2,2024-10-29_12h00.58.440,uWM_experiment,2022.2.3,59.99764809
,,,,,,,,,,,,,,,,,,,,4,0,4,0,14,0,14,0,,,,,,,,,,,,,,,,,,,,,,,,,,,,,,,,,,,,,,,,,,,,,,,,,,,,,,,,,,,,,,,,,,,,,,0.005,,,,,,,,,,,,,,,,,,,,,,,,,,,,left,1,130,-30,100,1,1773.054599,1773.054599,1773.054599,None,None,2,0,1.0451231,,,,,,,,,,,,,,,,,,,,,,10,13,2,2024-10-29_12h00.58.440,uWM_experiment,2022.2.3,59.99764809
,,,,,,,,,,,,,,,,,,,,4,0,4,0,15,0,15,0,,,,,,,,,,,,,,,,,,,,,,,,,,,,,,,,,,,,,,,,,,,,,,,,,,,,,,,,,,,,,,,,,,,,,,0.005,,,,,,,,,,,,,,,,,,,,,,,,,,,,right,0,160,-30,130,1,1780.154872,1780.154872,1780.154872,None,None,1,1,1.072778,,,,,,,,,,,,,,,,,,,,,,10,13,2,2024-10-29_12h00.58.440,uWM_experiment,2022.2.3,59.99764809
,,,,,,,,,,,,,,,,,,,,4,0,4,0,16,0,16,0,,,,,,,,,,,,,,,,,,,,,,,,,,,,,,,,,,,,,,,,,,,,,,,,,,,,,,,,,,,,,,,,,,,,,,0.015,,,,,,,,,,,,,,,,,,,,,,,,,,,,left,1,10,-30,-20,1,1786.505141,1786.505141,1786.505141,None,None,2,0,0.8985259,,,,,,,,,,,,,,,,,,,,,,10,13,2,2024-10-29_12h00.58.440,uWM_experiment,2022.2.3,59.99764809
,,,,,,,,,,,,,,,,,,,,4,0,4,0,17,0,17,0,,,,,,,,,,,,,,,,,,,,,,,,,,,,,,,,,,,,,,,,,,,,,,,,,,,,,,,,,,,,,,,,,,,,,,0,,,,,,,,,,,,,,,,,,,,,,,,,,,,right,1,70,30,100,0,1793.188715,1793.188715,1793.188715,None,None,1,1,0.8148523,,,,,,,,,,,,,,,,,,,,,,10,13,2,2024-10-29_12h00.58.440,uWM_experiment,2022.2.3,59.99764809
,,,,,,,,,,,,,,,,,,,,4,0,4,0,18,0,18,0,,,,,,,,,,,,,,,,,,,,,,,,,,,,,,,,,,,,,,,,,,,,,,,,,,,,,,,,,,,,,,,,,,,,,,0,,,,,,,,,,,,,,,,,,,,,,,,,,,,left,0,10,30,40,0,1800.372345,1800.372345,1800.372345,None,None,2,0,0.6471776,,,,,,,,,,,,,,,,,,,,,,10,13,2,2024-10-29_12h00.58.440,uWM_experiment,2022.2.3,59.99764809
,,,,,,,,,,,,,,,,,,,,4,0,4,0,19,0,19,0,,,,,,,,,,,,,,,,,,,,,,,,,,,,,,,,,,,,,,,,,,,,,,,,,,,,,,,,,,,,,,,,,,,,,,0,,,,,,,,,,,,,,,,,,,,,,,,,,,,left,0,40,30,70,0,1806.922611,1806.922611,1806.922611,None,None,1,1,0.6569252,,,,,,,,,,,,,,,,,,,,,,10,13,2,2024-10-29_12h00.58.440,uWM_experiment,2022.2.3,59.99764809
,,,,,,,,,,,,,,,,,,,,4,0,4,0,20,0,20,0,,,,,,,,,,,,,,,,,,,,,,,,,,,,,,,,,,,,,,,,,,,,,,,,,,,,,,,,,,,,,,,,,,,,,,0,,,,,,,,,,,,,,,,,,,,,,,,,,,,left,0,100,30,130,0,1814.039564,1814.039564,1814.039564,None,None,2,0,0.5399276,,,,,,,,,,,,,,,,,,,,,,10,13,2,2024-10-29_12h00.58.440,uWM_experiment,2022.2.3,59.99764809
,,,,,,,,,,,,,,,,,,,,4,0,4,0,21,0,21,0,,,,,,,,,,,,,,,,,,,,,,,,,,,,,,,,,,,,,,,,,,,,,,,,,,,,,,,,,,,,,,,,,,,,,,0.1,,,,,,,,,,,,,,,,,,,,,,,,,,,,right,1,10,30,40,2,1820.656488,1820.656488,1820.656488,None,None,1,1,1.3229842,,,,,,,,,,,,,,,,,,,,,,10,13,2,2024-10-29_12h00.58.440,uWM_experiment,2022.2.3,59.99764809
,,,,,,,,,,,,,,,,,,,,4,0,4,0,22,0,22,0,,,,,,,,,,,,,,,,,,,,,,,,,,,,,,,,,,,,,,,,,,,,,,,,,,,,,,,,,,,,,,,,,,,,,,0.005,,,,,,,,,,,,,,,,,,,,,,,,,,,,right,1,130,30,160,1,1827.723435,1827.723435,1827.723435,None,None,2,0,0.7039505,,,,,,,,,,,,,,,,,,,,,,10,13,2,2024-10-29_12h00.58.440,uWM_experiment,2022.2.3,59.99764809
,,,,,,,,,,,,,,,,,,,,4,0,4,0,23,0,23,0,,,,,,,,,,,,,,,,,,,,,,,,,,,,,,,,,,,,,,,,,,,,,,,,,,,,,,,,,,,,,,,,,,,,,,0,,,,,,,,,,,,,,,,,,,,,,,,,,,,right,0,160,-30,130,0,1834.073697,1834.073697,1834.073697,None,None,1,1,1.0497531,,,,,,,,,,,,,,,,,,,,,,10,13,2,2024-10-29_12h00.58.440,uWM_experiment,2022.2.3,59.99764809
,,,,,,,,,,,,,,,,,,,,4,0,4,0,,,,,0,0,0,0,,,,,,,,,,,,,,,,,,,,,,,,,,,,,,,,,,,,,,,,,,,,,,,,,,,,,,,,,,,,,,,,,,,,,,,,,,,,,,,,,,,,,,,,,,,,,,,,,,,,,,,,,,,,1835.14039,1835.14039,space,43.4147813,None,None,,,,,,,,,,,,,,,,10,13,2,2024-10-29_12h00.58.440,uWM_experiment,2022.2.3,59.99764809
,,,,,,,,,,,,,,,,,,,,4,0,4,0,,,,,1,0,1,0,,,,,,,,,,,,,,,,,,,,,,,,,,,,,,,,,,,,,,,,,,,,,,,,,,,,,,,,,,,,,,,,,,,,,,,,,,,,,,,,,,,,,,,,,,,,,,,,,,,,,,,,,,,,,,,,,,,,,,,,,,,,,,,,,10,13,2,2024-10-29_12h00.58.440,uWM_experiment,2022.2.3,59.99764809
,,,,,,,,,,,,,,,,,,,,4,0,4,0,,,,,2,0,2,0,,,,,,,,,,,,,,,,,,,,,,,,,,,,,,,,,,,,,,,,,,,,,,,,,,,,,,,,,,,,,,,,,,,,,,,,,,,,,,,,,,,,,,,,,,,,,,,,,,,,,,,,,,,,,,,,,,,,,,,,,,,,,,,,,10,13,2,2024-10-29_12h00.58.440,uWM_experiment,2022.2.3,59.99764809
,,,,,,,,,,,,,,,,,,,,5,0,5,0,0,0,0,0,,,,,,,,,,,,,,,,,,,,,,,,,,,,,,,,,,,,,,,,,,,,,,,,,,,,,,,,,,,,,,,,,,,,,,0.005,,,,,,,,,,,,,,,,,,,,1878.575464,1879.275489,1879.575491,1880.275533,1880.575541,1881.275573,1881.275573,1881.592244,left,0,130,30,160,1,1886.225765,1886.225765,1886.225765,None,None,1,1,0.7213158,,,,,,,None,,,,,,,,,,,,,,,10,13,2,2024-10-29_12h00.58.440,uWM_experiment,2022.2.3,59.99764809
,,,,,,,,,,,,,,,,,,,,5,0,5,0,1,0,1,0,,,,,,,,,,,,,,,,,,,,,,,,,,,,,,,,,,,,,,,,,,,,,,,,,,,,,,,,,,,,,,,,,,,,,,0.015,,,,,,,,,,,,,,,,,,,,,,,,,,,,right,0,100,-30,70,1,1893.176051,1893.176051,1893.176051,None,None,2,0,0.3071198,,,,,,,,,,,,,,,,,,,,,,10,13,2,2024-10-29_12h00.58.440,uWM_experiment,2022.2.3,59.99764809
,,,,,,,,,,,,,,,,,,,,5,0,5,0,2,0,2,0,,,,,,,,,,,,,,,,,,,,,,,,,,,,,,,,,,,,,,,,,,,,,,,,,,,,,,,,,,,,,,,,,,,,,,0.005,,,,,,,,,,,,,,,,,,,,,,,,,,,,left,0,160,30,190,1,1899.49299,1899.49299,1899.49299,None,None,2,0,0.3901971,,,,,,,,,,,,,,,,,,,,,,10,13,2,2024-10-29_12h00.58.440,uWM_experiment,2022.2.3,59.99764809
,,,,,,,,,,,,,,,,,,,,5,0,5,0,3,0,3,0,,,,,,,,,,,,,,,,,,,,,,,,,,,,,,,,,,,,,,,,,,,,,,,,,,,,,,,,,,,,,,,,,,,,,,0.005,,,,,,,,,,,,,,,,,,,,,,,,,,,,left,0,40,30,70,1,1906.37658,1906.37658,1906.37658,None,None,2,0,1.490599,,,,,,,,,,,,,,,,,,,,,,10,13,2,2024-10-29_12h00.58.440,uWM_experiment,2022.2.3,59.99764809
,,,,,,,,,,,,,,,,,,,,5,0,5,0,4,0,4,0,,,,,,,,,,,,,,,,,,,,,,,,,,,,,,,,,,,,,,,,,,,,,,,,,,,,,,,,,,,,,,,,,,,,,,0.005,,,,,,,,,,,,,,,,,,,,,,,,,,,,left,0,160,30,190,1,1914.693578,1914.693578,1914.693578,None,None,2,0,0.5735233,,,,,,,,,,,,,,,,,,,,,,10,13,2,2024-10-29_12h00.58.440,uWM_experiment,2022.2.3,59.99764809
,,,,,,,,,,,,,,,,,,,,5,0,5,0,5,0,5,0,,,,,,,,,,,,,,,,,,,,,,,,,,,,,,,,,,,,,,,,,,,,,,,,,,,,,,,,,,,,,,,,,,,,,,0.005,,,,,,,,,,,,,,,,,,,,,,,,,,,,right,1,160,30,190,1,1921.477174,1921.477174,1921.477174,None,None,1,1,0.9177573,,,,,,,,,,,,,,,,,,,,,,10,13,2,2024-10-29_12h00.58.440,uWM_experiment,2022.2.3,59.99764809
,,,,,,,,,,,,,,,,,,,,5,0,5,0,6,0,6,0,,,,,,,,,,,,,,,,,,,,,,,,,,,,,,,,,,,,,,,,,,,,,,,,,,,,,,,,,,,,,,,,,,,,,,0.015,,,,,,,,,,,,,,,,,,,,,,,,,,,,right,1,70,30,100,1,1927.994117,1927.994117,1927.994117,None,None,2,0,0.9367852,,,,,,,,,,,,,,,,,,,,,,10,13,2,2024-10-29_12h00.58.440,uWM_experiment,2022.2.3,59.99764809
,,,,,,,,,,,,,,,,,,,,5,0,5,0,7,0,7,0,,,,,,,,,,,,,,,,,,,,,,,,,,,,,,,,,,,,,,,,,,,,,,,,,,,,,,,,,,,,,,,,,,,,,,0.005,,,,,,,,,,,,,,,,,,,,,,,,,,,,right,0,160,-30,130,1,1934.877717,1934.877717,1934.877717,None,None,1,1,0.9092444,,,,,,,,,,,,,,,,,,,,,,10,13,2,2024-10-29_12h00.58.440,uWM_experiment,2022.2.3,59.99764809
,,,,,,,,,,,,,,,,,,,,5,0,5,0,8,0,8,0,,,,,,,,,,,,,,,,,,,,,,,,,,,,,,,,,,,,,,,,,,,,,,,,,,,,,,,,,,,,,,,,,,,,,,0.015,,,,,,,,,,,,,,,,,,,,,,,,,,,,left,0,70,30,100,1,1942.128003,1942.128003,1942.128003,None,None,3,0,1.6589659,,,,,,,,,,,,,,,,,,,,,,10,13,2,2024-10-29_12h00.58.440,uWM_experiment,2022.2.3,59.99764809
,,,,,,,,,,,,,,,,,,,,5,0,5,0,9,0,9,0,,,,,,,,,,,,,,,,,,,,,,,,,,,,,,,,,,,,,,,,,,,,,,,,,,,,,,,,,,,,,,,,,,,,,,0,,,,,,,,,,,,,,,,,,,,,,,,,,,,right,0,130,-30,100,0,1949.961663,1949.961663,1949.961663,None,None,2,0,0.4732607,,,,,,,,,,,,,,,,,,,,,,10,13,2,2024-10-29_12h00.58.440,uWM_experiment,2022.2.3,59.99764809
,,,,,,,,,,,,,,,,,,,,5,0,5,0,10,0,10,0,,,,,,,,,,,,,,,,,,,,,,,,,,,,,,,,,,,,,,,,,,,,,,,,,,,,,,,,,,,,,,,,,,,,,,0.005,,,,,,,,,,,,,,,,,,,,,,,,,,,,right,1,70,30,100,1,1956.861924,1956.861924,1956.861924,None,None,1,1,0.5169411,,,,,,,,,,,,,,,,,,,,,,10,13,2,2024-10-29_12h00.58.440,uWM_experiment,2022.2.3,59.99764809
,,,,,,,,,,,,,,,,,,,,5,0,5,0,11,0,11,0,,,,,,,,,,,,,,,,,,,,,,,,,,,,,,,,,,,,,,,,,,,,,,,,,,,,,,,,,,,,,,,,,,,,,,0.015,,,,,,,,,,,,,,,,,,,,,,,,,,,,left,1,160,-30,130,1,1963.095521,1963.095521,1963.095521,None,None,2,0,0.7313761,,,,,,,,,,,,,,,,,,,,,,10,13,2,2024-10-29_12h00.58.440,uWM_experiment,2022.2.3,59.99764809
,,,,,,,,,,,,,,,,,,,,5,0,5,0,12,0,12,0,,,,,,,,,,,,,,,,,,,,,,,,,,,,,,,,,,,,,,,,,,,,,,,,,,,,,,,,,,,,,,,,,,,,,,0.005,,,,,,,,,,,,,,,,,,,,,,,,,,,,right,0,100,-30,70,1,1969.895811,1969.895811,1969.895811,None,None,2,0,1.0189125,,,,,,,,,,,,,,,,,,,,,,10,13,2,2024-10-29_12h00.58.440,uWM_experiment,2022.2.3,59.99764809
,,,,,,,,,,,,,,,,,,,,5,0,5,0,13,0,13,0,,,,,,,,,,,,,,,,,,,,,,,,,,,,,,,,,,,,,,,,,,,,,,,,,,,,,,,,,,,,,,,,,,,,,,0.005,,,,,,,,,,,,,,,,,,,,,,,,,,,,right,1,70,30,100,1,1976.762732,1976.762732,1976.762732,None,None,1,1,0.448052,,,,,,,,,,,,,,,,,,,,,,10,13,2,2024-10-29_12h00.58.440,uWM_experiment,2022.2.3,59.99764809
,,,,,,,,,,,,,,,,,,,,5,0,5,0,14,0,14,0,,,,,,,,,,,,,,,,,,,,,,,,,,,,,,,,,,,,,,,,,,,,,,,,,,,,,,,,,,,,,,,,,,,,,,0.015,,,,,,,,,,,,,,,,,,,,,,,,,,,,right,0,100,-30,70,1,1983.563004,1983.563004,1983.563004,None,None,2,0,0.9597276,,,,,,,,,,,,,,,,,,,,,,10,13,2,2024-10-29_12h00.58.440,uWM_experiment,2022.2.3,59.99764809
,,,,,,,,,,,,,,,,,,,,5,0,5,0,15,0,15,0,,,,,,,,,,,,,,,,,,,,,,,,,,,,,,,,,,,,,,,,,,,,,,,,,,,,,,,,,,,,,,,,,,,,,,0.005,,,,,,,,,,,,,,,,,,,,,,,,,,,,left,1,40,-30,10,1,1994.696811,1994.696811,1994.696811,None,None,2,0,1.8899549,,,,,,,,,,,,,,,,,,,,,,10,13,2,2024-10-29_12h00.58.440,uWM_experiment,2022.2.3,59.99764809
,,,,,,,,,,,,,,,,,,,,5,0,5,0,16,0,16,0,,,,,,,,,,,,,,,,,,,,,,,,,,,,,,,,,,,,,,,,,,,,,,,,,,,,,,,,,,,,,,,,,,,,,,0.005,,,,,,,,,,,,,,,,,,,,,,,,,,,,right,1,100,30,130,1,2002.913776,2002.913776,2002.913776,None,None,3,0,1.5208016,,,,,,,,,,,,,,,,,,,,,,10,13,2,2024-10-29_12h00.58.440,uWM_experiment,2022.2.3,59.99764809
,,,,,,,,,,,,,,,,,,,,5,0,5,0,17,0,17,0,,,,,,,,,,,,,,,,,,,,,,,,,,,,,,,,,,,,,,,,,,,,,,,,,,,,,,,,,,,,,,,,,,,,,,0.005,,,,,,,,,,,,,,,,,,,,,,,,,,,,left,0,160,30,190,1,2010.114074,2010.114074,2010.114074,None,None,2,0,0.8565979,,,,,,,,,,,,,,,,,,,,,,10,13,2,2024-10-29_12h00.58.440,uWM_experiment,2022.2.3,59.99764809
,,,,,,,,,,,,,,,,,,,,5,0,5,0,18,0,18,0,,,,,,,,,,,,,,,,,,,,,,,,,,,,,,,,,,,,,,,,,,,,,,,,,,,,,,,,,,,,,,,,,,,,,,0.005,,,,,,,,,,,,,,,,,,,,,,,,,,,,right,1,160,30,190,1,2016.247638,2016.247638,2016.247638,None,None,2,0,1.0269665,,,,,,,,,,,,,,,,,,,,,,10,13,2,2024-10-29_12h00.58.440,uWM_experiment,2022.2.3,59.99764809
,,,,,,,,,,,,,,,,,,,,5,0,5,0,19,0,19,0,,,,,,,,,,,,,,,,,,,,,,,,,,,,,,,,,,,,,,,,,,,,,,,,,,,,,,,,,,,,,,,,,,,,,,0,,,,,,,,,,,,,,,,,,,,,,,,,,,,left,0,100,30,130,0,2022.564569,2022.564569,2022.564569,None,None,1,1,0.4699113,,,,,,,,,,,,,,,,,,,,,,10,13,2,2024-10-29_12h00.58.440,uWM_experiment,2022.2.3,59.99764809
,,,,,,,,,,,,,,,,,,,,5,0,5,0,20,0,20,0,,,,,,,,,,,,,,,,,,,,,,,,,,,,,,,,,,,,,,,,,,,,,,,,,,,,,,,,,,,,,,,,,,,,,,0.005,,,,,,,,,,,,,,,,,,,,,,,,,,,,right,0,100,-30,70,1,2028.681479,2028.681479,2028.681479,None,None,1,1,0.5771302,,,,,,,,,,,,,,,,,,,,,,10,13,2,2024-10-29_12h00.58.440,uWM_experiment,2022.2.3,59.99764809
,,,,,,,,,,,,,,,,,,,,5,0,5,0,21,0,21,0,,,,,,,,,,,,,,,,,,,,,,,,,,,,,,,,,,,,,,,,,,,,,,,,,,,,,,,,,,,,,,,,,,,,,,0,,,,,,,,,,,,,,,,,,,,,,,,,,,,left,1,40,-30,10,0,2035.248394,2035.248394,2035.248394,None,None,1,1,1.0421396,,,,,,,,,,,,,,,,,,,,,,10,13,2,2024-10-29_12h00.58.440,uWM_experiment,2022.2.3,59.99764809
,,,,,,,,,,,,,,,,,,,,5,0,5,0,22,0,22,0,,,,,,,,,,,,,,,,,,,,,,,,,,,,,,,,,,,,,,,,,,,,,,,,,,,,,,,,,,,,,,,,,,,,,,0.015,,,,,,,,,,,,,,,,,,,,,,,,,,,,right,0,160,-30,130,1,2042.348701,2042.348701,2042.348701,None,None,1,1,0.9258298,,,,,,,,,,,,,,,,,,,,,,10,13,2,2024-10-29_12h00.58.440,uWM_experiment,2022.2.3,59.99764809
,,,,,,,,,,,,,,,,,,,,5,0,5,0,23,0,23,0,,,,,,,,,,,,,,,,,,,,,,,,,,,,,,,,,,,,,,,,,,,,,,,,,,,,,,,,,,,,,,,,,,,,,,0,,,,,,,,,,,,,,,,,,,,,,,,,,,,left,1,70,-30,40,0,2049.015624,2049.015624,2049.015624,None,None,3,0,1.3707781,,,,,,,,,,,,,,,,,,,,,,10,13,2,2024-10-29_12h00.58.440,uWM_experiment,2022.2.3,59.99764809
,,,,,,,,,,,,,,,,,,,,5,0,5,0,,,,,0,0,0,0,,,,,,,,,,,,,,,,,,,,,,,,,,,,,,,,,,,,,,,,,,,,,,,,,,,,,,,,,,,,,,,,,,,,,,,,,,,,,,,,,,,,,,,,,,,,,,,,,,,,,,,,,,,,2050.415654,2050.415654,space,79.7225161,space,None,,2130.168847,2130.168847,1.3133374,,,,,,,,,,,,10,13,2,2024-10-29_12h00.58.440,uWM_experiment,2022.2.3,59.99764809
,,,,,,,,,,,,,,,,,,,,5,0,5,0,,,,,1,0,1,0,,,,,,,,,,,,,,,,,,,,,,,,,,,,,,,,,,,,,,,,,,,,,,,,,,,,,,,,,,,,,,,,,,,,,,,,,,,,,,,,,,,,,,,,,,,,,,,,,,,,,,,,,,,,,,,,,,,,,,,,,,,,,,,,,10,13,2,2024-10-29_12h00.58.440,uWM_experiment,2022.2.3,59.99764809
,,,,,,,,,,,,,,,,,,,,5,0,5,0,,,,,2,0,2,0,,,,,,,,,,,,,,,,,,,,,,,,,,,,,,,,,,,,,,,,,,,,,,,,,,,,,,,,,,,,,,,,,,,,,,,,,,,,,,,,,,,,,,,,,,,,,,,,,,,,,,,,,,,,,,,,,,,,,,,,,,,,,,,,,10,13,2,2024-10-29_12h00.58.440,uWM_experiment,2022.2.3,59.99764809
,,,,,,,,,,,,,,,,,,,,6,0,6,0,0,0,0,0,,,,,,,,,,,,,,,,,,,,,,,,,,,,,,,,,,,,,,,,,,,,,,,,,,,,,,,,,,,,,,,,,,,,,,0.025,,,,,,,,,,,,,,,,,,,,2131.502249,2132.202262,2132.502275,2133.202305,2133.502311,2134.202342,2134.202342,2134.519032,right,1,10,30,40,1,2138.919202,2138.919202,2138.919202,None,None,2,0,0.8588457,,,,,,,None,,,,,,,,,,,,,,,10,13,2,2024-10-29_12h00.58.440,uWM_experiment,2022.2.3,59.99764809
,,,,,,,,,,,,,,,,,,,,6,0,6,0,1,0,1,0,,,,,,,,,,,,,,,,,,,,,,,,,,,,,,,,,,,,,,,,,,,,,,,,,,,,,,,,,,,,,,,,,,,,,,0.015,,,,,,,,,,,,,,,,,,,,,,,,,,,,left,1,130,-30,100,1,2145.852805,2145.852805,2145.852805,None,None,1,1,0.9491972,,,,,,,,,,,,,,,,,,,,,,10,13,2,2024-10-29_12h00.58.440,uWM_experiment,2022.2.3,59.99764809
,,,,,,,,,,,,,,,,,,,,6,0,6,0,2,0,2,0,,,,,,,,,,,,,,,,,,,,,,,,,,,,,,,,,,,,,,,,,,,,,,,,,,,,,,,,,,,,,,,,,,,,,,0.025,,,,,,,,,,,,,,,,,,,,,,,,,,,,left,0,10,30,40,1,2154.269863,2154.269863,2154.269863,None,None,1,1,1.8360475,,,,,,,,,,,,,,,,,,,,,,10,13,2,2024-10-29_12h00.58.440,uWM_experiment,2022.2.3,59.99764809
,,,,,,,,,,,,,,,,,,,,6,0,6,0,3,0,3,0,,,,,,,,,,,,,,,,,,,,,,,,,,,,,,,,,,,,,,,,,,,,,,,,,,,,,,,,,,,,,,,,,,,,,,0.035,,,,,,,,,,,,,,,,,,,,,,,,,,,,left,0,70,30,100,1,2161.370112,2161.370112,2161.370112,None,None,2,0,0.5118907,,,,,,,,,,,,,,,,,,,,,,10,13,2,2024-10-29_12h00.58.440,uWM_experiment,2022.2.3,59.99764809
,,,,,,,,,,,,,,,,,,,,6,0,6,0,4,0,4,0,,,,,,,,,,,,,,,,,,,,,,,,,,,,,,,,,,,,,,,,,,,,,,,,,,,,,,,,,,,,,,,,,,,,,,0.025,,,,,,,,,,,,,,,,,,,,,,,,,,,,right,1,100,30,130,1,2167.236977,2167.236977,2167.236977,None,None,1,1,0.6928686,,,,,,,,,,,,,,,,,,,,,,10,13,2,2024-10-29_12h00.58.440,uWM_experiment,2022.2.3,59.99764809
,,,,,,,,,,,,,,,,,,,,6,0,6,0,5,0,5,0,,,,,,,,,,,,,,,,,,,,,,,,,,,,,,,,,,,,,,,,,,,,,,,,,,,,,,,,,,,,,,,,,,,,,,0.035,,,,,,,,,,,,,,,,,,,,,,,,,,,,left,1,100,-30,70,1,2173.437262,2173.437262,2173.437262,None,None,2,0,0.5567189,,,,,,,,,,,,,,,,,,,,,,10,13,2,2024-10-29_12h00.58.440,uWM_experiment,2022.2.3,59.99764809
,,,,,,,,,,,,,,,,,,,,6,0,6,0,6,0,6,0,,,,,,,,,,,,,,,,,,,,,,,,,,,,,,,,,,,,,,,,,,,,,,,,,,,,,,,,,,,,,,,,,,,,,,0,,,,,,,,,,,,,,,,,,,,,,,,,,,,left,0,130,30,160,0,2179.620867,2179.620867,2179.620867,None,None,2,0,0.46114,,,,,,,,,,,,,,,,,,,,,,10,13,2,2024-10-29_12h00.58.440,uWM_experiment,2022.2.3,59.99764809
,,,,,,,,,,,,,,,,,,,,6,0,6,0,7,0,7,0,,,,,,,,,,,,,,,,,,,,,,,,,,,,,,,,,,,,,,,,,,,,,,,,,,,,,,,,,,,,,,,,,,,,,,0.1,,,,,,,,,,,,,,,,,,,,,,,,,,,,right,0,40,-30,10,2,2186.071079,2186.071079,2186.071079,None,None,2,0,0.762761,,,,,,,,,,,,,,,,,,,,,,10,13,2,2024-10-29_12h00.58.440,uWM_experiment,2022.2.3,59.99764809
,,,,,,,,,,,,,,,,,,,,6,0,6,0,8,0,8,0,,,,,,,,,,,,,,,,,,,,,,,,,,,,,,,,,,,,,,,,,,,,,,,,,,,,,,,,,,,,,,,,,,,,,,0,,,,,,,,,,,,,,,,,,,,,,,,,,,,left,0,100,30,130,0,2192.554676,2192.554676,2192.554676,None,None,1,1,2.7190903,,,,,,,,,,,,,,,,,,,,,,10,13,2,2024-10-29_12h00.58.440,uWM_experiment,2022.2.3,59.99764809
,,,,,,,,,,,,,,,,,,,,6,0,6,0,9,0,9,0,,,,,,,,,,,,,,,,,,,,,,,,,,,,,,,,,,,,,,,,,,,,,,,,,,,,,,,,,,,,,,,,,,,,,,0.025,,,,,,,,,,,,,,,,,,,,,,,,,,,,right,0,130,-30,100,1,2200.80499,2200.80499,2200.80499,None,None,2,0,0.7648189,,,,,,,,,,,,,,,,,,,,,,10,13,2,2024-10-29_12h00.58.440,uWM_experiment,2022.2.3,59.99764809
,,,,,,,,,,,,,,,,,,,,6,0,6,0,10,0,10,0,,,,,,,,,,,,,,,,,,,,,,,,,,,,,,,,,,,,,,,,,,,,,,,,,,,,,,,,,,,,,,,,,,,,,,0.015,,,,,,,,,,,,,,,,,,,,,,,,,,,,right,0,40,-30,10,1,2207.288599,2207.288599,2207.288599,None,None,2,0,1.1292272,,,,,,,,,,,,,,,,,,,,,,10,13,2,2024-10-29_12h00.58.440,uWM_experiment,2022.2.3,59.99764809
,,,,,,,,,,,,,,,,,,,,6,0,6,0,11,0,11,0,,,,,,,,,,,,,,,,,,,,,,,,,,,,,,,,,,,,,,,,,,,,,,,,,,,,,,,,,,,,,,,,,,,,,,0.005,,,,,,,,,,,,,,,,,,,,,,,,,,,,right,0,40,-30,10,1,2214.855566,2214.855566,2214.855566,None,None,1,1,0.9302403,,,,,,,,,,,,,,,,,,,,,,10,13,2,2024-10-29_12h00.58.440,uWM_experiment,2022.2.3,59.99764809
,,,,,,,,,,,,,,,,,,,,6,0,6,0,12,0,12,0,,,,,,,,,,,,,,,,,,,,,,,,,,,,,,,,,,,,,,,,,,,,,,,,,,,,,,,,,,,,,,,,,,,,,,0,,,,,,,,,,,,,,,,,,,,,,,,,,,,right,1,10,30,40,0,2221.439187,2221.439187,2221.439187,None,None,2,0,0.5625522,,,,,,,,,,,,,,,,,,,,,,10,13,2,2024-10-29_12h00.58.440,uWM_experiment,2022.2.3,59.99764809
,,,,,,,,,,,,,,,,,,,,6,0,6,0,13,0,13,0,,,,,,,,,,,,,,,,,,,,,,,,,,,,,,,,,,,,,,,,,,,,,,,,,,,,,,,,,,,,,,,,,,,,,,0.015,,,,,,,,,,,,,,,,,,,,,,,,,,,,left,0,100,30,130,1,2227.906074,2227.906074,2227.906074,None,None,1,1,0.4076319,,,,,,,,,,,,,,,,,,,,,,10,13,2,2024-10-29_12h00.58.440,uWM_experiment,2022.2.3,59.99764809
,,,,,,,,,,,,,,,,,,,,6,0,6,0,14,0,14,0,,,,,,,,,,,,,,,,,,,,,,,,,,,,,,,,,,,,,,,,,,,,,,,,,,,,,,,,,,,,,,,,,,,,,,0,,,,,,,,,,,,,,,,,,,,,,,,,,,,left,0,10,30,40,0,2233.922988,2233.922988,2233.922988,None,None,1,1,0.374667,,,,,,,,,,,,,,,,,,,,,,10,13,2,2024-10-29_12h00.58.440,uWM_experiment,2022.2.3,59.99764809
,,,,,,,,,,,,,,,,,,,,6,0,6,0,15,0,15,0,,,,,,,,,,,,,,,,,,,,,,,,,,,,,,,,,,,,,,,,,,,,,,,,,,,,,,,,,,,,,,,,,,,,,,0,,,,,,,,,,,,,,,,,,,,,,,,,,,,left,1,160,-30,130,0,2239.889919,2239.889919,2239.889919,None,None,1,1,0.5277154,,,,,,,,,,,,,,,,,,,,,,10,13,2,2024-10-29_12h00.58.440,uWM_experiment,2022.2.3,59.99764809
,,,,,,,,,,,,,,,,,,,,6,0,6,0,16,0,16,0,,,,,,,,,,,,,,,,,,,,,,,,,,,,,,,,,,,,,,,,,,,,,,,,,,,,,,,,,,,,,,,,,,,,,,0.025,,,,,,,,,,,,,,,,,,,,,,,,,,,,left,1,100,-30,70,1,2245.673466,2245.673466,2245.673466,None,None,2,0,0.4240926,,,,,,,,,,,,,,,,,,,,,,10,13,2,2024-10-29_12h00.58.440,uWM_experiment,2022.2.3,59.99764809
,,,,,,,,,,,,,,,,,,,,6,0,6,0,17,0,17,0,,,,,,,,,,,,,,,,,,,,,,,,,,,,,,,,,,,,,,,,,,,,,,,,,,,,,,,,,,,,,,,,,,,,,,0.015,,,,,,,,,,,,,,,,,,,,,,,,,,,,left,0,70,30,100,1,2252.573763,2252.573763,2252.573763,None,None,2,0,0.2758098,,,,,,,,,,,,,,,,,,,,,,10,13,2,2024-10-29_12h00.58.440,uWM_experiment,2022.2.3,59.99764809
,,,,,,,,,,,,,,,,,,,,6,0,6,0,18,0,18,0,,,,,,,,,,,,,,,,,,,,,,,,,,,,,,,,,,,,,,,,,,,,,,,,,,,,,,,,,,,,,,,,,,,,,,0,,,,,,,,,,,,,,,,,,,,,,,,,,,,right,0,10,-30,-20,0,2258.740648,2258.740648,2258.740648,None,None,1,1,0.4129205,,,,,,,,,,,,,,,,,,,,,,10,13,2,2024-10-29_12h00.58.440,uWM_experiment,2022.2.3,59.99764809
,,,,,,,,,,,,,,,,,,,,6,0,6,0,19,0,19,0,,,,,,,,,,,,,,,,,,,,,,,,,,,,,,,,,,,,,,,,,,,,,,,,,,,,,,,,,,,,,,,,,,,,,,0.005,,,,,,,,,,,,,,,,,,,,,,,,,,,,left,1,40,-30,10,1,2264.607562,2264.607562,2264.607562,None,None,2,0,0.4419267,,,,,,,,,,,,,,,,,,,,,,10,13,2,2024-10-29_12h00.58.440,uWM_experiment,2022.2.3,59.99764809
,,,,,,,,,,,,,,,,,,,,6,0,6,0,20,0,20,0,,,,,,,,,,,,,,,,,,,,,,,,,,,,,,,,,,,,,,,,,,,,,,,,,,,,,,,,,,,,,,,,,,,,,,0.005,,,,,,,,,,,,,,,,,,,,,,,,,,,,left,1,70,-30,40,1,2270.907883,2270.907883,2270.907883,None,None,1,1,0.6456116,,,,,,,,,,,,,,,,,,,,,,10,13,2,2024-10-29_12h00.58.440,uWM_experiment,2022.2.3,59.99764809
,,,,,,,,,,,,,,,,,,,,6,0,6,0,21,0,21,0,,,,,,,,,,,,,,,,,,,,,,,,,,,,,,,,,,,,,,,,,,,,,,,,,,,,,,,,,,,,,,,,,,,,,,0.015,,,,,,,,,,,,,,,,,,,,,,,,,,,,right,1,40,30,70,1,2277.058047,2277.058047,2277.058047,None,None,2,0,0.5673489,,,,,,,,,,,,,,,,,,,,,,10,13,2,2024-10-29_12h00.58.440,uWM_experiment,2022.2.3,59.99764809
,,,,,,,,,,,,,,,,,,,,6,0,6,0,22,0,22,0,,,,,,,,,,,,,,,,,,,,,,,,,,,,,,,,,,,,,,,,,,,,,,,,,,,,,,,,,,,,,,,,,,,,,,0.005,,,,,,,,,,,,,,,,,,,,,,,,,,,,right,1,160,30,190,1,2283.441634,2283.441634,2283.441634,None,None,1,1,0.3757563,,,,,,,,,,,,,,,,,,,,,,10,13,2,2024-10-29_12h00.58.440,uWM_experiment,2022.2.3,59.99764809
,,,,,,,,,,,,,,,,,,,,6,0,6,0,23,0,23,0,,,,,,,,,,,,,,,,,,,,,,,,,,,,,,,,,,,,,,,,,,,,,,,,,,,,,,,,,,,,,,,,,,,,,,0.015,,,,,,,,,,,,,,,,,,,,,,,,,,,,left,0,10,30,40,1,2289.791913,2289.791913,2289.791913,None,None,1,1,0.4734776,,,,,,,,,,,,,,,,,,,,,,10,13,2,2024-10-29_12h00.58.440,uWM_experiment,2022.2.3,59.99764809
,,,,,,,,,,,,,,,,,,,,6,0,6,0,,,,,0,0,0,0,,,,,,,,,,,,,,,,,,,,,,,,,,,,,,,,,,,,,,,,,,,,,,,,,,,,,,,,,,,,,,,,,,,,,,,,,,,,,,,,,,,,,,,,,,,,,,,,,,,,,,,,,,,,2290.291912,2290.291912,space,85.8851652,None,space,,,,,2376.195349,2376.195349,7.8936703,,,,,,,,,10,13,2,2024-10-29_12h00.58.440,uWM_experiment,2022.2.3,59.99764809
,,,,,,,,,,,,,,,,,,,,6,0,6,0,,,,,1,0,1,0,,,,,,,,,,,,,,,,,,,,,,,,,,,,,,,,,,,,,,,,,,,,,,,,,,,,,,,,,,,,,,,,,,,,,,,,,,,,,,,,,,,,,,,,,,,,,,,,,,,,,,,,,,,,,,,,,,,,,,,,,,,,,,,,,10,13,2,2024-10-29_12h00.58.440,uWM_experiment,2022.2.3,59.99764809
,,,,,,,,,,,,,,,,,,,,6,0,6,0,,,,,2,0,2,0,,,,,,,,,,,,,,,,,,,,,,,,,,,,,,,,,,,,,,,,,,,,,,,,,,,,,,,,,,,,,,,,,,,,,,,,,,,,,,,,,,,,,,,,,,,,,,,,,,,,,,,,,,,,,,,,,,,,,,,,,,,,,,,,,10,13,2,2024-10-29_12h00.58.440,uWM_experiment,2022.2.3,59.99764809
,,,,,,,,,,,,,,,,,,,,7,0,7,0,0,0,0,0,,,,,,,,,,,,,,,,,,,,,,,,,,,,,,,,,,,,,,,,,,,,,,,,,,,,,,,,,,,,,,,,,,,,,,0,,,,,,,,,,,,,,,,,,,,2394.662739,2395.362779,2395.646118,2396.346152,2396.646166,2397.34619,2397.34619,2397.662879,right,1,130,30,160,0,2402.346395,2402.346395,2402.346395,None,None,1,1,0.3985053,,,,,,,space,,,,,,,2390.745933,2390.745933,3.8870852,,,,,,10,13,2,2024-10-29_12h00.58.440,uWM_experiment,2022.2.3,59.99764809
,,,,,,,,,,,,,,,,,,,,7,0,7,0,1,0,1,0,,,,,,,,,,,,,,,,,,,,,,,,,,,,,,,,,,,,,,,,,,,,,,,,,,,,,,,,,,,,,,,,,,,,,,0.025,,,,,,,,,,,,,,,,,,,,,,,,,,,,left,0,160,30,190,1,2407.996618,2407.996618,2407.996618,None,None,2,0,0.2841844,,,,,,,,,,,,,,,,,,,,,,10,13,2,2024-10-29_12h00.58.440,uWM_experiment,2022.2.3,59.99764809
,,,,,,,,,,,,,,,,,,,,7,0,7,0,2,0,2,0,,,,,,,,,,,,,,,,,,,,,,,,,,,,,,,,,,,,,,,,,,,,,,,,,,,,,,,,,,,,,,,,,,,,,,0.015,,,,,,,,,,,,,,,,,,,,,,,,,,,,right,0,160,-30,130,1,2414.163538,2414.163538,2414.163538,None,None,1,1,0.5093016,,,,,,,,,,,,,,,,,,,,,,10,13,2,2024-10-29_12h00.58.440,uWM_experiment,2022.2.3,59.99764809
,,,,,,,,,,,,,,,,,,,,7,0,7,0,3,0,3,0,,,,,,,,,,,,,,,,,,,,,,,,,,,,,,,,,,,,,,,,,,,,,,,,,,,,,,,,,,,,,,,,,,,,,,0.025,,,,,,,,,,,,,,,,,,,,,,,,,,,,left,1,160,-30,130,1,2419.930421,2419.930421,2419.930421,None,None,1,1,0.4383514,,,,,,,,,,,,,,,,,,,,,,10,13,2,2024-10-29_12h00.58.440,uWM_experiment,2022.2.3,59.99764809
,,,,,,,,,,,,,,,,,,,,7,0,7,0,4,0,4,0,,,,,,,,,,,,,,,,,,,,,,,,,,,,,,,,,,,,,,,,,,,,,,,,,,,,,,,,,,,,,,,,,,,,,,0,,,,,,,,,,,,,,,,,,,,,,,,,,,,right,1,10,30,40,0,2425.964024,2425.964024,2425.964024,None,None,1,1,0.436712,,,,,,,,,,,,,,,,,,,,,,10,13,2,2024-10-29_12h00.58.440,uWM_experiment,2022.2.3,59.99764809
,,,,,,,,,,,,,,,,,,,,7,0,7,0,5,0,5,0,,,,,,,,,,,,,,,,,,,,,,,,,,,,,,,,,,,,,,,,,,,,,,,,,,,,,,,,,,,,,,,,,,,,,,0.035,,,,,,,,,,,,,,,,,,,,,,,,,,,,left,1,160,-30,130,1,2431.664223,2431.664223,2431.664223,None,None,1,1,0.3766276,,,,,,,,,,,,,,,,,,,,,,10,13,2,2024-10-29_12h00.58.440,uWM_experiment,2022.2.3,59.99764809
,,,,,,,,,,,,,,,,,,,,7,0,7,0,6,0,6,0,,,,,,,,,,,,,,,,,,,,,,,,,,,,,,,,,,,,,,,,,,,,,,,,,,,,,,,,,,,,,,,,,,,,,,0.045,,,,,,,,,,,,,,,,,,,,,,,,,,,,left,1,70,-30,40,1,2437.881144,2437.881144,2437.881144,None,None,1,1,0.6715511,,,,,,,,,,,,,,,,,,,,,,10,13,2,2024-10-29_12h00.58.440,uWM_experiment,2022.2.3,59.99764809
,,,,,,,,,,,,,,,,,,,,7,0,7,0,7,0,7,0,,,,,,,,,,,,,,,,,,,,,,,,,,,,,,,,,,,,,,,,,,,,,,,,,,,,,,,,,,,,,,,,,,,,,,0.055,,,,,,,,,,,,,,,,,,,,,,,,,,,,right,1,40,30,70,1,2444.348057,2444.348057,2444.348057,None,None,2,0,0.3168002,,,,,,,,,,,,,,,,,,,,,,10,13,2,2024-10-29_12h00.58.440,uWM_experiment,2022.2.3,59.99764809
,,,,,,,,,,,,,,,,,,,,7,0,7,0,8,0,8,0,,,,,,,,,,,,,,,,,,,,,,,,,,,,,,,,,,,,,,,,,,,,,,,,,,,,,,,,,,,,,,,,,,,,,,0,,,,,,,,,,,,,,,,,,,,,,,,,,,,left,0,70,30,100,0,2451.648382,2451.648382,2451.648382,None,None,1,1,1.3602749,,,,,,,,,,,,,,,,,,,,,,10,13,2,2024-10-29_12h00.58.440,uWM_experiment,2022.2.3,59.99764809
,,,,,,,,,,,,,,,,,,,,7,0,7,0,9,0,9,0,,,,,,,,,,,,,,,,,,,,,,,,,,,,,,,,,,,,,,,,,,,,,,,,,,,,,,,,,,,,,,,,,,,,,,0.045,,,,,,,,,,,,,,,,,,,,,,,,,,,,right,1,100,30,130,1,2458.715321,2458.715321,2458.715321,None,None,2,0,0.4532701,,,,,,,,,,,,,,,,,,,,,,10,13,2,2024-10-29_12h00.58.440,uWM_experiment,2022.2.3,59.99764809
,,,,,,,,,,,,,,,,,,,,7,0,7,0,10,0,10,0,,,,,,,,,,,,,,,,,,,,,,,,,,,,,,,,,,,,,,,,,,,,,,,,,,,,,,,,,,,,,,,,,,,,,,0,,,,,,,,,,,,,,,,,,,,,,,,,,,,left,0,70,30,100,0,2464.532216,2464.532216,2464.532216,None,None,1,1,0.5964414,,,,,,,,,,,,,,,,,,,,,,10,13,2,2024-10-29_12h00.58.440,uWM_experiment,2022.2.3,59.99764809
,,,,,,,,,,,,,,,,,,,,7,0,7,0,11,0,11,0,,,,,,,,,,,,,,,,,,,,,,,,,,,,,,,,,,,,,,,,,,,,,,,,,,,,,,,,,,,,,,,,,,,,,,0.035,,,,,,,,,,,,,,,,,,,,,,,,,,,,left,0,40,30,70,1,2470.665787,2470.665787,2470.665787,None,None,1,1,0.342868,,,,,,,,,,,,,,,,,,,,,,10,13,2,2024-10-29_12h00.58.440,uWM_experiment,2022.2.3,59.99764809
,,,,,,,,,,,,,,,,,,,,7,0,7,0,12,0,12,0,,,,,,,,,,,,,,,,,,,,,,,,,,,,,,,,,,,,,,,,,,,,,,,,,,,,,,,,,,,,,,,,,,,,,,0,,,,,,,,,,,,,,,,,,,,,,,,,,,,left,1,130,-30,100,0,2476.88269,2476.88269,2476.88269,None,None,1,1,0.5018378,,,,,,,,,,,,,,,,,,,,,,10,13,2,2024-10-29_12h00.58.440,uWM_experiment,2022.2.3,59.99764809
,,,,,,,,,,,,,,,,,,,,7,0,7,0,13,0,13,0,,,,,,,,,,,,,,,,,,,,,,,,,,,,,,,,,,,,,,,,,,,,,,,,,,,,,,,,,,,,,,,,,,,,,,0.045,,,,,,,,,,,,,,,,,,,,,,,,,,,,left,1,100,-30,70,1,2482.73295,2482.73295,2482.73295,None,None,2,0,1.1396675,,,,,,,,,,,,,,,,,,,,,,10,13,2,2024-10-29_12h00.58.440,uWM_experiment,2022.2.3,59.99764809
,,,,,,,,,,,,,,,,,,,,7,0,7,0,14,0,14,0,,,,,,,,,,,,,,,,,,,,,,,,,,,,,,,,,,,,,,,,,,,,,,,,,,,,,,,,,,,,,,,,,,,,,,0.035,,,,,,,,,,,,,,,,,,,,,,,,,,,,left,0,130,30,160,1,2489.94989,2489.94989,2489.94989,None,None,1,1,0.4746631,,,,,,,,,,,,,,,,,,,,,,10,13,2,2024-10-29_12h00.58.440,uWM_experiment,2022.2.3,59.99764809
,,,,,,,,,,,,,,,,,,,,7,0,7,0,15,0,15,0,,,,,,,,,,,,,,,,,,,,,,,,,,,,,,,,,,,,,,,,,,,,,,,,,,,,,,,,,,,,,,,,,,,,,,0.1,,,,,,,,,,,,,,,,,,,,,,,,,,,,right,0,160,-30,130,2,2496.166825,2496.166825,2496.166825,None,None,1,1,0.5297295,,,,,,,,,,,,,,,,,,,,,,10,13,2,2024-10-29_12h00.58.440,uWM_experiment,2022.2.3,59.99764809
,,,,,,,,,,,,,,,,,,,,7,0,7,0,16,0,16,0,,,,,,,,,,,,,,,,,,,,,,,,,,,,,,,,,,,,,,,,,,,,,,,,,,,,,,,,,,,,,,,,,,,,,,0.045,,,,,,,,,,,,,,,,,,,,,,,,,,,,left,1,130,-30,100,1,2502.450405,2502.450405,2502.450405,None,None,1,1,0.3661629,,,,,,,,,,,,,,,,,,,,,,10,13,2,2024-10-29_12h00.58.440,uWM_experiment,2022.2.3,59.99764809
,,,,,,,,,,,,,,,,,,,,7,0,7,0,17,0,17,0,,,,,,,,,,,,,,,,,,,,,,,,,,,,,,,,,,,,,,,,,,,,,,,,,,,,,,,,,,,,,,,,,,,,,,0.1,,,,,,,,,,,,,,,,,,,,,,,,,,,,left,1,70,-30,40,2,2509.817392,2509.817392,2509.817392,None,None,3,0,1.639098,,,,,,,,,,,,,,,,,,,,,,10,13,2,2024-10-29_12h00.58.440,uWM_experiment,2022.2.3,59.99764809
,,,,,,,,,,,,,,,,,,,,7,0,7,0,18,0,18,0,,,,,,,,,,,,,,,,,,,,,,,,,,,,,,,,,,,,,,,,,,,,,,,,,,,,,,,,,,,,,,,,,,,,,,0.055,,,,,,,,,,,,,,,,,,,,,,,,,,,,left,0,160,30,190,1,2517.434327,2517.434327,2517.434327,None,None,2,0,0.4699911,,,,,,,,,,,,,,,,,,,,,,10,13,2,2024-10-29_12h00.58.440,uWM_experiment,2022.2.3,59.99764809
,,,,,,,,,,,,,,,,,,,,7,0,7,0,19,0,19,0,,,,,,,,,,,,,,,,,,,,,,,,,,,,,,,,,,,,,,,,,,,,,,,,,,,,,,,,,,,,,,,,,,,,,,0.045,,,,,,,,,,,,,,,,,,,,,,,,,,,,right,0,130,-30,100,1,2523.901238,2523.901238,2523.901238,None,None,3,0,0.5231759,,,,,,,,,,,,,,,,,,,,,,10,13,2,2024-10-29_12h00.58.440,uWM_experiment,2022.2.3,59.99764809
,,,,,,,,,,,,,,,,,,,,7,0,7,0,20,0,20,0,,,,,,,,,,,,,,,,,,,,,,,,,,,,,,,,,,,,,,,,,,,,,,,,,,,,,,,,,,,,,,,,,,,,,,0.035,,,,,,,,,,,,,,,,,,,,,,,,,,,,left,1,130,-30,100,1,2531.151531,2531.151531,2531.151531,None,None,2,0,0.4727874,,,,,,,,,,,,,,,,,,,,,,10,13,2,2024-10-29_12h00.58.440,uWM_experiment,2022.2.3,59.99764809
,,,,,,,,,,,,,,,,,,,,7,0,7,0,21,0,21,0,,,,,,,,,,,,,,,,,,,,,,,,,,,,,,,,,,,,,,,,,,,,,,,,,,,,,,,,,,,,,,,,,,,,,,0,,,,,,,,,,,,,,,,,,,,,,,,,,,,left,1,100,-30,70,0,2537.01846,2537.01846,2537.01846,None,None,1,1,0.3818084,,,,,,,,,,,,,,,,,,,,,,10,13,2,2024-10-29_12h00.58.440,uWM_experiment,2022.2.3,59.99764809
,,,,,,,,,,,,,,,,,,,,7,0,7,0,22,0,22,0,,,,,,,,,,,,,,,,,,,,,,,,,,,,,,,,,,,,,,,,,,,,,,,,,,,,,,,,,,,,,,,,,,,,,,0,,,,,,,,,,,,,,,,,,,,,,,,,,,,left,1,70,-30,40,0,2542.701996,2542.701996,2542.701996,None,None,2,0,0.810273,,,,,,,,,,,,,,,,,,,,,,10,13,2,2024-10-29_12h00.58.440,uWM_experiment,2022.2.3,59.99764809
,,,,,,,,,,,,,,,,,,,,7,0,7,0,23,0,23,0,,,,,,,,,,,,,,,,,,,,,,,,,,,,,,,,,,,,,,,,,,,,,,,,,,,,,,,,,,,,,,,,,,,,,,0,,,,,,,,,,,,,,,,,,,,,,,,,,,,right,0,160,-30,130,0,2549.202283,2549.202283,2549.202283,None,None,2,0,2.1659835,,,,,,,,,,,,,,,,,,,,,,10,13,2,2024-10-29_12h00.58.440,uWM_experiment,2022.2.3,59.99764809
,,,,,,,,,,,,,,,,,,,,7,0,7,0,,,,,0,0,0,0,,,,,,,,,,,,,,,,,,,,,,,,,,,,,,,,,,,,,,,,,,,,,,,,,,,,,,,,,,,,,,,,,,,,,,,,,,,,,,,,,,,,,,,,,,,,,,,,,,,,,,,,,,,,2551.385675,2551.385675,space,105.5262163,None,None,,,,,,,,,,,,,,,,10,13,2,2024-10-29_12h00.58.440,uWM_experiment,2022.2.3,59.99764809
,,,,,,,,,,,,,,,,,,,,7,0,7,0,,,,,1,0,1,0,,,,,,,,,,,,,,,,,,,,,,,,,,,,,,,,,,,,,,,,,,,,,,,,,,,,,,,,,,,,,,,,,,,,,,,,,,,,,,,,,,,,,,,,,,,,,,,,,,,,,,,,,,,,,,,,,,,,,,,,,,,,,,,,,10,13,2,2024-10-29_12h00.58.440,uWM_experiment,2022.2.3,59.99764809
,,,,,,,,,,,,,,,,,,,,7,0,7,0,,,,,2,0,2,0,,,,,,,,,,,,,,,,,,,,,,,,,,,,,,,,,,,,,,,,,,,,,,,,,,,,,,,,,,,,,,,,,,,,,,,,,,,,,,,,,,,,,,,,,,,,,,,,,,,,,,,,,,,,,,,,,,,,,,,,,,,,,,,,,10,13,2,2024-10-29_12h00.58.440,uWM_experiment,2022.2.3,59.99764809
,,,,,,,,,,,,,,,,,,,,8,0,8,0,0,0,0,0,,,,,,,,,,,,,,,,,,,,,,,,,,,,,,,,,,,,,,,,,,,,,,,,,,,,,,,,,,,,,,,,,,,,,,0.025,,,,,,,,,,,,,,,,,,,,2656.939904,2657.639916,2657.939935,2658.639962,2658.939976,2659.639986,2659.639986,2659.956687,left,1,100,-30,70,1,2664.223495,2664.223495,2664.223495,None,None,2,0,0.8323179,,,,,,,None,,,,,,,,,,,,,,,10,13,2,2024-10-29_12h00.58.440,uWM_experiment,2022.2.3,59.99764809
,,,,,,,,,,,,,,,,,,,,8,0,8,0,1,0,1,0,,,,,,,,,,,,,,,,,,,,,,,,,,,,,,,,,,,,,,,,,,,,,,,,,,,,,,,,,,,,,,,,,,,,,,0,,,,,,,,,,,,,,,,,,,,,,,,,,,,left,1,130,-30,100,0,2671.073816,2671.073816,2671.073816,None,None,1,1,0.7018385,,,,,,,,,,,,,,,,,,,,,,10,13,2,2024-10-29_12h00.58.440,uWM_experiment,2022.2.3,59.99764809
,,,,,,,,,,,,,,,,,,,,8,0,8,0,2,0,2,0,,,,,,,,,,,,,,,,,,,,,,,,,,,,,,,,,,,,,,,,,,,,,,,,,,,,,,,,,,,,,,,,,,,,,,0.015,,,,,,,,,,,,,,,,,,,,,,,,,,,,right,1,70,30,100,1,2677.324043,2677.324043,2677.324043,None,None,2,0,0.4996869,,,,,,,,,,,,,,,,,,,,,,10,13,2,2024-10-29_12h00.58.440,uWM_experiment,2022.2.3,59.99764809
,,,,,,,,,,,,,,,,,,,,8,0,8,0,3,0,3,0,,,,,,,,,,,,,,,,,,,,,,,,,,,,,,,,,,,,,,,,,,,,,,,,,,,,,,,,,,,,,,,,,,,,,,0,,,,,,,,,,,,,,,,,,,,,,,,,,,,left,0,70,30,100,0,2683.540945,2683.540945,2683.540945,None,None,1,1,0.5467556,,,,,,,,,,,,,,,,,,,,,,10,13,2,2024-10-29_12h00.58.440,uWM_experiment,2022.2.3,59.99764809
,,,,,,,,,,,,,,,,,,,,8,0,8,0,4,0,4,0,,,,,,,,,,,,,,,,,,,,,,,,,,,,,,,,,,,,,,,,,,,,,,,,,,,,,,,,,,,,,,,,,,,,,,0,,,,,,,,,,,,,,,,,,,,,,,,,,,,right,1,70,30,100,0,2689.374541,2689.374541,2689.374541,None,None,2,0,0.5291677,,,,,,,,,,,,,,,,,,,,,,10,13,2,2024-10-29_12h00.58.440,uWM_experiment,2022.2.3,59.99764809
,,,,,,,,,,,,,,,,,,,,8,0,8,0,5,0,5,0,,,,,,,,,,,,,,,,,,,,,,,,,,,,,,,,,,,,,,,,,,,,,,,,,,,,,,,,,,,,,,,,,,,,,,0.005,,,,,,,,,,,,,,,,,,,,,,,,,,,,right,0,100,-30,70,1,2695.624764,2695.624764,2695.624764,None,None,2,0,0.4628237,,,,,,,,,,,,,,,,,,,,,,10,13,2,2024-10-29_12h00.58.440,uWM_experiment,2022.2.3,59.99764809
,,,,,,,,,,,,,,,,,,,,8,0,8,0,6,0,6,0,,,,,,,,,,,,,,,,,,,,,,,,,,,,,,,,,,,,,,,,,,,,,,,,,,,,,,,,,,,,,,,,,,,,,,0.005,,,,,,,,,,,,,,,,,,,,,,,,,,,,right,1,40,30,70,1,2701.958366,2701.958366,2701.958366,None,None,2,0,1.0411771,,,,,,,,,,,,,,,,,,,,,,10,13,2,2024-10-29_12h00.58.440,uWM_experiment,2022.2.3,59.99764809
,,,,,,,,,,,,,,,,,,,,8,0,8,0,7,0,7,0,,,,,,,,,,,,,,,,,,,,,,,,,,,,,,,,,,,,,,,,,,,,,,,,,,,,,,,,,,,,,,,,,,,,,,0,,,,,,,,,,,,,,,,,,,,,,,,,,,,left,1,40,-30,10,0,2708.841962,2708.841962,2708.841962,None,None,1,1,0.5575719,,,,,,,,,,,,,,,,,,,,,,10,13,2,2024-10-29_12h00.58.440,uWM_experiment,2022.2.3,59.99764809
,,,,,,,,,,,,,,,,,,,,8,0,8,0,8,0,8,0,,,,,,,,,,,,,,,,,,,,,,,,,,,,,,,,,,,,,,,,,,,,,,,,,,,,,,,,,,,,,,,,,,,,,,0.005,,,,,,,,,,,,,,,,,,,,,,,,,,,,right,0,100,-30,70,1,2720.792455,2720.792455,2720.792455,None,None,2,0,1.0550149,,,,,,,,,,,,,,,,,,,,,,10,13,2,2024-10-29_12h00.58.440,uWM_experiment,2022.2.3,59.99764809
,,,,,,,,,,,,,,,,,,,,8,0,8,0,9,0,9,0,,,,,,,,,,,,,,,,,,,,,,,,,,,,,,,,,,,,,,,,,,,,,,,,,,,,,,,,,,,,,,,,,,,,,,0,,,,,,,,,,,,,,,,,,,,,,,,,,,,left,0,40,30,70,0,2728.376081,2728.376081,2728.376081,None,None,1,1,0.9593466,,,,,,,,,,,,,,,,,,,,,,10,13,2,2024-10-29_12h00.58.440,uWM_experiment,2022.2.3,59.99764809
,,,,,,,,,,,,,,,,,,,,8,0,8,0,10,0,10,0,,,,,,,,,,,,,,,,,,,,,,,,,,,,,,,,,,,,,,,,,,,,,,,,,,,,,,,,,,,,,,,,,,,,,,0.005,,,,,,,,,,,,,,,,,,,,,,,,,,,,right,0,40,-30,10,1,2736.026379,2736.026379,2736.026379,None,None,2,0,5.7330614,,,,,,,,,,,,,,,,,,,,,,10,13,2,2024-10-29_12h00.58.440,uWM_experiment,2022.2.3,59.99764809
,,,,,,,,,,,,,,,,,,,,8,0,8,0,11,0,11,0,,,,,,,,,,,,,,,,,,,,,,,,,,,,,,,,,,,,,,,,,,,,,,,,,,,,,,,,,,,,,,,,,,,,,,0.005,,,,,,,,,,,,,,,,,,,,,,,,,,,,right,0,40,-30,10,1,2747.426862,2747.426862,2747.426862,None,None,1,1,0.8285574,,,,,,,,,,,,,,,,,,,,,,10,13,2,2024-10-29_12h00.58.440,uWM_experiment,2022.2.3,59.99764809
,,,,,,,,,,,,,,,,,,,,8,0,8,0,12,0,12,0,,,,,,,,,,,,,,,,,,,,,,,,,,,,,,,,,,,,,,,,,,,,,,,,,,,,,,,,,,,,,,,,,,,,,,0.015,,,,,,,,,,,,,,,,,,,,,,,,,,,,right,0,100,-30,70,1,2753.843747,2753.843747,2753.843747,None,None,2,0,0.3796406,,,,,,,,,,,,,,,,,,,,,,10,13,2,2024-10-29_12h00.58.440,uWM_experiment,2022.2.3,59.99764809
,,,,,,,,,,,,,,,,,,,,8,0,8,0,13,0,13,0,,,,,,,,,,,,,,,,,,,,,,,,,,,,,,,,,,,,,,,,,,,,,,,,,,,,,,,,,,,,,,,,,,,,,,0.005,,,,,,,,,,,,,,,,,,,,,,,,,,,,left,0,100,30,130,1,2759.894011,2759.894011,2759.894011,None,None,2,0,0.3692581,,,,,,,,,,,,,,,,,,,,,,10,13,2,2024-10-29_12h00.58.440,uWM_experiment,2022.2.3,59.99764809
,,,,,,,,,,,,,,,,,,,,8,0,8,0,14,0,14,0,,,,,,,,,,,,,,,,,,,,,,,,,,,,,,,,,,,,,,,,,,,,,,,,,,,,,,,,,,,,,,,,,,,,,,0,,,,,,,,,,,,,,,,,,,,,,,,,,,,right,0,100,-30,70,0,2765.694243,2765.694243,2765.694243,None,None,2,0,0.5370199,,,,,,,,,,,,,,,,,,,,,,10,13,2,2024-10-29_12h00.58.440,uWM_experiment,2022.2.3,59.99764809
,,,,,,,,,,,,,,,,,,,,8,0,8,0,15,0,15,0,,,,,,,,,,,,,,,,,,,,,,,,,,,,,,,,,,,,,,,,,,,,,,,,,,,,,,,,,,,,,,,,,,,,,,0.005,,,,,,,,,,,,,,,,,,,,,,,,,,,,left,0,160,30,190,1,2772.011153,2772.011153,2772.011153,None,None,2,0,0.5321695,,,,,,,,,,,,,,,,,,,,,,10,13,2,2024-10-29_12h00.58.440,uWM_experiment,2022.2.3,59.99764809
,,,,,,,,,,,,,,,,,,,,8,0,8,0,16,0,16,0,,,,,,,,,,,,,,,,,,,,,,,,,,,,,,,,,,,,,,,,,,,,,,,,,,,,,,,,,,,,,,,,,,,,,,0.005,,,,,,,,,,,,,,,,,,,,,,,,,,,,right,1,100,30,130,1,2779.694788,2779.694788,2779.694788,None,None,2,0,0.6804775,,,,,,,,,,,,,,,,,,,,,,10,13,2,2024-10-29_12h00.58.440,uWM_experiment,2022.2.3,59.99764809
,,,,,,,,,,,,,,,,,,,,8,0,8,0,17,0,17,0,,,,,,,,,,,,,,,,,,,,,,,,,,,,,,,,,,,,,,,,,,,,,,,,,,,,,,,,,,,,,,,,,,,,,,0.005,,,,,,,,,,,,,,,,,,,,,,,,,,,,left,1,130,-30,100,1,2786.695074,2786.695074,2786.695074,None,None,2,0,0.7200971,,,,,,,,,,,,,,,,,,,,,,10,13,2,2024-10-29_12h00.58.440,uWM_experiment,2022.2.3,59.99764809
,,,,,,,,,,,,,,,,,,,,8,0,8,0,18,0,18,0,,,,,,,,,,,,,,,,,,,,,,,,,,,,,,,,,,,,,,,,,,,,,,,,,,,,,,,,,,,,,,,,,,,,,,0.005,,,,,,,,,,,,,,,,,,,,,,,,,,,,right,0,160,-30,130,1,2793.028669,2793.028669,2793.028669,None,None,2,0,2.0184113,,,,,,,,,,,,,,,,,,,,,,10,13,2,2024-10-29_12h00.58.440,uWM_experiment,2022.2.3,59.99764809
,,,,,,,,,,,,,,,,,,,,8,0,8,0,19,0,19,0,,,,,,,,,,,,,,,,,,,,,,,,,,,,,,,,,,,,,,,,,,,,,,,,,,,,,,,,,,,,,,,,,,,,,,0.005,,,,,,,,,,,,,,,,,,,,,,,,,,,,left,0,70,30,100,1,2800.745644,2800.745644,2800.745644,None,None,2,0,0.5014924,,,,,,,,,,,,,,,,,,,,,,10,13,2,2024-10-29_12h00.58.440,uWM_experiment,2022.2.3,59.99764809
,,,,,,,,,,,,,,,,,,,,8,0,8,0,20,0,20,0,,,,,,,,,,,,,,,,,,,,,,,,,,,,,,,,,,,,,,,,,,,,,,,,,,,,,,,,,,,,,,,,,,,,,,0.005,,,,,,,,,,,,,,,,,,,,,,,,,,,,right,1,10,30,40,1,2806.895903,2806.895903,2806.895903,None,None,2,0,0.383272,,,,,,,,,,,,,,,,,,,,,,10,13,2,2024-10-29_12h00.58.440,uWM_experiment,2022.2.3,59.99764809
,,,,,,,,,,,,,,,,,,,,8,0,8,0,21,0,21,0,,,,,,,,,,,,,,,,,,,,,,,,,,,,,,,,,,,,,,,,,,,,,,,,,,,,,,,,,,,,,,,,,,,,,,0.005,,,,,,,,,,,,,,,,,,,,,,,,,,,,right,1,10,30,40,1,2813.12958,2813.12958,2813.12958,None,None,1,1,0.3975751,,,,,,,,,,,,,,,,,,,,,,10,13,2,2024-10-29_12h00.58.440,uWM_experiment,2022.2.3,59.99764809
,,,,,,,,,,,,,,,,,,,,8,0,8,0,22,0,22,0,,,,,,,,,,,,,,,,,,,,,,,,,,,,,,,,,,,,,,,,,,,,,,,,,,,,,,,,,,,,,,,,,,,,,,0.015,,,,,,,,,,,,,,,,,,,,,,,,,,,,left,0,130,30,160,1,2818.896357,2818.896357,2818.896357,None,None,2,0,0.3907597,,,,,,,,,,,,,,,,,,,,,,10,13,2,2024-10-29_12h00.58.440,uWM_experiment,2022.2.3,59.99764809
,,,,,,,,,,,,,,,,,,,,8,0,8,0,23,0,23,0,,,,,,,,,,,,,,,,,,,,,,,,,,,,,,,,,,,,,,,,,,,,,,,,,,,,,,,,,,,,,,,,,,,,,,0,,,,,,,,,,,,,,,,,,,,,,,,,,,,right,0,160,-30,130,0,2825.096624,2825.096624,2825.096624,None,None,1,1,0.702367,,,,,,,,,,,,,,,,,,,,,,10,13,2,2024-10-29_12h00.58.440,uWM_experiment,2022.2.3,59.99764809
,,,,,,,,,,,,,,,,,,,,8,0,8,0,,,,,0,0,0,0,,,,,,,,,,,,,,,,,,,,,,,,,,,,,,,,,,,,,,,,,,,,,,,,,,,,,,,,,,,,,,,,,,,,,,,,,,,,,,,,,,,,,,,,,,,,,,,,,,,,,,,,,,,,2825.829987,2825.829987,space,5.537056,space,None,,2831.396861,2831.396861,0.9782373,,,,,,,,,,,,10,13,2,2024-10-29_12h00.58.440,uWM_experiment,2022.2.3,59.99764809
,,,,,,,,,,,,,,,,,,,,8,0,8,0,,,,,1,0,1,0,,,,,,,,,,,,,,,,,,,,,,,,,,,,,,,,,,,,,,,,,,,,,,,,,,,,,,,,,,,,,,,,,,,,,,,,,,,,,,,,,,,,,,,,,,,,,,,,,,,,,,,,,,,,,,,,,,,,,,,,,,,,,,,,,10,13,2,2024-10-29_12h00.58.440,uWM_experiment,2022.2.3,59.99764809
,,,,,,,,,,,,,,,,,,,,8,0,8,0,,,,,2,0,2,0,,,,,,,,,,,,,,,,,,,,,,,,,,,,,,,,,,,,,,,,,,,,,,,,,,,,,,,,,,,,,,,,,,,,,,,,,,,,,,,,,,,,,,,,,,,,,,,,,,,,,,,,,,,,,,,,,,,,,,,,,,,,,,,,,10,13,2,2024-10-29_12h00.58.440,uWM_experiment,2022.2.3,59.99764809
,,,,,,,,,,,,,,,,,,,,9,0,9,0,0,0,0,0,,,,,,,,,,,,,,,,,,,,,,,,,,,,,,,,,,,,,,,,,,,,,,,,,,,,,,,,,,,,,,,,,,,,,,0.005,,,,,,,,,,,,,,,,,,,,2832.396902,2833.096931,2833.396942,2834.096969,2834.396981,2835.097053,2835.097053,2835.413694,right,1,70,30,100,1,2840.747255,2840.747255,2840.747255,None,None,2,0,1.0437234,,,,,,,None,,,,,,,,,,,,,,,10,13,2,2024-10-29_12h00.58.440,uWM_experiment,2022.2.3,59.99764809
,,,,,,,,,,,,,,,,,,,,9,0,9,0,1,0,1,0,,,,,,,,,,,,,,,,,,,,,,,,,,,,,,,,,,,,,,,,,,,,,,,,,,,,,,,,,,,,,,,,,,,,,,0.1,,,,,,,,,,,,,,,,,,,,,,,,,,,,left,0,160,30,190,2,2847.397502,2847.397502,2847.397502,None,None,1,1,3.1693366,,,,,,,,,,,,,,,,,,,,,,10,13,2,2024-10-29_12h00.58.440,uWM_experiment,2022.2.3,59.99764809
,,,,,,,,,,,,,,,,,,,,9,0,9,0,2,0,2,0,,,,,,,,,,,,,,,,,,,,,,,,,,,,,,,,,,,,,,,,,,,,,,,,,,,,,,,,,,,,,,,,,,,,,,0,,,,,,,,,,,,,,,,,,,,,,,,,,,,right,0,160,-30,130,0,2856.131184,2856.131184,2856.131184,None,None,1,1,0.3876605,,,,,,,,,,,,,,,,,,,,,,10,13,2,2024-10-29_12h00.58.440,uWM_experiment,2022.2.3,59.99764809
,,,,,,,,,,,,,,,,,,,,9,0,9,0,3,0,3,0,,,,,,,,,,,,,,,,,,,,,,,,,,,,,,,,,,,,,,,,,,,,,,,,,,,,,,,,,,,,,,,,,,,,,,0,,,,,,,,,,,,,,,,,,,,,,,,,,,,right,0,130,-30,100,0,2862.048082,2862.048082,2862.048082,None,None,1,1,0.4547784,,,,,,,,,,,,,,,,,,,,,,10,13,2,2024-10-29_12h00.58.440,uWM_experiment,2022.2.3,59.99764809
,,,,,,,,,,,,,,,,,,,,9,0,9,0,4,0,4,0,,,,,,,,,,,,,,,,,,,,,,,,,,,,,,,,,,,,,,,,,,,,,,,,,,,,,,,,,,,,,,,,,,,,,,0.005,,,,,,,,,,,,,,,,,,,,,,,,,,,,left,1,130,-30,100,1,2867.731639,2867.731639,2867.731639,None,None,1,1,5.7871377,,,,,,,,,,,,,,,,,,,,,,10,13,2,2024-10-29_12h00.58.440,uWM_experiment,2022.2.3,59.99764809
,,,,,,,,,,,,,,,,,,,,9,0,9,0,5,0,5,0,,,,,,,,,,,,,,,,,,,,,,,,,,,,,,,,,,,,,,,,,,,,,,,,,,,,,,,,,,,,,,,,,,,,,,0.015,,,,,,,,,,,,,,,,,,,,,,,,,,,,left,0,70,30,100,1,2879.198788,2879.198788,2879.198788,None,None,1,1,0.6561718,,,,,,,,,,,,,,,,,,,,,,10,13,2,2024-10-29_12h00.58.440,uWM_experiment,2022.2.3,59.99764809
,,,,,,,,,,,,,,,,,,,,9,0,9,0,6,0,6,0,,,,,,,,,,,,,,,,,,,,,,,,,,,,,,,,,,,,,,,,,,,,,,,,,,,,,,,,,,,,,,,,,,,,,,0.025,,,,,,,,,,,,,,,,,,,,,,,,,,,,left,1,100,-30,70,1,2885.499063,2885.499063,2885.499063,None,None,1,1,0.4597811,,,,,,,,,,,,,,,,,,,,,,10,13,2,2024-10-29_12h00.58.440,uWM_experiment,2022.2.3,59.99764809
,,,,,,,,,,,,,,,,,,,,9,0,9,0,7,0,7,0,,,,,,,,,,,,,,,,,,,,,,,,,,,,,,,,,,,,,,,,,,,,,,,,,,,,,,,,,,,,,,,,,,,,,,0.035,,,,,,,,,,,,,,,,,,,,,,,,,,,,right,0,10,-30,-20,1,2891.149232,2891.149232,2891.149232,None,None,2,0,1.0335801,,,,,,,,,,,,,,,,,,,,,,10,13,2,2024-10-29_12h00.58.440,uWM_experiment,2022.2.3,59.99764809
,,,,,,,,,,,,,,,,,,,,9,0,9,0,8,0,8,0,,,,,,,,,,,,,,,,,,,,,,,,,,,,,,,,,,,,,,,,,,,,,,,,,,,,,,,,,,,,,,,,,,,,,,0.1,,,,,,,,,,,,,,,,,,,,,,,,,,,,left,0,40,30,70,2,2898.216367,2898.216367,2898.216367,None,None,2,0,0.5263248,,,,,,,,,,,,,,,,,,,,,,10,13,2,2024-10-29_12h00.58.440,uWM_experiment,2022.2.3,59.99764809
,,,,,,,,,,,,,,,,,,,,9,0,9,0,9,0,9,0,,,,,,,,,,,,,,,,,,,,,,,,,,,,,,,,,,,,,,,,,,,,,,,,,,,,,,,,,,,,,,,,,,,,,,0,,,,,,,,,,,,,,,,,,,,,,,,,,,,right,1,70,30,100,0,2904.149779,2904.149779,2904.149779,None,None,1,1,0.4249153,,,,,,,,,,,,,,,,,,,,,,10,13,2,2024-10-29_12h00.58.440,uWM_experiment,2022.2.3,59.99764809
,,,,,,,,,,,,,,,,,,,,9,0,9,0,10,0,10,0,,,,,,,,,,,,,,,,,,,,,,,,,,,,,,,,,,,,,,,,,,,,,,,,,,,,,,,,,,,,,,,,,,,,,,0.025,,,,,,,,,,,,,,,,,,,,,,,,,,,,left,0,10,30,40,1,2909.933338,2909.933338,2909.933338,None,None,2,0,0.4012996,,,,,,,,,,,,,,,,,,,,,,10,13,2,2024-10-29_12h00.58.440,uWM_experiment,2022.2.3,59.99764809
,,,,,,,,,,,,,,,,,,,,9,0,9,0,11,0,11,0,,,,,,,,,,,,,,,,,,,,,,,,,,,,,,,,,,,,,,,,,,,,,,,,,,,,,,,,,,,,,,,,,,,,,,0.015,,,,,,,,,,,,,,,,,,,,,,,,,,,,left,0,10,30,40,1,2915.900256,2915.900256,2915.900256,None,None,1,1,0.5783663,,,,,,,,,,,,,,,,,,,,,,10,13,2,2024-10-29_12h00.58.440,uWM_experiment,2022.2.3,59.99764809
,,,,,,,,,,,,,,,,,,,,9,0,9,0,12,0,12,0,,,,,,,,,,,,,,,,,,,,,,,,,,,,,,,,,,,,,,,,,,,,,,,,,,,,,,,,,,,,,,,,,,,,,,0,,,,,,,,,,,,,,,,,,,,,,,,,,,,left,1,10,-30,-20,0,2921.733801,2921.733801,2921.733801,None,None,1,1,0.6170273,,,,,,,,,,,,,,,,,,,,,,10,13,2,2024-10-29_12h00.58.440,uWM_experiment,2022.2.3,59.99764809
,,,,,,,,,,,,,,,,,,,,9,0,9,0,13,0,13,0,,,,,,,,,,,,,,,,,,,,,,,,,,,,,,,,,,,,,,,,,,,,,,,,,,,,,,,,,,,,,,,,,,,,,,0.025,,,,,,,,,,,,,,,,,,,,,,,,,,,,right,0,100,-30,70,1,2928.067385,2928.067385,2928.067385,None,None,2,0,0.4671695,,,,,,,,,,,,,,,,,,,,,,10,13,2,2024-10-29_12h00.58.440,uWM_experiment,2022.2.3,59.99764809
,,,,,,,,,,,,,,,,,,,,9,0,9,0,14,0,14,0,,,,,,,,,,,,,,,,,,,,,,,,,,,,,,,,,,,,,,,,,,,,,,,,,,,,,,,,,,,,,,,,,,,,,,0,,,,,,,,,,,,,,,,,,,,,,,,,,,,left,0,100,30,130,0,2934.234305,2934.234305,2934.234305,None,None,1,1,0.476309,,,,,,,,,,,,,,,,,,,,,,10,13,2,2024-10-29_12h00.58.440,uWM_experiment,2022.2.3,59.99764809
,,,,,,,,,,,,,,,,,,,,9,0,9,0,15,0,15,0,,,,,,,,,,,,,,,,,,,,,,,,,,,,,,,,,,,,,,,,,,,,,,,,,,,,,,,,,,,,,,,,,,,,,,0.015,,,,,,,,,,,,,,,,,,,,,,,,,,,,right,1,70,30,100,1,2940.134564,2940.134564,2940.134564,None,None,2,0,0.4400326,,,,,,,,,,,,,,,,,,,,,,10,13,2,2024-10-29_12h00.58.440,uWM_experiment,2022.2.3,59.99764809
,,,,,,,,,,,,,,,,,,,,9,0,9,0,16,0,16,0,,,,,,,,,,,,,,,,,,,,,,,,,,,,,,,,,,,,,,,,,,,,,,,,,,,,,,,,,,,,,,,,,,,,,,0.005,,,,,,,,,,,,,,,,,,,,,,,,,,,,left,1,10,-30,-20,1,2947.501846,2947.501846,2947.501846,None,None,1,1,0.5286205,,,,,,,,,,,,,,,,,,,,,,10,13,2,2024-10-29_12h00.58.440,uWM_experiment,2022.2.3,59.99764809
,,,,,,,,,,,,,,,,,,,,9,0,9,0,17,0,17,0,,,,,,,,,,,,,,,,,,,,,,,,,,,,,,,,,,,,,,,,,,,,,,,,,,,,,,,,,,,,,,,,,,,,,,0.015,,,,,,,,,,,,,,,,,,,,,,,,,,,,right,1,160,30,190,1,2953.768426,2953.768426,2953.768426,None,None,2,0,0.5581281,,,,,,,,,,,,,,,,,,,,,,10,13,2,2024-10-29_12h00.58.440,uWM_experiment,2022.2.3,59.99764809
,,,,,,,,,,,,,,,,,,,,9,0,9,0,18,0,18,0,,,,,,,,,,,,,,,,,,,,,,,,,,,,,,,,,,,,,,,,,,,,,,,,,,,,,,,,,,,,,,,,,,,,,,0.005,,,,,,,,,,,,,,,,,,,,,,,,,,,,left,0,160,30,190,1,2959.985496,2959.985496,2959.985496,None,None,1,1,0.4050129,,,,,,,,,,,,,,,,,,,,,,10,13,2,2024-10-29_12h00.58.440,uWM_experiment,2022.2.3,59.99764809
,,,,,,,,,,,,,,,,,,,,9,0,9,0,19,0,19,0,,,,,,,,,,,,,,,,,,,,,,,,,,,,,,,,,,,,,,,,,,,,,,,,,,,,,,,,,,,,,,,,,,,,,,0.015,,,,,,,,,,,,,,,,,,,,,,,,,,,,right,1,130,30,160,1,2965.935572,2965.935572,2965.935572,None,None,2,0,0.4949035,,,,,,,,,,,,,,,,,,,,,,10,13,2,2024-10-29_12h00.58.440,uWM_experiment,2022.2.3,59.99764809
,,,,,,,,,,,,,,,,,,,,9,0,9,0,20,0,20,0,,,,,,,,,,,,,,,,,,,,,,,,,,,,,,,,,,,,,,,,,,,,,,,,,,,,,,,,,,,,,,,,,,,,,,0,,,,,,,,,,,,,,,,,,,,,,,,,,,,left,0,70,30,100,0,2971.685801,2971.685801,2971.685801,None,None,1,1,0.2486509,,,,,,,,,,,,,,,,,,,,,,10,13,2,2024-10-29_12h00.58.440,uWM_experiment,2022.2.3,59.99764809
,,,,,,,,,,,,,,,,,,,,9,0,9,0,21,0,21,0,,,,,,,,,,,,,,,,,,,,,,,,,,,,,,,,,,,,,,,,,,,,,,,,,,,,,,,,,,,,,,,,,,,,,,0,,,,,,,,,,,,,,,,,,,,,,,,,,,,right,1,160,30,190,0,2977.186015,2977.186015,2977.186015,None,None,2,0,0.884294,,,,,,,,,,,,,,,,,,,,,,10,13,2,2024-10-29_12h00.58.440,uWM_experiment,2022.2.3,59.99764809
,,,,,,,,,,,,,,,,,,,,9,0,9,0,22,0,22,0,,,,,,,,,,,,,,,,,,,,,,,,,,,,,,,,,,,,,,,,,,,,,,,,,,,,,,,,,,,,,,,,,,,,,,0,,,,,,,,,,,,,,,,,,,,,,,,,,,,left,1,160,-30,130,0,2984.152965,2984.152965,2984.152965,None,None,1,1,1.1574343,,,,,,,,,,,,,,,,,,,,,,10,13,2,2024-10-29_12h00.58.440,uWM_experiment,2022.2.3,59.99764809
,,,,,,,,,,,,,,,,,,,,9,0,9,0,23,0,23,0,,,,,,,,,,,,,,,,,,,,,,,,,,,,,,,,,,,,,,,,,,,,,,,,,,,,,,,,,,,,,,,,,,,,,,0.005,,,,,,,,,,,,,,,,,,,,,,,,,,,,right,0,40,-30,10,1,2990.819886,2990.819886,2990.819886,None,None,1,1,0.6584182,,,,,,,,,,,,,,,,,,,,,,10,13,2,2024-10-29_12h00.58.440,uWM_experiment,2022.2.3,59.99764809
,,,,,,,,,,,,,,,,,,,,9,0,9,0,,,,,0,0,0,0,,,,,,,,,,,,,,,,,,,,,,,,,,,,,,,,,,,,,,,,,,,,,,,,,,,,,,,,,,,,,,,,,,,,,,,,,,,,,,,,,,,,,,,,,,,,,,,,,,,,,,,,,,,,2991.503251,2991.503251,space,119.6786077,None,None,,,,,,,,,,,,,,,,10,13,2,2024-10-29_12h00.58.440,uWM_experiment,2022.2.3,59.99764809
,,,,,,,,,,,,,,,,,,,,9,0,9,0,,,,,1,0,1,0,,,,,,,,,,,,,,,,,,,,,,,,,,,,,,,,,,,,,,,,,,,,,,,,,,,,,,,,,,,,,,,,,,,,,,,,,,,,,,,,,,,,,,,,,,,,,,,,,,,,,,,,,,,,,,,,,,,,,,,,,,,,,,,,,10,13,2,2024-10-29_12h00.58.440,uWM_experiment,2022.2.3,59.99764809
,,,,,,,,,,,,,,,,,,,,9,0,9,0,,,,,2,0,2,0,,,,,,,,,,,,,,,,,,,,,,,,,,,,,,,,,,,,,,,,,,,,,,,,,,,,,,,,,,,,,,,,,,,,,,,,,,,,,,,,,,,,,,,,,,,,,,,,,,,,,,,,,,,,,,,,,,,,,,,,,,,,,,,,,10,13,2,2024-10-29_12h00.58.440,uWM_experiment,2022.2.3,59.99764809
,,,,,,,,,,,,,,,,,,,,10,0,10,0,0,0,0,0,,,,,,,,,,,,,,,,,,,,,,,,,,,,,,,,,,,,,,,,,,,,,,,,,,,,,,,,,,,,,,,,,,,,,,0.015,,,,,,,,,,,,,,,,,,,,3111.208034,3111.908062,3112.208074,3112.908104,3113.208111,3113.908137,3113.908137,3114.22485,right,0,70,-30,40,1,3119.091692,3119.091692,3119.091692,None,None,2,0,1.3621694,,,,,,,None,,,,,,,,,,,,,,,10,13,2,2024-10-29_12h00.58.440,uWM_experiment,2022.2.3,59.99764809
,,,,,,,,,,,,,,,,,,,,10,0,10,0,1,0,1,0,,,,,,,,,,,,,,,,,,,,,,,,,,,,,,,,,,,,,,,,,,,,,,,,,,,,,,,,,,,,,,,,,,,,,,0,,,,,,,,,,,,,,,,,,,,,,,,,,,,right,0,130,-30,100,0,3126.475317,3126.475317,3126.475317,None,None,1,1,0.6584734,,,,,,,,,,,,,,,,,,,,,,10,13,2,2024-10-29_12h00.58.440,uWM_experiment,2022.2.3,59.99764809
,,,,,,,,,,,,,,,,,,,,10,0,10,0,2,0,2,0,,,,,,,,,,,,,,,,,,,,,,,,,,,,,,,,,,,,,,,,,,,,,,,,,,,,,,,,,,,,,,,,,,,,,,0.1,,,,,,,,,,,,,,,,,,,,,,,,,,,,left,1,40,-30,10,2,3136.242385,3136.242385,3136.242385,None,None,1,1,0.5633199,,,,,,,,,,,,,,,,,,,,,,10,13,2,2024-10-29_12h00.58.440,uWM_experiment,2022.2.3,59.99764809
,,,,,,,,,,,,,,,,,,,,10,0,10,0,3,0,3,0,,,,,,,,,,,,,,,,,,,,,,,,,,,,,,,,,,,,,,,,,,,,,,,,,,,,,,,,,,,,,,,,,,,,,,0.005,,,,,,,,,,,,,,,,,,,,,,,,,,,,left,0,10,30,40,1,3142.8093,3142.8093,3142.8093,None,None,2,0,1.0283835,,,,,,,,,,,,,,,,,,,,,,10,13,2,2024-10-29_12h00.58.440,uWM_experiment,2022.2.3,59.99764809
,,,,,,,,,,,,,,,,,,,,10,0,10,0,4,0,4,0,,,,,,,,,,,,,,,,,,,,,,,,,,,,,,,,,,,,,,,,,,,,,,,,,,,,,,,,,,,,,,,,,,,,,,0.005,,,,,,,,,,,,,,,,,,,,,,,,,,,,left,1,40,-30,10,1,3149.642915,3149.642915,3149.642915,None,None,2,0,0.5947213,,,,,,,,,,,,,,,,,,,,,,10,13,2,2024-10-29_12h00.58.440,uWM_experiment,2022.2.3,59.99764809
,,,,,,,,,,,,,,,,,,,,10,0,10,0,5,0,5,0,,,,,,,,,,,,,,,,,,,,,,,,,,,,,,,,,,,,,,,,,,,,,,,,,,,,,,,,,,,,,,,,,,,,,,0.005,,,,,,,,,,,,,,,,,,,,,,,,,,,,left,0,100,30,130,1,3155.72647,3155.72647,3155.72647,None,None,1,1,0.6311704,,,,,,,,,,,,,,,,,,,,,,10,13,2,2024-10-29_12h00.58.440,uWM_experiment,2022.2.3,59.99764809
,,,,,,,,,,,,,,,,,,,,10,0,10,0,6,0,6,0,,,,,,,,,,,,,,,,,,,,,,,,,,,,,,,,,,,,,,,,,,,,,,,,,,,,,,,,,,,,,,,,,,,,,,0,,,,,,,,,,,,,,,,,,,,,,,,,,,,left,0,160,30,190,0,3161.643375,3161.643375,3161.643375,None,None,2,0,0.5063384,,,,,,,,,,,,,,,,,,,,,,10,13,2,2024-10-29_12h00.58.440,uWM_experiment,2022.2.3,59.99764809
,,,,,,,,,,,,,,,,,,,,10,0,10,0,7,0,7,0,,,,,,,,,,,,,,,,,,,,,,,,,,,,,,,,,,,,,,,,,,,,,,,,,,,,,,,,,,,,,,,,,,,,,,0.015,,,,,,,,,,,,,,,,,,,,,,,,,,,,right,0,100,-30,70,1,3167.760289,3167.760289,3167.760289,None,None,2,0,0.4613191,,,,,,,,,,,,,,,,,,,,,,10,13,2,2024-10-29_12h00.58.440,uWM_experiment,2022.2.3,59.99764809
,,,,,,,,,,,,,,,,,,,,10,0,10,0,8,0,8,0,,,,,,,,,,,,,,,,,,,,,,,,,,,,,,,,,,,,,,,,,,,,,,,,,,,,,,,,,,,,,,,,,,,,,,0.005,,,,,,,,,,,,,,,,,,,,,,,,,,,,right,1,10,30,40,1,3176.210641,3176.210641,3176.210641,None,None,2,0,7.3707635,,,,,,,,,,,,,,,,,,,,,,10,13,2,2024-10-29_12h00.58.440,uWM_experiment,2022.2.3,59.99764809
,,,,,,,,,,,,,,,,,,,,10,0,10,0,9,0,9,0,,,,,,,,,,,,,,,,,,,,,,,,,,,,,,,,,,,,,,,,,,,,,,,,,,,,,,,,,,,,,,,,,,,,,,0.005,,,,,,,,,,,,,,,,,,,,,,,,,,,,right,0,100,-30,70,1,3189.927871,3189.927871,3189.927871,None,None,2,0,0.7576397,,,,,,,,,,,,,,,,,,,,,,10,13,2,2024-10-29_12h00.58.440,uWM_experiment,2022.2.3,59.99764809
,,,,,,,,,,,,,,,,,,,,10,0,10,0,10,0,10,0,,,,,,,,,,,,,,,,,,,,,,,,,,,,,,,,,,,,,,,,,,,,,,,,,,,,,,,,,,,,,,,,,,,,,,0.005,,,,,,,,,,,,,,,,,,,,,,,,,,,,left,1,10,-30,-20,1,3196.161427,3196.161427,3196.161427,None,None,2,0,0.5879497,,,,,,,,,,,,,,,,,,,,,,10,13,2,2024-10-29_12h00.58.440,uWM_experiment,2022.2.3,59.99764809
,,,,,,,,,,,,,,,,,,,,10,0,10,0,11,0,11,0,,,,,,,,,,,,,,,,,,,,,,,,,,,,,,,,,,,,,,,,,,,,,,,,,,,,,,,,,,,,,,,,,,,,,,0.005,,,,,,,,,,,,,,,,,,,,,,,,,,,,left,1,70,-30,40,1,3202.845014,3202.845014,3202.845014,None,None,1,1,0.6644499,,,,,,,,,,,,,,,,,,,,,,10,13,2,2024-10-29_12h00.58.440,uWM_experiment,2022.2.3,59.99764809
,,,,,,,,,,,,,,,,,,,,10,0,10,0,12,0,12,0,,,,,,,,,,,,,,,,,,,,,,,,,,,,,,,,,,,,,,,,,,,,,,,,,,,,,,,,,,,,,,,,,,,,,,0.015,,,,,,,,,,,,,,,,,,,,,,,,,,,,right,0,100,-30,70,1,3209.995338,3209.995338,3209.995338,None,None,2,0,0.674097,,,,,,,,,,,,,,,,,,,,,,10,13,2,2024-10-29_12h00.58.440,uWM_experiment,2022.2.3,59.99764809
,,,,,,,,,,,,,,,,,,,,10,0,10,0,13,0,13,0,,,,,,,,,,,,,,,,,,,,,,,,,,,,,,,,,,,,,,,,,,,,,,,,,,,,,,,,,,,,,,,,,,,,,,0.005,,,,,,,,,,,,,,,,,,,,,,,,,,,,left,0,100,30,130,1,3216.262232,3216.262232,3216.262232,None,None,1,1,0.4471708,,,,,,,,,,,,,,,,,,,,,,10,13,2,2024-10-29_12h00.58.440,uWM_experiment,2022.2.3,59.99764809
,,,,,,,,,,,,,,,,,,,,10,0,10,0,14,0,14,0,,,,,,,,,,,,,,,,,,,,,,,,,,,,,,,,,,,,,,,,,,,,,,,,,,,,,,,,,,,,,,,,,,,,,,0.015,,,,,,,,,,,,,,,,,,,,,,,,,,,,left,1,40,-30,10,1,3223.145842,3223.145842,3223.145842,None,None,2,0,0.5714056,,,,,,,,,,,,,,,,,,,,,,10,13,2,2024-10-29_12h00.58.440,uWM_experiment,2022.2.3,59.99764809
,,,,,,,,,,,,,,,,,,,,10,0,10,0,15,0,15,0,,,,,,,,,,,,,,,,,,,,,,,,,,,,,,,,,,,,,,,,,,,,,,,,,,,,,,,,,,,,,,,,,,,,,,0.005,,,,,,,,,,,,,,,,,,,,,,,,,,,,right,0,10,-30,-20,1,3229.512768,3229.512768,3229.512768,None,None,1,1,0.5485755,,,,,,,,,,,,,,,,,,,,,,10,13,2,2024-10-29_12h00.58.440,uWM_experiment,2022.2.3,59.99764809
,,,,,,,,,,,,,,,,,,,,10,0,10,0,16,0,16,0,,,,,,,,,,,,,,,,,,,,,,,,,,,,,,,,,,,,,,,,,,,,,,,,,,,,,,,,,,,,,,,,,,,,,,0.015,,,,,,,,,,,,,,,,,,,,,,,,,,,,left,0,160,30,190,1,3235.746374,3235.746374,3235.746374,None,None,2,0,0.7547711,,,,,,,,,,,,,,,,,,,,,,10,13,2,2024-10-29_12h00.58.440,uWM_experiment,2022.2.3,59.99764809
,,,,,,,,,,,,,,,,,,,,10,0,10,0,17,0,17,0,,,,,,,,,,,,,,,,,,,,,,,,,,,,,,,,,,,,,,,,,,,,,,,,,,,,,,,,,,,,,,,,,,,,,,0.005,,,,,,,,,,,,,,,,,,,,,,,,,,,,left,0,10,30,40,1,3242.196624,3242.196624,3242.196624,None,None,2,0,1.2486909,,,,,,,,,,,,,,,,,,,,,,10,13,2,2024-10-29_12h00.58.440,uWM_experiment,2022.2.3,59.99764809
