PreTrainingPAS4_loop.thisRepN,PreTrainingPAS4_loop.thisTrialN,PreTrainingPAS4_loop.thisN,PreTrainingPAS4_loop.thisIndex,PreTrainingPAS1_loop.thisRepN,PreTrainingPAS1_loop.thisTrialN,PreTrainingPAS1_loop.thisN,PreTrainingPAS1_loop.thisIndex,RepeatCV_loop.thisRepN,RepeatCV_loop.thisTrialN,RepeatCV_loop.thisN,RepeatCV_loop.thisIndex,TrainingCV_loop.thisRepN,TrainingCV_loop.thisTrialN,TrainingCV_loop.thisN,TrainingCV_loop.thisIndex,TrainingCAL_loop.thisRepN,TrainingCAL_loop.thisTrialN,TrainingCAL_loop.thisN,TrainingCAL_loop.thisIndex,blocks_loop.thisRepN,blocks_loop.thisTrialN,blocks_loop.thisN,blocks_loop.thisIndex,trials_loop.thisRepN,trials_loop.thisTrialN,trials_loop.thisN,trials_loop.thisIndex,TrainingPAS1_loop.thisRepN,TrainingPAS1_loop.thisTrialN,TrainingPAS1_loop.thisN,TrainingPAS1_loop.thisIndex,spacebarWelcome0.started,spacebarWelcome0.keys,spacebarWelcome0.rt,spacebarWelcome1.started,gaborWelcome1.started,maskWelcome1.started,textMaskWelcome1.started,spacebarWelcome1.keys,spacebarWelcome1.rt,spacebarWelcome2.started,spacebarWelcome2.keys,spacebarWelcome2.rt,textInst_PreTrainingPAS4.started,spacebarPreTrainingPAS4.started,spacebarPreTrainingPAS4.keys,spacebarPreTrainingPAS4.rt,textPreTrainingPAS1.started,spacebarPreTrainingPAS1.started,spacebarPreTrainingPAS1.keys,spacebarPreTrainingPAS1.rt,textQUEST0.started,spacebarQUEST0.started,spacebarQUEST0.keys,spacebarQUEST0.rt,spacebar0.started,spacebar0.keys,spacebar0.rt,spacebar1.started,spacebar1.keys,spacebar1.rt,textInstructions2.started,spacebar2.started,Gabor1Inst2.started,Gabor2Inst2.started,Gabor3Inst2.started,Gabor4Inst2.started,spacebar2.keys,spacebar2.rt,textInstructionsPAS.started,spacebarInstPAS.started,spacebarInstPAS.keys,spacebarInstPAS.rt,textInstructions3.started,spacebar3.started,spacebar3.keys,spacebar3.rt,WMresp_CV,WMresp_CV_acc,oriMemo_CV,gyre_CV,oriTest_CV,feedbackText.started,sliderCV.started,PAStextCV.started,PASkeyCV.started,sliderCV.response,sliderCV.rt,PASkeyCV.keys,PASkeyCV.corr,PASkeyCV.rt,feedbackText.stopped,TextInstructionsCAL.started,spacebarCAL.started,spacebarCAL.keys,spacebarCAL.rt,contrast,WMresp_CAL,WMresp_CAL_acc,oriMemo_CAL,gyre_CAL,oriTest_CAL,cue_CAL,sliderCAL.started,PAStextCAL.started,PASkeyCAL.started,sliderCAL.response,sliderCAL.rt,PASkeyCAL.keys,PASkeyCAL.corr,PASkeyCAL.rt,propUnseen_CAL,textStart.started,spacebar4.started,spacebar4.keys,spacebar4.rt,three.started,three.stopped,two.started,two.stopped,one.started,one.stopped,blank_countdown.started,blank_countdown.stopped,WMresp,WMresp_acc,oriMemo,gyre,oriTest,cue,slider.started,textPAS_firstGabor.started,PASkey.started,slider.response,slider.rt,PASkey.keys,PASkey.corr,PASkey.rt,spacebarContinue.started,textBreak.started,spacebarContinue.keys,spacebarContinue.rt,spacebar_reminder.keys,spacebar_TrainingPAS1.keys,spacebar_endpractice.keys,spacebar_reminder.started,textReminder.started,spacebar_reminder.rt,textInst_TrainingPAS1.started,spacebar_TrainingPAS1.started,spacebar_TrainingPAS1.rt,textend_practicePAS1.started,spacebar_endpractice.started,spacebar_endpractice.rt,textThanks.started,buttonURL.started,buttonURL.numClicks,buttonURL.timesOn,buttonURL.timesOff,laboratory,participant,session,date,expName,psychopyVersion,frameRate
,,,,,,,,,,,,,,,,,,,,,,,,,,,,,,,,77.6844208,space,10.2189649,,,,,,,,,,,,,,,,,,,,,,,,,,,,,,,,,,,,,,,,,,,,,,,,,,,,,,,,,,,,,,,,,,,,,,,,,,,,,,,,,,,,,,,,,,,,,,,,,,,,,,,,,,,,,,,,,,,,,,,,,,,,,,10,14,2,2024-10-31_11h01.37.967,uWM_experiment,2022.2.3,59.99779208
,,,,,,,,,,,,,,,,,,,,,,,,,,,,,,,,,,,87.9512852,87.9512852,87.9512852,87.9512852,space,6.6721481,,,,,,,,,,,,,,,,,,,,,,,,,,,,,,,,,,,,,,,,,,,,,,,,,,,,,,,,,,,,,,,,,,,,,,,,,,,,,,,,,,,,,,,,,,,,,,,,,,,,,,,,,,,,,,,,,,,,,,,,10,14,2,2024-10-31_11h01.37.967,uWM_experiment,2022.2.3,59.99779208
,,,,,,,,,,,,,,,,,,,,,,,,,,,,,,,,,,,,,,,,,94.651562,space,1.4517918,,,,,,,,,,,,,,,,,,,,,,,,,,,,,,,,,,,,,,,,,,,,,,,,,,,,,,,,,,,,,,,,,,,,,,,,,,,,,,,,,,,,,,,,,,,,,,,,,,,,,,,,,,,,,,,,,,,,,10,14,2,2024-10-31_11h01.37.967,uWM_experiment,2022.2.3,59.99779208
,,,,,,,,,,,,,,,,,,,,,,,,,,,,,,,,,,,,,,,,,,,,96.1349709,96.1349709,space,8.1124959,,,,,,,,,,,,,,,,,,,,,,,,,,,,,,,,,,,,,,,,,,,,,,,,,,,,,,,,,,,,,,,,,,,,,,,,,,,,,,,,,,,,,,,,,,,,,,,,,,,,,,,,,,,,,,,,,10,14,2,2024-10-31_11h01.37.967,uWM_experiment,2022.2.3,59.99779208
0,0,0,0,,,,,,,,,,,,,,,,,,,,,,,,,,,,,,,,,,,,,,,,,,,,,,,,,,,,,,,,,,,,,,,,,,,,,,,,,,,,,,,,,,,,,,,,,,,,,,,,,,,,,,,,,,,,,,,,,,,,,,,,,,,,,,,,,,,,,,,,,,,,,,,,,,,,,,,,,,,,,10,14,2,2024-10-31_11h01.37.967,uWM_experiment,2022.2.3,59.99779208
1,0,1,0,,,,,,,,,,,,,,,,,,,,,,,,,,,,,,,,,,,,,,,,,,,,,,,,,,,,,,,,,,,,,,,,,,,,,,,,,,,,,,,,,,,,,,,,,,,,,,,,,,,,,,,,,,,,,,,,,,,,,,,,,,,,,,,,,,,,,,,,,,,,,,,,,,,,,,,,,,,,,10,14,2,2024-10-31_11h01.37.967,uWM_experiment,2022.2.3,59.99779208
2,0,2,0,,,,,,,,,,,,,,,,,,,,,,,,,,,,,,,,,,,,,,,,,,,,,,,,,,,,,,,,,,,,,,,,,,,,,,,,,,,,,,,,,,,,,,,,,,,,,,,,,,,,,,,,,,,,,,,,,,,,,,,,,,,,,,,,,,,,,,,,,,,,,,,,,,,,,,,,,,,,,10,14,2,2024-10-31_11h01.37.967,uWM_experiment,2022.2.3,59.99779208
,,,,,,,,,,,,,,,,,,,,,,,,,,,,,,,,,,,,,,,,,,,,,,,,111.9023403,111.9023403,space,5.1291621,,,,,,,,,,,,,,,,,,,,,,,,,,,,,,,,,,,,,,,,,,,,,,,,,,,,,,,,,,,,,,,,,,,,,,,,,,,,,,,,,,,,,,,,,,,,,,,,,,,,,,,,,,,,,10,14,2,2024-10-31_11h01.37.967,uWM_experiment,2022.2.3,59.99779208
,,,,0,0,0,0,,,,,,,,,,,,,,,,,,,,,,,,,,,,,,,,,,,,,,,,,,,,,,,,,,,,,,,,,,,,,,,,,,,,,,,,,,,,,,,,,,,,,,,,,,,,,,,,,,,,,,,,,,,,,,,,,,,,,,,,,,,,,,,,,,,,,,,,,,,,,,,,,,,,,,,,,10,14,2,2024-10-31_11h01.37.967,uWM_experiment,2022.2.3,59.99779208
,,,,1,0,1,0,,,,,,,,,,,,,,,,,,,,,,,,,,,,,,,,,,,,,,,,,,,,,,,,,,,,,,,,,,,,,,,,,,,,,,,,,,,,,,,,,,,,,,,,,,,,,,,,,,,,,,,,,,,,,,,,,,,,,,,,,,,,,,,,,,,,,,,,,,,,,,,,,,,,,,,,,10,14,2,2024-10-31_11h01.37.967,uWM_experiment,2022.2.3,59.99779208
,,,,2,0,2,0,,,,,,,,,,,,,,,,,,,,,,,,,,,,,,,,,,,,,,,,,,,,,,,,,,,,,,,,,,,,,,,,,,,,,,,,,,,,,,,,,,,,,,,,,,,,,,,,,,,,,,,,,,,,,,,,,,,,,,,,,,,,,,,,,,,,,,,,,,,,,,,,,,,,,,,,,10,14,2,2024-10-31_11h01.37.967,uWM_experiment,2022.2.3,59.99779208
,,,,,,,,,,,,,,,,,,,,,,,,,,,,,,,,,,,,,,,,,,,,,,,,,,,,124.3362343,124.3362343,space,3.9032118,,,,,,,,,,,,,,,,,,,,,,,,,,,,,,,,,,,,,,,,,,,,,,,,,,,,,,,,,,,,,,,,,,,,,,,,,,,,,,,,,,,,,,,,,,,,,,,,,,,,,,,,,10,14,2,2024-10-31_11h01.37.967,uWM_experiment,2022.2.3,59.99779208
,,,,,,,,,,,,,,,,,,,,,,,,,,,,,,,,,,,,,,,,,,,,,,,,,,,,,,,,256.1254363,space,6.9700661,,,,,,,,,,,,,,,,,,,,,,,,,,,,,,,,,,,,,,,,,,,,,,,,,,,,,,,,,,,,,,,,,,,,,,,,,,,,,,,,,,,,,,,,,,,,,,,,,,,,,,10,14,2,2024-10-31_11h01.37.967,uWM_experiment,2022.2.3,59.99779208
,,,,,,,,,,,,,,,,,,,,,,,,,,,,,,,,,,,,,,,,,,,,,,,,,,,,,,,,,,,263.1257668,space,40.649771,,,,,,,,,,,,,,,,,,,,,,,,,,,,,,,,,,,,,,,,,,,,,,,,,,,,,,,,,,,,,,,,,,,,,,,,,,,,,,,,,,,,,,,,,,,,,,,,,,,10,14,2,2024-10-31_11h01.37.967,uWM_experiment,2022.2.3,59.99779208
,,,,,,,,,,,,,,,,,,,,,,,,,,,,,,,,,,,,,,,,,,,,,,,,,,,,,,,,,,,,,,303.7942372,303.7942372,303.7942372,303.7942372,303.7942372,303.7942372,space,33.7653317,,,,,,,,,,,,,,,,,,,,,,,,,,,,,,,,,,,,,,,,,,,,,,,,,,,,,,,,,,,,,,,,,,,,,,,,,,,,,,,,,,,,,,,,,,,10,14,2,2024-10-31_11h01.37.967,uWM_experiment,2022.2.3,59.99779208
,,,,,,,,,,,,,,,,,,,,,,,,,,,,,,,,,,,,,,,,,,,,,,,,,,,,,,,,,,,,,,,,,,,,,,337.5790756,337.5790756,space,1.2604937,,,,,,,,,,,,,,,,,,,,,,,,,,,,,,,,,,,,,,,,,,,,,,,,,,,,,,,,,,,,,,,,,,,,,,,,,,,,,,,,,,,,,,,10,14,2,2024-10-31_11h01.37.967,uWM_experiment,2022.2.3,59.99779208
,,,,,,,,,,,,,,,,,,,,,,,,,,,,,,,,,,,,,,,,,,,,,,,,,,,,,,,,,,,,,,,,,,,,,,,,,,338.8624638,338.8624638,space,4.4890406,,,,,,,,,,,,,,,,,,,,,,,,,,,,,,,,,,,,,,,,,,,,,,,,,,,,,,,,,,,,,,,,,,,,,,,,,,,,,,,,,,,10,14,2,2024-10-31_11h01.37.967,uWM_experiment,2022.2.3,59.99779208
,,,,,,,,0,0,0,0,0,0,0,0,,,,,,,,,,,,,,,,,,,,,,,,,,,,,,,,,,,,,,,,,,,,,,,,,,,,,,,,,,,,,,,left,1,160,-30,130,353.8631691,354.8631952,354.8631952,354.8631952,None,None,4,0,2.4803139,,,,,,,,,,,,,,,,,,,,,,,,,,,,,,,,,,,,,,,,,,,,,,,,,,,,,,,,,,,,,,,,,,,,,10,14,2,2024-10-31_11h01.37.967,uWM_experiment,2022.2.3,59.99779208
,,,,,,,,0,0,0,0,1,0,1,0,,,,,,,,,,,,,,,,,,,,,,,,,,,,,,,,,,,,,,,,,,,,,,,,,,,,,,,,,,,,,,,right,0,70,-30,40,364.9303262,365.9303694,365.9303694,365.9303694,None,None,3,0,2.0611789,365.9303694,,,,,,,,,,,,,,,,,,,,,,,,,,,,,,,,,,,,,,,,,,,,,,,,,,,,,,,,,,,,,,,,,,,,10,14,2,2024-10-31_11h01.37.967,uWM_experiment,2022.2.3,59.99779208
,,,,,,,,0,0,0,0,2,0,2,0,,,,,,,,,,,,,,,,,,,,,,,,,,,,,,,,,,,,,,,,,,,,,,,,,,,,,,,,,,,,,,,left,0,100,30,130,374.3307608,375.330776,375.330776,375.330776,None,None,2,0,1.1327664,375.330776,,,,,,,,,,,,,,,,,,,,,,,,,,,,,,,,,,,,,,,,,,,,,,,,,,,,,,,,,,,,,,,,,,,,10,14,2,2024-10-31_11h01.37.967,uWM_experiment,2022.2.3,59.99779208
,,,,,,,,0,0,0,0,3,0,3,0,,,,,,,,,,,,,,,,,,,,,,,,,,,,,,,,,,,,,,,,,,,,,,,,,,,,,,,,,,,,,,,left,0,160,30,190,383.6644935,384.6645276,384.6645276,384.6645276,None,None,1,1,1.8470644,384.6645276,,,,,,,,,,,,,,,,,,,,,,,,,,,,,,,,,,,,,,,,,,,,,,,,,,,,,,,,,,,,,,,,,,,,10,14,2,2024-10-31_11h01.37.967,uWM_experiment,2022.2.3,59.99779208
,,,,,,,,0,0,0,0,4,0,4,0,,,,,,,,,,,,,,,,,,,,,,,,,,,,,,,,,,,,,,,,,,,,,,,,,,,,,,,,,,,,,,,right,1,10,30,40,394.0149586,395.0149875,395.0149875,395.0149875,None,None,4,0,1.6565534,395.0149875,,,,,,,,,,,,,,,,,,,,,,,,,,,,,,,,,,,,,,,,,,,,,,,,,,,,,,,,,,,,,,,,,,,,10,14,2,2024-10-31_11h01.37.967,uWM_experiment,2022.2.3,59.99779208
,,,,,,,,0,0,0,0,5,0,5,0,,,,,,,,,,,,,,,,,,,,,,,,,,,,,,,,,,,,,,,,,,,,,,,,,,,,,,,,,,,,,,,left,1,130,-30,100,405.6154793,406.6155303,406.6155303,406.6155303,None,None,4,0,1.1280808,406.6155303,,,,,,,,,,,,,,,,,,,,,,,,,,,,,,,,,,,,,,,,,,,,,,,,,,,,,,,,,,,,,,,,,,,,10,14,2,2024-10-31_11h01.37.967,uWM_experiment,2022.2.3,59.99779208
,,,,,,,,0,0,0,0,,,,,,,,,,,,,,,,,,,,,,,,,,,,,,,,,,,,,,,,,,,,,,,,,,,,,,,,,,,,,,,,,,,,,,,,,,,,,,,,,,,,,,,,,,,,,,,,,,,,,,,,,,,,,,,,,,,,,,,,,,,,,,,,,,,,,,,,,,,,,,,,,,,,,10,14,2,2024-10-31_11h01.37.967,uWM_experiment,2022.2.3,59.99779208
,,,,,,,,,,,,,,,,,,,,,,,,,,,,,,,,,,,,,,,,,,,,,,,,,,,,,,,,,,,,,,,,,,,,,,,,,,,,,,,,,,,,,,,,,,,,,418.6827425,418.6827425,space,5.1888467,,,,,,,,,,,,,,,,,,,,,,,,,,,,,,,,,,,,,,,,,,,,,,,,,,,,,,,,,,,,,,,,10,14,2,2024-10-31_11h01.37.967,uWM_experiment,2022.2.3,59.99779208
,,,,,,,,,,,,,,,,0,0,0,0,,,,,,,,,,,,,,,,,,,,,,,,,,,,,,,,,,,,,,,,,,,,,,,,,,,,,,,,,,,,,,,,,,,,,,,,,,,,,,0.143170229,right,1,10,30,40,1,430.0665696,430.0665696,430.0665696,None,None,3,0,1.388934,,,,,,,,,,,,,,,,,,,,,,,,,,,,,,,,,,,,,,,,,,,,,,,,,10,14,2,2024-10-31_11h01.37.967,uWM_experiment,2022.2.3,59.99779208
,,,,,,,,,,,,,,,,1,0,1,0,,,,,,,,,,,,,,,,,,,,,,,,,,,,,,,,,,,,,,,,,,,,,,,,,,,,,,,,,,,,,,,,,,,,,,,,,,,,,,0.1,left,1,160,-30,130,2,437.5502422,437.5502422,437.5502422,None,None,3,0,0.6093059,0,,,,,,,,,,,,,,,,,,,,,,,,,,,,,,,,,,,,,,,,,,,,,,,,10,14,2,2024-10-31_11h01.37.967,uWM_experiment,2022.2.3,59.99779208
,,,,,,,,,,,,,,,,2,0,2,0,,,,,,,,,,,,,,,,,,,,,,,,,,,,,,,,,,,,,,,,,,,,,,,,,,,,,,,,,,,,,,,,,,,,,,,,,,,,,,0.1,right,0,40,-30,10,2,444.7005726,444.7005726,444.7005726,None,None,2,0,1.4430619,0,,,,,,,,,,,,,,,,,,,,,,,,,,,,,,,,,,,,,,,,,,,,,,,,10,14,2,2024-10-31_11h01.37.967,uWM_experiment,2022.2.3,59.99779208
,,,,,,,,,,,,,,,,3,0,3,0,,,,,,,,,,,,,,,,,,,,,,,,,,,,,,,,,,,,,,,,,,,,,,,,,,,,,,,,,,,,,,,,,,,,,,,,,,,,,,0.133170229,right,0,70,-30,40,1,452.4175732,452.4175732,452.4175732,None,None,3,0,2.5100952,0,,,,,,,,,,,,,,,,,,,,,,,,,,,,,,,,,,,,,,,,,,,,,,,,10,14,2,2024-10-31_11h01.37.967,uWM_experiment,2022.2.3,59.99779208
,,,,,,,,,,,,,,,,4,0,4,0,,,,,,,,,,,,,,,,,,,,,,,,,,,,,,,,,,,,,,,,,,,,,,,,,,,,,,,,,,,,,,,,,,,,,,,,,,,,,,0.1,right,1,100,30,130,2,461.8013357,461.8013357,461.8013357,None,None,4,0,1.1742939,0,,,,,,,,,,,,,,,,,,,,,,,,,,,,,,,,,,,,,,,,,,,,,,,,10,14,2,2024-10-31_11h01.37.967,uWM_experiment,2022.2.3,59.99779208
,,,,,,,,,,,,,,,,5,0,5,0,,,,,,,,,,,,,,,,,,,,,,,,,,,,,,,,,,,,,,,,,,,,,,,,,,,,,,,,,,,,,,,,,,,,,,,,,,,,,,0.123170229,left,0,130,30,160,1,469.9183784,469.9183784,469.9183784,None,None,1,1,0.7691306,0,,,,,,,,,,,,,,,,,,,,,,,,,,,,,,,,,,,,,,,,,,,,,,,,10,14,2,2024-10-31_11h01.37.967,uWM_experiment,2022.2.3,59.99779208
,,,,,,,,,,,,,,,,,,,,,,,,,,,,,,,,,,,,,,,,,,,,,,,,,,,,,,,,,,,,,,,,,,,,,,,,,,,,,,,,,,,,,,,,,,,,,,,,,,,,,,,,,,,,,,,,,470.718385,471.7017648,space,7.0099207,,,,,,,,,,,,,,,,,,,,,,,,,,,,,,,,,,,,,,,,,,,,10,14,2,2024-10-31_11h01.37.967,uWM_experiment,2022.2.3,59.99779208
,,,,,,,,,,,,,,,,,,,,0,0,0,0,0,0,0,0,,,,,,,,,,,,,,,,,,,,,,,,,,,,,,,,,,,,,,,,,,,,,,,,,,,,,,,,,,,,,,,,,,,,,,0.123170229,,,,,,,,,,,,,,,,,,,,478.7354333,479.4354532,479.7188148,480.4188321,480.7188454,481.4188807,481.4188807,481.768898,right,0,100,-30,70,1,488.8859168,488.8859168,488.8859168,None,None,2,0,1.4976951,,,,,,,,,,,,,,,,,,,,,,10,14,2,2024-10-31_11h01.37.967,uWM_experiment,2022.2.3,59.99779208
,,,,,,,,,,,,,,,,,,,,0,0,0,0,1,0,1,0,,,,,,,,,,,,,,,,,,,,,,,,,,,,,,,,,,,,,,,,,,,,,,,,,,,,,,,,,,,,,,,,,,,,,,0.113170229,,,,,,,,,,,,,,,,,,,,,,,,,,,,left,0,70,30,100,1,497.7529563,497.7529563,497.7529563,None,None,1,1,0.4545972,,,,,,,,,,,,,,,,,,,,,,10,14,2,2024-10-31_11h01.37.967,uWM_experiment,2022.2.3,59.99779208
,,,,,,,,,,,,,,,,,,,,0,0,0,0,2,0,2,0,,,,,,,,,,,,,,,,,,,,,,,,,,,,,,,,,,,,,,,,,,,,,,,,,,,,,,,,,,,,,,,,,,,,,,0,,,,,,,,,,,,,,,,,,,,,,,,,,,,left,1,10,-30,-20,0,504.186569,504.186569,504.186569,None,None,2,0,0.5650546,,,,,,,,,,,,,,,,,,,,,,10,14,2,2024-10-31_11h01.37.967,uWM_experiment,2022.2.3,59.99779208
,,,,,,,,,,,,,,,,,,,,0,0,0,0,3,0,3,0,,,,,,,,,,,,,,,,,,,,,,,,,,,,,,,,,,,,,,,,,,,,,,,,,,,,,,,,,,,,,,,,,,,,,,0,,,,,,,,,,,,,,,,,,,,,,,,,,,,right,1,40,30,70,0,510.4035126,510.4035126,510.4035126,None,None,1,1,0.4281221,,,,,,,,,,,,,,,,,,,,,,10,14,2,2024-10-31_11h01.37.967,uWM_experiment,2022.2.3,59.99779208
,,,,,,,,,,,,,,,,,,,,0,0,0,0,4,0,4,0,,,,,,,,,,,,,,,,,,,,,,,,,,,,,,,,,,,,,,,,,,,,,,,,,,,,,,,,,,,,,,,,,,,,,,0.123170229,,,,,,,,,,,,,,,,,,,,,,,,,,,,left,1,160,-30,130,1,516.5704614,516.5704614,516.5704614,None,None,2,0,0.7972175,,,,,,,,,,,,,,,,,,,,,,10,14,2,2024-10-31_11h01.37.967,uWM_experiment,2022.2.3,59.99779208
,,,,,,,,,,,,,,,,,,,,0,0,0,0,5,0,5,0,,,,,,,,,,,,,,,,,,,,,,,,,,,,,,,,,,,,,,,,,,,,,,,,,,,,,,,,,,,,,,,,,,,,,,0.113170229,,,,,,,,,,,,,,,,,,,,,,,,,,,,right,1,40,30,70,1,523.0040838,523.0040838,523.0040838,None,None,1,1,0.363569,,,,,,,,,,,,,,,,,,,,,,10,14,2,2024-10-31_11h01.37.967,uWM_experiment,2022.2.3,59.99779208
,,,,,,,,,,,,,,,,,,,,0,0,0,0,6,0,6,0,,,,,,,,,,,,,,,,,,,,,,,,,,,,,,,,,,,,,,,,,,,,,,,,,,,,,,,,,,,,,,,,,,,,,,0.123170229,,,,,,,,,,,,,,,,,,,,,,,,,,,,left,1,160,-30,130,1,528.9543617,528.9543617,528.9543617,None,None,1,1,0.5973506,,,,,,,,,,,,,,,,,,,,,,10,14,2,2024-10-31_11h01.37.967,uWM_experiment,2022.2.3,59.99779208
,,,,,,,,,,,,,,,,,,,,0,0,0,0,7,0,7,0,,,,,,,,,,,,,,,,,,,,,,,,,,,,,,,,,,,,,,,,,,,,,,,,,,,,,,,,,,,,,,,,,,,,,,0,,,,,,,,,,,,,,,,,,,,,,,,,,,,left,1,160,-30,130,0,535.6713441,535.6713441,535.6713441,None,None,1,1,1.2962803,,,,,,,,,,,,,,,,,,,,,,10,14,2,2024-10-31_11h01.37.967,uWM_experiment,2022.2.3,59.99779208
,,,,,,,,,,,,,,,,,,,,0,0,0,0,8,0,8,0,,,,,,,,,,,,,,,,,,,,,,,,,,,,,,,,,,,,,,,,,,,,,,,,,,,,,,,,,,,,,,,,,,,,,,0.133170229,,,,,,,,,,,,,,,,,,,,,,,,,,,,left,0,130,30,160,1,546.0884719,546.0884719,546.0884719,None,None,1,1,0.4711353,,,,,,,,,,,,,,,,,,,,,,10,14,2,2024-10-31_11h01.37.967,uWM_experiment,2022.2.3,59.99779208
,,,,,,,,,,,,,,,,,,,,0,0,0,0,9,0,9,0,,,,,,,,,,,,,,,,,,,,,,,,,,,,,,,,,,,,,,,,,,,,,,,,,,,,,,,,,,,,,,,,,,,,,,0.143170229,,,,,,,,,,,,,,,,,,,,,,,,,,,,left,0,70,30,100,1,552.4887213,552.4887213,552.4887213,None,None,2,0,0.7028572,,,,,,,,,,,,,,,,,,,,,,10,14,2,2024-10-31_11h01.37.967,uWM_experiment,2022.2.3,59.99779208
,,,,,,,,,,,,,,,,,,,,0,0,0,0,10,0,10,0,,,,,,,,,,,,,,,,,,,,,,,,,,,,,,,,,,,,,,,,,,,,,,,,,,,,,,,,,,,,,,,,,,,,,,0.133170229,,,,,,,,,,,,,,,,,,,,,,,,,,,,left,1,160,-30,130,1,558.8056925,558.8056925,558.8056925,None,None,1,1,0.257943,,,,,,,,,,,,,,,,,,,,,,10,14,2,2024-10-31_11h01.37.967,uWM_experiment,2022.2.3,59.99779208
,,,,,,,,,,,,,,,,,,,,0,0,0,0,11,0,11,0,,,,,,,,,,,,,,,,,,,,,,,,,,,,,,,,,,,,,,,,,,,,,,,,,,,,,,,,,,,,,,,,,,,,,,0.143170229,,,,,,,,,,,,,,,,,,,,,,,,,,,,right,1,160,30,190,1,564.8892923,564.8892923,564.8892923,None,None,2,0,0.5744425,,,,,,,,,,,,,,,,,,,,,,10,14,2,2024-10-31_11h01.37.967,uWM_experiment,2022.2.3,59.99779208
,,,,,,,,,,,,,,,,,,,,0,0,0,0,12,0,12,0,,,,,,,,,,,,,,,,,,,,,,,,,,,,,,,,,,,,,,,,,,,,,,,,,,,,,,,,,,,,,,,,,,,,,,0.133170229,,,,,,,,,,,,,,,,,,,,,,,,,,,,left,0,70,30,100,1,571.0395769,571.0395769,571.0395769,None,None,1,1,0.2240344,,,,,,,,,,,,,,,,,,,,,,10,14,2,2024-10-31_11h01.37.967,uWM_experiment,2022.2.3,59.99779208
,,,,,,,,,,,,,,,,,,,,0,0,0,0,13,0,13,0,,,,,,,,,,,,,,,,,,,,,,,,,,,,,,,,,,,,,,,,,,,,,,,,,,,,,,,,,,,,,,,,,,,,,,0.143170229,,,,,,,,,,,,,,,,,,,,,,,,,,,,left,1,130,-30,100,1,577.1232021,577.1232021,577.1232021,None,None,1,1,0.4043891,,,,,,,,,,,,,,,,,,,,,,10,14,2,2024-10-31_11h01.37.967,uWM_experiment,2022.2.3,59.99779208
,,,,,,,,,,,,,,,,,,,,0,0,0,0,14,0,14,0,,,,,,,,,,,,,,,,,,,,,,,,,,,,,,,,,,,,,,,,,,,,,,,,,,,,,,,,,,,,,,,,,,,,,,0.153170229,,,,,,,,,,,,,,,,,,,,,,,,,,,,left,1,160,-30,130,1,583.3568218,583.3568218,583.3568218,None,None,2,0,0.4507888,,,,,,,,,,,,,,,,,,,,,,10,14,2,2024-10-31_11h01.37.967,uWM_experiment,2022.2.3,59.99779208
,,,,,,,,,,,,,,,,,,,,0,0,0,0,15,0,15,0,,,,,,,,,,,,,,,,,,,,,,,,,,,,,,,,,,,,,,,,,,,,,,,,,,,,,,,,,,,,,,,,,,,,,,0,,,,,,,,,,,,,,,,,,,,,,,,,,,,right,0,40,-30,10,0,590.0238232,590.0238232,590.0238232,None,None,1,1,0.9279178,,,,,,,,,,,,,,,,,,,,,,10,14,2,2024-10-31_11h01.37.967,uWM_experiment,2022.2.3,59.99779208
,,,,,,,,,,,,,,,,,,,,0,0,0,0,16,0,16,0,,,,,,,,,,,,,,,,,,,,,,,,,,,,,,,,,,,,,,,,,,,,,,,,,,,,,,,,,,,,,,,,,,,,,,0.143170229,,,,,,,,,,,,,,,,,,,,,,,,,,,,left,1,10,-30,-20,1,596.4907155,596.4907155,596.4907155,None,None,1,1,0.4849202,,,,,,,,,,,,,,,,,,,,,,10,14,2,2024-10-31_11h01.37.967,uWM_experiment,2022.2.3,59.99779208
,,,,,,,,,,,,,,,,,,,,0,0,0,0,17,0,17,0,,,,,,,,,,,,,,,,,,,,,,,,,,,,,,,,,,,,,,,,,,,,,,,,,,,,,,,,,,,,,,,,,,,,,,0.153170229,,,,,,,,,,,,,,,,,,,,,,,,,,,,right,0,70,-30,40,1,602.8576957,602.8576957,602.8576957,None,None,1,1,0.5419561,,,,,,,,,,,,,,,,,,,,,,10,14,2,2024-10-31_11h01.37.967,uWM_experiment,2022.2.3,59.99779208
,,,,,,,,,,,,,,,,,,,,0,0,0,0,18,0,18,0,,,,,,,,,,,,,,,,,,,,,,,,,,,,,,,,,,,,,,,,,,,,,,,,,,,,,,,,,,,,,,,,,,,,,,0,,,,,,,,,,,,,,,,,,,,,,,,,,,,left,1,160,-30,130,0,609.0079642,609.0079642,609.0079642,None,None,1,1,0.8556266,,,,,,,,,,,,,,,,,,,,,,10,14,2,2024-10-31_11h01.37.967,uWM_experiment,2022.2.3,59.99779208
,,,,,,,,,,,,,,,,,,,,0,0,0,0,19,0,19,0,,,,,,,,,,,,,,,,,,,,,,,,,,,,,,,,,,,,,,,,,,,,,,,,,,,,,,,,,,,,,,,,,,,,,,0,,,,,,,,,,,,,,,,,,,,,,,,,,,,left,0,10,30,40,0,616.7582918,616.7582918,616.7582918,None,None,1,1,0.6894056,,,,,,,,,,,,,,,,,,,,,,10,14,2,2024-10-31_11h01.37.967,uWM_experiment,2022.2.3,59.99779208
,,,,,,,,,,,,,,,,,,,,0,0,0,0,20,0,20,0,,,,,,,,,,,,,,,,,,,,,,,,,,,,,,,,,,,,,,,,,,,,,,,,,,,,,,,,,,,,,,,,,,,,,,0.163170229,,,,,,,,,,,,,,,,,,,,,,,,,,,,left,0,70,30,100,1,623.9919687,623.9919687,623.9919687,None,None,3,0,1.4716404,,,,,,,,,,,,,,,,,,,,,,10,14,2,2024-10-31_11h01.37.967,uWM_experiment,2022.2.3,59.99779208
,,,,,,,,,,,,,,,,,,,,0,0,0,0,21,0,21,0,,,,,,,,,,,,,,,,,,,,,,,,,,,,,,,,,,,,,,,,,,,,,,,,,,,,,,,,,,,,,,,,,,,,,,0.153170229,,,,,,,,,,,,,,,,,,,,,,,,,,,,right,1,10,30,40,1,631.4756473,631.4756473,631.4756473,None,None,1,1,0.3640741,,,,,,,,,,,,,,,,,,,,,,10,14,2,2024-10-31_11h01.37.967,uWM_experiment,2022.2.3,59.99779208
,,,,,,,,,,,,,,,,,,,,0,0,0,0,22,0,22,0,,,,,,,,,,,,,,,,,,,,,,,,,,,,,,,,,,,,,,,,,,,,,,,,,,,,,,,,,,,,,,,,,,,,,,0.163170229,,,,,,,,,,,,,,,,,,,,,,,,,,,,right,0,40,-30,10,1,639.5426756,639.5426756,639.5426756,None,None,2,0,1.6090963,,,,,,,,,,,,,,,,,,,,,,10,14,2,2024-10-31_11h01.37.967,uWM_experiment,2022.2.3,59.99779208
,,,,,,,,,,,,,,,,,,,,0,0,0,0,23,0,23,0,,,,,,,,,,,,,,,,,,,,,,,,,,,,,,,,,,,,,,,,,,,,,,,,,,,,,,,,,,,,,,,,,,,,,,0.153170229,,,,,,,,,,,,,,,,,,,,,,,,,,,,left,1,10,-30,-20,1,647.4263544,647.4263544,647.4263544,None,None,2,0,1.5093601,,,,,,,,,,,,,,,,,,,,,,10,14,2,2024-10-31_11h01.37.967,uWM_experiment,2022.2.3,59.99779208
,,,,,,,,,,,,,,,,,,,,0,0,0,0,,,,,0,0,0,0,,,,,,,,,,,,,,,,,,,,,,,,,,,,,,,,,,,,,,,,,,,,,,,,,,,,,,,,,,,,,,,,,,,,,,,,,,,,,,,,,,,,,,,,,,,,,,,,,,,,,,,,,,,,648.9597182,648.9597182,space,90.3600504,None,None,,,,,,,,,,,,,,,,10,14,2,2024-10-31_11h01.37.967,uWM_experiment,2022.2.3,59.99779208
,,,,,,,,,,,,,,,,,,,,0,0,0,0,,,,,1,0,1,0,,,,,,,,,,,,,,,,,,,,,,,,,,,,,,,,,,,,,,,,,,,,,,,,,,,,,,,,,,,,,,,,,,,,,,,,,,,,,,,,,,,,,,,,,,,,,,,,,,,,,,,,,,,,,,,,,,,,,,,,,,,,,,,,,10,14,2,2024-10-31_11h01.37.967,uWM_experiment,2022.2.3,59.99779208
,,,,,,,,,,,,,,,,,,,,0,0,0,0,,,,,2,0,2,0,,,,,,,,,,,,,,,,,,,,,,,,,,,,,,,,,,,,,,,,,,,,,,,,,,,,,,,,,,,,,,,,,,,,,,,,,,,,,,,,,,,,,,,,,,,,,,,,,,,,,,,,,,,,,,,,,,,,,,,,,,,,,,,,,10,14,2,2024-10-31_11h01.37.967,uWM_experiment,2022.2.3,59.99779208
,,,,,,,,,,,,,,,,,,,,1,0,1,0,0,0,0,0,,,,,,,,,,,,,,,,,,,,,,,,,,,,,,,,,,,,,,,,,,,,,,,,,,,,,,,,,,,,,,,,,,,,,,0.143170229,,,,,,,,,,,,,,,,,,,,739.3471505,740.0471887,740.3471871,741.0472175,741.3472324,742.0472538,742.0472538,742.3639533,right,1,160,30,190,1,747.2808385,747.2808385,747.2808385,None,None,2,0,2.3671239,,,,,,,None,,,,,,,,,,,,,,,10,14,2,2024-10-31_11h01.37.967,uWM_experiment,2022.2.3,59.99779208
,,,,,,,,,,,,,,,,,,,,1,0,1,0,1,0,1,0,,,,,,,,,,,,,,,,,,,,,,,,,,,,,,,,,,,,,,,,,,,,,,,,,,,,,,,,,,,,,,,,,,,,,,0.133170229,,,,,,,,,,,,,,,,,,,,,,,,,,,,left,0,130,30,160,1,756.2145904,756.2145904,756.2145904,None,None,3,0,1.8972442,,,,,,,,,,,,,,,,,,,,,,10,14,2,2024-10-31_11h01.37.967,uWM_experiment,2022.2.3,59.99779208
,,,,,,,,,,,,,,,,,,,,1,0,1,0,2,0,2,0,,,,,,,,,,,,,,,,,,,,,,,,,,,,,,,,,,,,,,,,,,,,,,,,,,,,,,,,,,,,,,,,,,,,,,0.123170229,,,,,,,,,,,,,,,,,,,,,,,,,,,,left,1,160,-30,130,1,764.0982551,764.0982551,764.0982551,None,None,2,0,0.7815849,,,,,,,,,,,,,,,,,,,,,,10,14,2,2024-10-31_11h01.37.967,uWM_experiment,2022.2.3,59.99779208
,,,,,,,,,,,,,,,,,,,,1,0,1,0,3,0,3,0,,,,,,,,,,,,,,,,,,,,,,,,,,,,,,,,,,,,,,,,,,,,,,,,,,,,,,,,,,,,,,,,,,,,,,0.113170229,,,,,,,,,,,,,,,,,,,,,,,,,,,,right,1,160,30,190,1,770.8985627,770.8985627,770.8985627,None,None,2,0,1.213268,,,,,,,,,,,,,,,,,,,,,,10,14,2,2024-10-31_11h01.37.967,uWM_experiment,2022.2.3,59.99779208
,,,,,,,,,,,,,,,,,,,,1,0,1,0,4,0,4,0,,,,,,,,,,,,,,,,,,,,,,,,,,,,,,,,,,,,,,,,,,,,,,,,,,,,,,,,,,,,,,,,,,,,,,0.103170229,,,,,,,,,,,,,,,,,,,,,,,,,,,,right,1,160,30,190,1,778.7489089,778.7489089,778.7489089,None,None,2,0,2.3949363,,,,,,,,,,,,,,,,,,,,,,10,14,2,2024-10-31_11h01.37.967,uWM_experiment,2022.2.3,59.99779208
,,,,,,,,,,,,,,,,,,,,1,0,1,0,5,0,5,0,,,,,,,,,,,,,,,,,,,,,,,,,,,,,,,,,,,,,,,,,,,,,,,,,,,,,,,,,,,,,,,,,,,,,,0,,,,,,,,,,,,,,,,,,,,,,,,,,,,left,1,100,-30,70,0,794.8996362,794.8996362,794.8996362,None,None,1,1,0.7322231,,,,,,,,,,,,,,,,,,,,,,10,14,2,2024-10-31_11h01.37.967,uWM_experiment,2022.2.3,59.99779208
,,,,,,,,,,,,,,,,,,,,1,0,1,0,6,0,6,0,,,,,,,,,,,,,,,,,,,,,,,,,,,,,,,,,,,,,,,,,,,,,,,,,,,,,,,,,,,,,,,,,,,,,,0,,,,,,,,,,,,,,,,,,,,,,,,,,,,left,1,70,-30,40,0,802.8333362,802.8333362,802.8333362,None,None,1,1,1.7184485,,,,,,,,,,,,,,,,,,,,,,10,14,2,2024-10-31_11h01.37.967,uWM_experiment,2022.2.3,59.99779208
,,,,,,,,,,,,,,,,,,,,1,0,1,0,7,0,7,0,,,,,,,,,,,,,,,,,,,,,,,,,,,,,,,,,,,,,,,,,,,,,,,,,,,,,,,,,,,,,,,,,,,,,,0,,,,,,,,,,,,,,,,,,,,,,,,,,,,right,1,100,30,130,0,812.0170747,812.0170747,812.0170747,None,None,2,0,0.5586806,,,,,,,,,,,,,,,,,,,,,,10,14,2,2024-10-31_11h01.37.967,uWM_experiment,2022.2.3,59.99779208
,,,,,,,,,,,,,,,,,,,,1,0,1,0,8,0,8,0,,,,,,,,,,,,,,,,,,,,,,,,,,,,,,,,,,,,,,,,,,,,,,,,,,,,,,,,,,,,,,,,,,,,,,0.093170229,,,,,,,,,,,,,,,,,,,,,,,,,,,,right,0,70,-30,40,1,818.4507211,818.4507211,818.4507211,None,None,2,0,0.685053,,,,,,,,,,,,,,,,,,,,,,10,14,2,2024-10-31_11h01.37.967,uWM_experiment,2022.2.3,59.99779208
,,,,,,,,,,,,,,,,,,,,1,0,1,0,9,0,9,0,,,,,,,,,,,,,,,,,,,,,,,,,,,,,,,,,,,,,,,,,,,,,,,,,,,,,,,,,,,,,,,,,,,,,,0.083170229,,,,,,,,,,,,,,,,,,,,,,,,,,,,left,0,130,30,160,1,824.801017,824.801017,824.801017,None,None,2,0,0.4387017,,,,,,,,,,,,,,,,,,,,,,10,14,2,2024-10-31_11h01.37.967,uWM_experiment,2022.2.3,59.99779208
,,,,,,,,,,,,,,,,,,,,1,0,1,0,10,0,10,0,,,,,,,,,,,,,,,,,,,,,,,,,,,,,,,,,,,,,,,,,,,,,,,,,,,,,,,,,,,,,,,,,,,,,,0.1,,,,,,,,,,,,,,,,,,,,,,,,,,,,left,1,10,-30,-20,2,832.2513304,832.2513304,832.2513304,None,None,1,1,0.9325238,,,,,,,,,,,,,,,,,,,,,,10,14,2,2024-10-31_11h01.37.967,uWM_experiment,2022.2.3,59.99779208
,,,,,,,,,,,,,,,,,,,,1,0,1,0,11,0,11,0,,,,,,,,,,,,,,,,,,,,,,,,,,,,,,,,,,,,,,,,,,,,,,,,,,,,,,,,,,,,,,,,,,,,,,0.1,,,,,,,,,,,,,,,,,,,,,,,,,,,,right,0,40,-30,10,2,839.5016566,839.5016566,839.5016566,None,None,2,0,0.4340806,,,,,,,,,,,,,,,,,,,,,,10,14,2,2024-10-31_11h01.37.967,uWM_experiment,2022.2.3,59.99779208
,,,,,,,,,,,,,,,,,,,,1,0,1,0,12,0,12,0,,,,,,,,,,,,,,,,,,,,,,,,,,,,,,,,,,,,,,,,,,,,,,,,,,,,,,,,,,,,,,,,,,,,,,0.073170229,,,,,,,,,,,,,,,,,,,,,,,,,,,,right,1,40,30,70,1,845.7185949,845.7185949,845.7185949,None,None,1,1,0.2491949,,,,,,,,,,,,,,,,,,,,,,10,14,2,2024-10-31_11h01.37.967,uWM_experiment,2022.2.3,59.99779208
,,,,,,,,,,,,,,,,,,,,1,0,1,0,13,0,13,0,,,,,,,,,,,,,,,,,,,,,,,,,,,,,,,,,,,,,,,,,,,,,,,,,,,,,,,,,,,,,,,,,,,,,,0.083170229,,,,,,,,,,,,,,,,,,,,,,,,,,,,left,0,70,30,100,1,851.8522137,851.8522137,851.8522137,None,None,1,1,0.2996643,,,,,,,,,,,,,,,,,,,,,,10,14,2,2024-10-31_11h01.37.967,uWM_experiment,2022.2.3,59.99779208
,,,,,,,,,,,,,,,,,,,,1,0,1,0,14,0,14,0,,,,,,,,,,,,,,,,,,,,,,,,,,,,,,,,,,,,,,,,,,,,,,,,,,,,,,,,,,,,,,,,,,,,,,0.093170229,,,,,,,,,,,,,,,,,,,,,,,,,,,,right,0,100,-30,70,1,857.8858154,857.8858154,857.8858154,None,None,2,0,0.5940195,,,,,,,,,,,,,,,,,,,,,,10,14,2,2024-10-31_11h01.37.967,uWM_experiment,2022.2.3,59.99779208
,,,,,,,,,,,,,,,,,,,,1,0,1,0,15,0,15,0,,,,,,,,,,,,,,,,,,,,,,,,,,,,,,,,,,,,,,,,,,,,,,,,,,,,,,,,,,,,,,,,,,,,,,0,,,,,,,,,,,,,,,,,,,,,,,,,,,,right,1,10,30,40,0,864.4694308,864.4694308,864.4694308,None,None,1,1,0.306379,,,,,,,,,,,,,,,,,,,,,,10,14,2,2024-10-31_11h01.37.967,uWM_experiment,2022.2.3,59.99779208
,,,,,,,,,,,,,,,,,,,,1,0,1,0,16,0,16,0,,,,,,,,,,,,,,,,,,,,,,,,,,,,,,,,,,,,,,,,,,,,,,,,,,,,,,,,,,,,,,,,,,,,,,0.083170229,,,,,,,,,,,,,,,,,,,,,,,,,,,,right,0,10,-30,-20,1,875.8032964,875.8032964,875.8032964,None,None,3,0,1.6844478,,,,,,,,,,,,,,,,,,,,,,10,14,2,2024-10-31_11h01.37.967,uWM_experiment,2022.2.3,59.99779208
,,,,,,,,,,,,,,,,,,,,1,0,1,0,17,0,17,0,,,,,,,,,,,,,,,,,,,,,,,,,,,,,,,,,,,,,,,,,,,,,,,,,,,,,,,,,,,,,,,,,,,,,,0,,,,,,,,,,,,,,,,,,,,,,,,,,,,left,1,130,-30,100,0,886.9704411,886.9704411,886.9704411,None,None,1,1,0.7734682,,,,,,,,,,,,,,,,,,,,,,10,14,2,2024-10-31_11h01.37.967,uWM_experiment,2022.2.3,59.99779208
,,,,,,,,,,,,,,,,,,,,1,0,1,0,18,0,18,0,,,,,,,,,,,,,,,,,,,,,,,,,,,,,,,,,,,,,,,,,,,,,,,,,,,,,,,,,,,,,,,,,,,,,,0.073170229,,,,,,,,,,,,,,,,,,,,,,,,,,,,left,1,160,-30,130,1,894.9208113,894.9208113,894.9208113,None,None,1,1,0.4709719,,,,,,,,,,,,,,,,,,,,,,10,14,2,2024-10-31_11h01.37.967,uWM_experiment,2022.2.3,59.99779208
,,,,,,,,,,,,,,,,,,,,1,0,1,0,19,0,19,0,,,,,,,,,,,,,,,,,,,,,,,,,,,,,,,,,,,,,,,,,,,,,,,,,,,,,,,,,,,,,,,,,,,,,,0.083170229,,,,,,,,,,,,,,,,,,,,,,,,,,,,left,1,160,-30,130,1,901.3544329,901.3544329,901.3544329,None,None,2,0,0.2692513,,,,,,,,,,,,,,,,,,,,,,10,14,2,2024-10-31_11h01.37.967,uWM_experiment,2022.2.3,59.99779208
,,,,,,,,,,,,,,,,,,,,1,0,1,0,20,0,20,0,,,,,,,,,,,,,,,,,,,,,,,,,,,,,,,,,,,,,,,,,,,,,,,,,,,,,,,,,,,,,,,,,,,,,,0.073170229,,,,,,,,,,,,,,,,,,,,,,,,,,,,left,1,130,-30,100,1,907.4047056,907.4047056,907.4047056,None,None,2,0,0.619096,,,,,,,,,,,,,,,,,,,,,,10,14,2,2024-10-31_11h01.37.967,uWM_experiment,2022.2.3,59.99779208
,,,,,,,,,,,,,,,,,,,,1,0,1,0,21,0,21,0,,,,,,,,,,,,,,,,,,,,,,,,,,,,,,,,,,,,,,,,,,,,,,,,,,,,,,,,,,,,,,,,,,,,,,0.063170229,,,,,,,,,,,,,,,,,,,,,,,,,,,,right,0,100,-30,70,1,913.6216607,913.6216607,913.6216607,None,None,2,0,0.4662217,,,,,,,,,,,,,,,,,,,,,,10,14,2,2024-10-31_11h01.37.967,uWM_experiment,2022.2.3,59.99779208
,,,,,,,,,,,,,,,,,,,,1,0,1,0,22,0,22,0,,,,,,,,,,,,,,,,,,,,,,,,,,,,,,,,,,,,,,,,,,,,,,,,,,,,,,,,,,,,,,,,,,,,,,0.053170229,,,,,,,,,,,,,,,,,,,,,,,,,,,,right,1,10,30,40,1,919.871938,919.871938,919.871938,None,None,2,0,0.8878279,,,,,,,,,,,,,,,,,,,,,,10,14,2,2024-10-31_11h01.37.967,uWM_experiment,2022.2.3,59.99779208
,,,,,,,,,,,,,,,,,,,,1,0,1,0,23,0,23,0,,,,,,,,,,,,,,,,,,,,,,,,,,,,,,,,,,,,,,,,,,,,,,,,,,,,,,,,,,,,,,,,,,,,,,0.043170229,,,,,,,,,,,,,,,,,,,,,,,,,,,,left,1,70,-30,40,1,927.0722476,927.0722476,927.0722476,None,None,1,1,0.6076391,,,,,,,,,,,,,,,,,,,,,,10,14,2,2024-10-31_11h01.37.967,uWM_experiment,2022.2.3,59.99779208
,,,,,,,,,,,,,,,,,,,,1,0,1,0,,,,,0,0,0,0,,,,,,,,,,,,,,,,,,,,,,,,,,,,,,,,,,,,,,,,,,,,,,,,,,,,,,,,,,,,,,,,,,,,,,,,,,,,,,,,,,,,,,,,,,,,,,,,,,,,,,,,,,,,927.7055903,927.7055903,space,95.494429,None,None,,,,,,,,,,,,,,,,10,14,2,2024-10-31_11h01.37.967,uWM_experiment,2022.2.3,59.99779208
,,,,,,,,,,,,,,,,,,,,1,0,1,0,,,,,1,0,1,0,,,,,,,,,,,,,,,,,,,,,,,,,,,,,,,,,,,,,,,,,,,,,,,,,,,,,,,,,,,,,,,,,,,,,,,,,,,,,,,,,,,,,,,,,,,,,,,,,,,,,,,,,,,,,,,,,,,,,,,,,,,,,,,,,10,14,2,2024-10-31_11h01.37.967,uWM_experiment,2022.2.3,59.99779208
,,,,,,,,,,,,,,,,,,,,1,0,1,0,,,,,2,0,2,0,,,,,,,,,,,,,,,,,,,,,,,,,,,,,,,,,,,,,,,,,,,,,,,,,,,,,,,,,,,,,,,,,,,,,,,,,,,,,,,,,,,,,,,,,,,,,,,,,,,,,,,,,,,,,,,,,,,,,,,,,,,,,,,,,10,14,2,2024-10-31_11h01.37.967,uWM_experiment,2022.2.3,59.99779208
,,,,,,,,,,,,,,,,,,,,2,0,2,0,0,0,0,0,,,,,,,,,,,,,,,,,,,,,,,,,,,,,,,,,,,,,,,,,,,,,,,,,,,,,,,,,,,,,,,,,,,,,,0.053170229,,,,,,,,,,,,,,,,,,,,1023.226556,1023.92659,1024.226596,1024.926627,1025.226644,1025.926674,1025.926674,1026.243359,left,1,160,-30,130,1,1031.843623,1031.843623,1031.843623,None,None,1,1,0.4283123,,,,,,,None,,,,,,,,,,,,,,,10,14,2,2024-10-31_11h01.37.967,uWM_experiment,2022.2.3,59.99779208
,,,,,,,,,,,,,,,,,,,,2,0,2,0,1,0,1,0,,,,,,,,,,,,,,,,,,,,,,,,,,,,,,,,,,,,,,,,,,,,,,,,,,,,,,,,,,,,,,,,,,,,,,0.063170229,,,,,,,,,,,,,,,,,,,,,,,,,,,,right,1,130,30,160,1,1039.593978,1039.593978,1039.593978,None,None,1,1,0.9899244,,,,,,,,,,,,,,,,,,,,,,10,14,2,2024-10-31_11h01.37.967,uWM_experiment,2022.2.3,59.99779208
,,,,,,,,,,,,,,,,,,,,2,0,2,0,2,0,2,0,,,,,,,,,,,,,,,,,,,,,,,,,,,,,,,,,,,,,,,,,,,,,,,,,,,,,,,,,,,,,,,,,,,,,,0.073170229,,,,,,,,,,,,,,,,,,,,,,,,,,,,right,0,70,-30,40,1,1046.910947,1046.910947,1046.910947,None,None,1,1,0.2249862,,,,,,,,,,,,,,,,,,,,,,10,14,2,2024-10-31_11h01.37.967,uWM_experiment,2022.2.3,59.99779208
,,,,,,,,,,,,,,,,,,,,2,0,2,0,3,0,3,0,,,,,,,,,,,,,,,,,,,,,,,,,,,,,,,,,,,,,,,,,,,,,,,,,,,,,,,,,,,,,,,,,,,,,,0,,,,,,,,,,,,,,,,,,,,,,,,,,,,left,0,130,30,160,0,1052.89458,1052.89458,1052.89458,None,None,1,1,0.2093177,,,,,,,,,,,,,,,,,,,,,,10,14,2,2024-10-31_11h01.37.967,uWM_experiment,2022.2.3,59.99779208
,,,,,,,,,,,,,,,,,,,,2,0,2,0,4,0,4,0,,,,,,,,,,,,,,,,,,,,,,,,,,,,,,,,,,,,,,,,,,,,,,,,,,,,,,,,,,,,,,,,,,,,,,0.083170229,,,,,,,,,,,,,,,,,,,,,,,,,,,,right,1,10,30,40,1,1058.944876,1058.944876,1058.944876,None,None,1,1,0.4869733,,,,,,,,,,,,,,,,,,,,,,10,14,2,2024-10-31_11h01.37.967,uWM_experiment,2022.2.3,59.99779208
,,,,,,,,,,,,,,,,,,,,2,0,2,0,5,0,5,0,,,,,,,,,,,,,,,,,,,,,,,,,,,,,,,,,,,,,,,,,,,,,,,,,,,,,,,,,,,,,,,,,,,,,,0.093170229,,,,,,,,,,,,,,,,,,,,,,,,,,,,left,1,10,-30,-20,1,1065.328454,1065.328454,1065.328454,None,None,1,1,0.2873668,,,,,,,,,,,,,,,,,,,,,,10,14,2,2024-10-31_11h01.37.967,uWM_experiment,2022.2.3,59.99779208
,,,,,,,,,,,,,,,,,,,,2,0,2,0,6,0,6,0,,,,,,,,,,,,,,,,,,,,,,,,,,,,,,,,,,,,,,,,,,,,,,,,,,,,,,,,,,,,,,,,,,,,,,0,,,,,,,,,,,,,,,,,,,,,,,,,,,,left,0,100,30,130,0,1071.312049,1071.312049,1071.312049,None,None,2,0,0.4878223,,,,,,,,,,,,,,,,,,,,,,10,14,2,2024-10-31_11h01.37.967,uWM_experiment,2022.2.3,59.99779208
,,,,,,,,,,,,,,,,,,,,2,0,2,0,7,0,7,0,,,,,,,,,,,,,,,,,,,,,,,,,,,,,,,,,,,,,,,,,,,,,,,,,,,,,,,,,,,,,,,,,,,,,,0.103170229,,,,,,,,,,,,,,,,,,,,,,,,,,,,left,0,70,30,100,1,1078.295713,1078.295713,1078.295713,None,None,1,1,0.7441631,,,,,,,,,,,,,,,,,,,,,,10,14,2,2024-10-31_11h01.37.967,uWM_experiment,2022.2.3,59.99779208
,,,,,,,,,,,,,,,,,,,,2,0,2,0,8,0,8,0,,,,,,,,,,,,,,,,,,,,,,,,,,,,,,,,,,,,,,,,,,,,,,,,,,,,,,,,,,,,,,,,,,,,,,0,,,,,,,,,,,,,,,,,,,,,,,,,,,,left,0,70,30,100,0,1084.579351,1084.579351,1084.579351,None,None,2,0,0.4365349,,,,,,,,,,,,,,,,,,,,,,10,14,2,2024-10-31_11h01.37.967,uWM_experiment,2022.2.3,59.99779208
,,,,,,,,,,,,,,,,,,,,2,0,2,0,9,0,9,0,,,,,,,,,,,,,,,,,,,,,,,,,,,,,,,,,,,,,,,,,,,,,,,,,,,,,,,,,,,,,,,,,,,,,,0.113170229,,,,,,,,,,,,,,,,,,,,,,,,,,,,right,0,70,-30,40,1,1090.896286,1090.896286,1090.896286,None,None,2,0,0.6875703,,,,,,,,,,,,,,,,,,,,,,10,14,2,2024-10-31_11h01.37.967,uWM_experiment,2022.2.3,59.99779208
,,,,,,,,,,,,,,,,,,,,2,0,2,0,10,0,10,0,,,,,,,,,,,,,,,,,,,,,,,,,,,,,,,,,,,,,,,,,,,,,,,,,,,,,,,,,,,,,,,,,,,,,,0.103170229,,,,,,,,,,,,,,,,,,,,,,,,,,,,left,1,130,-30,100,1,1097.346544,1097.346544,1097.346544,None,None,1,1,0.6133757,,,,,,,,,,,,,,,,,,,,,,10,14,2,2024-10-31_11h01.37.967,uWM_experiment,2022.2.3,59.99779208
,,,,,,,,,,,,,,,,,,,,2,0,2,0,11,0,11,0,,,,,,,,,,,,,,,,,,,,,,,,,,,,,,,,,,,,,,,,,,,,,,,,,,,,,,,,,,,,,,,,,,,,,,0.113170229,,,,,,,,,,,,,,,,,,,,,,,,,,,,left,1,10,-30,-20,1,1104.046877,1104.046877,1104.046877,None,None,2,0,0.9049991,,,,,,,,,,,,,,,,,,,,,,10,14,2,2024-10-31_11h01.37.967,uWM_experiment,2022.2.3,59.99779208
,,,,,,,,,,,,,,,,,,,,2,0,2,0,12,0,12,0,,,,,,,,,,,,,,,,,,,,,,,,,,,,,,,,,,,,,,,,,,,,,,,,,,,,,,,,,,,,,,,,,,,,,,0,,,,,,,,,,,,,,,,,,,,,,,,,,,,left,1,70,-30,40,0,1111.097165,1111.097165,1111.097165,None,None,1,1,0.3670902,,,,,,,,,,,,,,,,,,,,,,10,14,2,2024-10-31_11h01.37.967,uWM_experiment,2022.2.3,59.99779208
,,,,,,,,,,,,,,,,,,,,2,0,2,0,13,0,13,0,,,,,,,,,,,,,,,,,,,,,,,,,,,,,,,,,,,,,,,,,,,,,,,,,,,,,,,,,,,,,,,,,,,,,,0,,,,,,,,,,,,,,,,,,,,,,,,,,,,left,1,130,-30,100,0,1117.430807,1117.430807,1117.430807,None,None,1,1,0.2811621,,,,,,,,,,,,,,,,,,,,,,10,14,2,2024-10-31_11h01.37.967,uWM_experiment,2022.2.3,59.99779208
,,,,,,,,,,,,,,,,,,,,2,0,2,0,14,0,14,0,,,,,,,,,,,,,,,,,,,,,,,,,,,,,,,,,,,,,,,,,,,,,,,,,,,,,,,,,,,,,,,,,,,,,,0.103170229,,,,,,,,,,,,,,,,,,,,,,,,,,,,right,0,100,-30,70,1,1124.11439,1124.11439,1124.11439,None,None,1,1,1.1815925,,,,,,,,,,,,,,,,,,,,,,10,14,2,2024-10-31_11h01.37.967,uWM_experiment,2022.2.3,59.99779208
,,,,,,,,,,,,,,,,,,,,2,0,2,0,15,0,15,0,,,,,,,,,,,,,,,,,,,,,,,,,,,,,,,,,,,,,,,,,,,,,,,,,,,,,,,,,,,,,,,,,,,,,,0.113170229,,,,,,,,,,,,,,,,,,,,,,,,,,,,right,1,40,30,70,1,1133.664884,1133.664884,1133.664884,None,None,2,0,0.4790239,,,,,,,,,,,,,,,,,,,,,,10,14,2,2024-10-31_11h01.37.967,uWM_experiment,2022.2.3,59.99779208
,,,,,,,,,,,,,,,,,,,,2,0,2,0,16,0,16,0,,,,,,,,,,,,,,,,,,,,,,,,,,,,,,,,,,,,,,,,,,,,,,,,,,,,,,,,,,,,,,,,,,,,,,0.103170229,,,,,,,,,,,,,,,,,,,,,,,,,,,,left,0,70,30,100,1,1140.098468,1140.098468,1140.098468,None,None,1,1,0.2455527,,,,,,,,,,,,,,,,,,,,,,10,14,2,2024-10-31_11h01.37.967,uWM_experiment,2022.2.3,59.99779208
,,,,,,,,,,,,,,,,,,,,2,0,2,0,17,0,17,0,,,,,,,,,,,,,,,,,,,,,,,,,,,,,,,,,,,,,,,,,,,,,,,,,,,,,,,,,,,,,,,,,,,,,,0.113170229,,,,,,,,,,,,,,,,,,,,,,,,,,,,left,0,130,30,160,1,1147.298849,1147.298849,1147.298849,None,None,2,0,0.2931023,,,,,,,,,,,,,,,,,,,,,,10,14,2,2024-10-31_11h01.37.967,uWM_experiment,2022.2.3,59.99779208
,,,,,,,,,,,,,,,,,,,,2,0,2,0,18,0,18,0,,,,,,,,,,,,,,,,,,,,,,,,,,,,,,,,,,,,,,,,,,,,,,,,,,,,,,,,,,,,,,,,,,,,,,0.103170229,,,,,,,,,,,,,,,,,,,,,,,,,,,,left,0,130,30,160,1,1153.249093,1153.249093,1153.249093,None,None,1,1,0.2149089,,,,,,,,,,,,,,,,,,,,,,10,14,2,2024-10-31_11h01.37.967,uWM_experiment,2022.2.3,59.99779208
,,,,,,,,,,,,,,,,,,,,2,0,2,0,19,0,19,0,,,,,,,,,,,,,,,,,,,,,,,,,,,,,,,,,,,,,,,,,,,,,,,,,,,,,,,,,,,,,,,,,,,,,,0.113170229,,,,,,,,,,,,,,,,,,,,,,,,,,,,right,1,10,30,40,1,1159.28267,1159.28267,1159.28267,None,None,1,1,0.485234,,,,,,,,,,,,,,,,,,,,,,10,14,2,2024-10-31_11h01.37.967,uWM_experiment,2022.2.3,59.99779208
,,,,,,,,,,,,,,,,,,,,2,0,2,0,20,0,20,0,,,,,,,,,,,,,,,,,,,,,,,,,,,,,,,,,,,,,,,,,,,,,,,,,,,,,,,,,,,,,,,,,,,,,,0,,,,,,,,,,,,,,,,,,,,,,,,,,,,right,0,10,-30,-20,0,1165.749647,1165.749647,1165.749647,None,None,1,1,0.2502856,,,,,,,,,,,,,,,,,,,,,,10,14,2,2024-10-31_11h01.37.967,uWM_experiment,2022.2.3,59.99779208
,,,,,,,,,,,,,,,,,,,,2,0,2,0,21,0,21,0,,,,,,,,,,,,,,,,,,,,,,,,,,,,,,,,,,,,,,,,,,,,,,,,,,,,,,,,,,,,,,,,,,,,,,0.123170229,,,,,,,,,,,,,,,,,,,,,,,,,,,,right,1,10,30,40,1,1171.766557,1171.766557,1171.766557,None,None,2,0,0.3294246,,,,,,,,,,,,,,,,,,,,,,10,14,2,2024-10-31_11h01.37.967,uWM_experiment,2022.2.3,59.99779208
,,,,,,,,,,,,,,,,,,,,2,0,2,0,22,0,22,0,,,,,,,,,,,,,,,,,,,,,,,,,,,,,,,,,,,,,,,,,,,,,,,,,,,,,,,,,,,,,,,,,,,,,,0,,,,,,,,,,,,,,,,,,,,,,,,,,,,left,1,160,-30,130,0,1178.116863,1178.116863,1178.116863,None,None,1,1,0.4110743,,,,,,,,,,,,,,,,,,,,,,10,14,2,2024-10-31_11h01.37.967,uWM_experiment,2022.2.3,59.99779208
,,,,,,,,,,,,,,,,,,,,2,0,2,0,23,0,23,0,,,,,,,,,,,,,,,,,,,,,,,,,,,,,,,,,,,,,,,,,,,,,,,,,,,,,,,,,,,,,,,,,,,,,,0.113170229,,,,,,,,,,,,,,,,,,,,,,,,,,,,right,0,70,-30,40,1,1184.067132,1184.067132,1184.067132,None,None,2,0,0.6608923,,,,,,,,,,,,,,,,,,,,,,10,14,2,2024-10-31_11h01.37.967,uWM_experiment,2022.2.3,59.99779208
,,,,,,,,,,,,,,,,,,,,2,0,2,0,,,,,0,0,0,0,,,,,,,,,,,,,,,,,,,,,,,,,,,,,,,,,,,,,,,,,,,,,,,,,,,,,,,,,,,,,,,,,,,,,,,,,,,,,,,,,,,,,,,,,,,,,,,,,,,,,,,,,,,,1184.750477,1184.750477,space,3.3934901,space,None,,1188.167291,1188.167291,1.3447912,,,,,,,,,,,,10,14,2,2024-10-31_11h01.37.967,uWM_experiment,2022.2.3,59.99779208
,,,,,,,,,,,,,,,,,,,,2,0,2,0,,,,,1,0,1,0,,,,,,,,,,,,,,,,,,,,,,,,,,,,,,,,,,,,,,,,,,,,,,,,,,,,,,,,,,,,,,,,,,,,,,,,,,,,,,,,,,,,,,,,,,,,,,,,,,,,,,,,,,,,,,,,,,,,,,,,,,,,,,,,,10,14,2,2024-10-31_11h01.37.967,uWM_experiment,2022.2.3,59.99779208
,,,,,,,,,,,,,,,,,,,,2,0,2,0,,,,,2,0,2,0,,,,,,,,,,,,,,,,,,,,,,,,,,,,,,,,,,,,,,,,,,,,,,,,,,,,,,,,,,,,,,,,,,,,,,,,,,,,,,,,,,,,,,,,,,,,,,,,,,,,,,,,,,,,,,,,,,,,,,,,,,,,,,,,,10,14,2,2024-10-31_11h01.37.967,uWM_experiment,2022.2.3,59.99779208
,,,,,,,,,,,,,,,,,,,,3,0,3,0,0,0,0,0,,,,,,,,,,,,,,,,,,,,,,,,,,,,,,,,,,,,,,,,,,,,,,,,,,,,,,,,,,,,,,,,,,,,,,0,,,,,,,,,,,,,,,,,,,,1189.534012,1190.234055,1190.534069,1191.234117,1191.534117,1192.234139,1192.234139,1192.550839,right,0,100,-30,70,0,1197.28439,1197.28439,1197.28439,None,None,1,1,2.1396907,,,,,,,None,,,,,,,,,,,,,,,10,14,2,2024-10-31_11h01.37.967,uWM_experiment,2022.2.3,59.99779208
,,,,,,,,,,,,,,,,,,,,3,0,3,0,1,0,1,0,,,,,,,,,,,,,,,,,,,,,,,,,,,,,,,,,,,,,,,,,,,,,,,,,,,,,,,,,,,,,,,,,,,,,,0,,,,,,,,,,,,,,,,,,,,,,,,,,,,right,1,70,30,100,0,1208.818235,1208.818235,1208.818235,None,None,1,1,0.5497764,,,,,,,,,,,,,,,,,,,,,,10,14,2,2024-10-31_11h01.37.967,uWM_experiment,2022.2.3,59.99779208
,,,,,,,,,,,,,,,,,,,,3,0,3,0,2,0,2,0,,,,,,,,,,,,,,,,,,,,,,,,,,,,,,,,,,,,,,,,,,,,,,,,,,,,,,,,,,,,,,,,,,,,,,0.103170229,,,,,,,,,,,,,,,,,,,,,,,,,,,,right,0,70,-30,40,1,1216.318572,1216.318572,1216.318572,None,None,1,1,0.9055429,,,,,,,,,,,,,,,,,,,,,,10,14,2,2024-10-31_11h01.37.967,uWM_experiment,2022.2.3,59.99779208
,,,,,,,,,,,,,,,,,,,,3,0,3,0,3,0,3,0,,,,,,,,,,,,,,,,,,,,,,,,,,,,,,,,,,,,,,,,,,,,,,,,,,,,,,,,,,,,,,,,,,,,,,0.113170229,,,,,,,,,,,,,,,,,,,,,,,,,,,,left,0,40,30,70,1,1226.335682,1226.335682,1226.335682,None,None,1,1,0.7682881,,,,,,,,,,,,,,,,,,,,,,10,14,2,2024-10-31_11h01.37.967,uWM_experiment,2022.2.3,59.99779208
,,,,,,,,,,,,,,,,,,,,3,0,3,0,4,0,4,0,,,,,,,,,,,,,,,,,,,,,,,,,,,,,,,,,,,,,,,,,,,,,,,,,,,,,,,,,,,,,,,,,,,,,,0.123170229,,,,,,,,,,,,,,,,,,,,,,,,,,,,left,0,40,30,70,1,1233.052657,1233.052657,1233.052657,None,None,1,1,0.4835299,,,,,,,,,,,,,,,,,,,,,,10,14,2,2024-10-31_11h01.37.967,uWM_experiment,2022.2.3,59.99779208
,,,,,,,,,,,,,,,,,,,,3,0,3,0,5,0,5,0,,,,,,,,,,,,,,,,,,,,,,,,,,,,,,,,,,,,,,,,,,,,,,,,,,,,,,,,,,,,,,,,,,,,,,0,,,,,,,,,,,,,,,,,,,,,,,,,,,,right,0,100,-30,70,0,1239.202942,1239.202942,1239.202942,None,None,1,1,0.9491075,,,,,,,,,,,,,,,,,,,,,,10,14,2,2024-10-31_11h01.37.967,uWM_experiment,2022.2.3,59.99779208
,,,,,,,,,,,,,,,,,,,,3,0,3,0,6,0,6,0,,,,,,,,,,,,,,,,,,,,,,,,,,,,,,,,,,,,,,,,,,,,,,,,,,,,,,,,,,,,,,,,,,,,,,0,,,,,,,,,,,,,,,,,,,,,,,,,,,,left,0,100,30,130,0,1258.087124,1258.087124,1258.087124,None,None,1,1,0.5368897,,,,,,,,,,,,,,,,,,,,,,10,14,2,2024-10-31_11h01.37.967,uWM_experiment,2022.2.3,59.99779208
,,,,,,,,,,,,,,,,,,,,3,0,3,0,7,0,7,0,,,,,,,,,,,,,,,,,,,,,,,,,,,,,,,,,,,,,,,,,,,,,,,,,,,,,,,,,,,,,,,,,,,,,,0.133170229,,,,,,,,,,,,,,,,,,,,,,,,,,,,right,1,10,30,40,1,1264.854099,1264.854099,1264.854099,None,None,2,0,1.8259056,,,,,,,,,,,,,,,,,,,,,,10,14,2,2024-10-31_11h01.37.967,uWM_experiment,2022.2.3,59.99779208
,,,,,,,,,,,,,,,,,,,,3,0,3,0,8,0,8,0,,,,,,,,,,,,,,,,,,,,,,,,,,,,,,,,,,,,,,,,,,,,,,,,,,,,,,,,,,,,,,,,,,,,,,0.123170229,,,,,,,,,,,,,,,,,,,,,,,,,,,,right,1,40,30,70,1,1272.037747,1272.037747,1272.037747,None,None,1,1,0.3302645,,,,,,,,,,,,,,,,,,,,,,10,14,2,2024-10-31_11h01.37.967,uWM_experiment,2022.2.3,59.99779208
,,,,,,,,,,,,,,,,,,,,3,0,3,0,9,0,9,0,,,,,,,,,,,,,,,,,,,,,,,,,,,,,,,,,,,,,,,,,,,,,,,,,,,,,,,,,,,,,,,,,,,,,,0.133170229,,,,,,,,,,,,,,,,,,,,,,,,,,,,left,0,130,30,160,1,1280.538123,1280.538123,1280.538123,None,None,3,0,1.8140047,,,,,,,,,,,,,,,,,,,,,,10,14,2,2024-10-31_11h01.37.967,uWM_experiment,2022.2.3,59.99779208
,,,,,,,,,,,,,,,,,,,,3,0,3,0,10,0,10,0,,,,,,,,,,,,,,,,,,,,,,,,,,,,,,,,,,,,,,,,,,,,,,,,,,,,,,,,,,,,,,,,,,,,,,0.123170229,,,,,,,,,,,,,,,,,,,,,,,,,,,,right,0,70,-30,40,1,1289.955227,1289.955227,1289.955227,None,None,1,1,0.7170932,,,,,,,,,,,,,,,,,,,,,,10,14,2,2024-10-31_11h01.37.967,uWM_experiment,2022.2.3,59.99779208
,,,,,,,,,,,,,,,,,,,,3,0,3,0,11,0,11,0,,,,,,,,,,,,,,,,,,,,,,,,,,,,,,,,,,,,,,,,,,,,,,,,,,,,,,,,,,,,,,,,,,,,,,0.133170229,,,,,,,,,,,,,,,,,,,,,,,,,,,,left,0,130,30,160,1,1297.355565,1297.355565,1297.355565,None,None,1,1,0.7085136,,,,,,,,,,,,,,,,,,,,,,10,14,2,2024-10-31_11h01.37.967,uWM_experiment,2022.2.3,59.99779208
,,,,,,,,,,,,,,,,,,,,3,0,3,0,12,0,12,0,,,,,,,,,,,,,,,,,,,,,,,,,,,,,,,,,,,,,,,,,,,,,,,,,,,,,,,,,,,,,,,,,,,,,,0.143170229,,,,,,,,,,,,,,,,,,,,,,,,,,,,left,1,100,-30,70,1,1308.372709,1308.372709,1308.372709,None,None,1,1,1.6753332,,,,,,,,,,,,,,,,,,,,,,10,14,2,2024-10-31_11h01.37.967,uWM_experiment,2022.2.3,59.99779208
,,,,,,,,,,,,,,,,,,,,3,0,3,0,13,0,13,0,,,,,,,,,,,,,,,,,,,,,,,,,,,,,,,,,,,,,,,,,,,,,,,,,,,,,,,,,,,,,,,,,,,,,,0.153170229,,,,,,,,,,,,,,,,,,,,,,,,,,,,right,1,40,30,70,1,1316.239729,1316.239729,1316.239729,None,None,2,0,0.4084066,,,,,,,,,,,,,,,,,,,,,,10,14,2,2024-10-31_11h01.37.967,uWM_experiment,2022.2.3,59.99779208
,,,,,,,,,,,,,,,,,,,,3,0,3,0,14,0,14,0,,,,,,,,,,,,,,,,,,,,,,,,,,,,,,,,,,,,,,,,,,,,,,,,,,,,,,,,,,,,,,,,,,,,,,0,,,,,,,,,,,,,,,,,,,,,,,,,,,,left,1,130,-30,100,0,1322.273327,1322.273327,1322.273327,None,None,1,1,0.1986518,,,,,,,,,,,,,,,,,,,,,,10,14,2,2024-10-31_11h01.37.967,uWM_experiment,2022.2.3,59.99779208
,,,,,,,,,,,,,,,,,,,,3,0,3,0,15,0,15,0,,,,,,,,,,,,,,,,,,,,,,,,,,,,,,,,,,,,,,,,,,,,,,,,,,,,,,,,,,,,,,,,,,,,,,0.143170229,,,,,,,,,,,,,,,,,,,,,,,,,,,,right,1,40,30,70,1,1328.82362,1328.82362,1328.82362,None,None,2,0,0.5364055,,,,,,,,,,,,,,,,,,,,,,10,14,2,2024-10-31_11h01.37.967,uWM_experiment,2022.2.3,59.99779208
,,,,,,,,,,,,,,,,,,,,3,0,3,0,16,0,16,0,,,,,,,,,,,,,,,,,,,,,,,,,,,,,,,,,,,,,,,,,,,,,,,,,,,,,,,,,,,,,,,,,,,,,,0.133170229,,,,,,,,,,,,,,,,,,,,,,,,,,,,right,1,70,30,100,1,1335.407258,1335.407258,1335.407258,None,None,1,1,0.1847275,,,,,,,,,,,,,,,,,,,,,,10,14,2,2024-10-31_11h01.37.967,uWM_experiment,2022.2.3,59.99779208
,,,,,,,,,,,,,,,,,,,,3,0,3,0,17,0,17,0,,,,,,,,,,,,,,,,,,,,,,,,,,,,,,,,,,,,,,,,,,,,,,,,,,,,,,,,,,,,,,,,,,,,,,0,,,,,,,,,,,,,,,,,,,,,,,,,,,,right,1,160,30,190,0,1341.69088,1341.69088,1341.69088,None,None,2,0,0.6851516,,,,,,,,,,,,,,,,,,,,,,10,14,2,2024-10-31_11h01.37.967,uWM_experiment,2022.2.3,59.99779208
,,,,,,,,,,,,,,,,,,,,3,0,3,0,18,0,18,0,,,,,,,,,,,,,,,,,,,,,,,,,,,,,,,,,,,,,,,,,,,,,,,,,,,,,,,,,,,,,,,,,,,,,,0.143170229,,,,,,,,,,,,,,,,,,,,,,,,,,,,right,1,40,30,70,1,1348.124494,1348.124494,1348.124494,None,None,1,1,0.2916532,,,,,,,,,,,,,,,,,,,,,,10,14,2,2024-10-31_11h01.37.967,uWM_experiment,2022.2.3,59.99779208
,,,,,,,,,,,,,,,,,,,,3,0,3,0,19,0,19,0,,,,,,,,,,,,,,,,,,,,,,,,,,,,,,,,,,,,,,,,,,,,,,,,,,,,,,,,,,,,,,,,,,,,,,0,,,,,,,,,,,,,,,,,,,,,,,,,,,,right,0,40,-30,10,0,1355.674835,1355.674835,1355.674835,None,None,1,1,0.6293393,,,,,,,,,,,,,,,,,,,,,,10,14,2,2024-10-31_11h01.37.967,uWM_experiment,2022.2.3,59.99779208
,,,,,,,,,,,,,,,,,,,,3,0,3,0,20,0,20,0,,,,,,,,,,,,,,,,,,,,,,,,,,,,,,,,,,,,,,,,,,,,,,,,,,,,,,,,,,,,,,,,,,,,,,0,,,,,,,,,,,,,,,,,,,,,,,,,,,,left,0,100,30,130,0,1362.008455,1362.008455,1362.008455,None,None,1,1,0.2555331,,,,,,,,,,,,,,,,,,,,,,10,14,2,2024-10-31_11h01.37.967,uWM_experiment,2022.2.3,59.99779208
,,,,,,,,,,,,,,,,,,,,3,0,3,0,21,0,21,0,,,,,,,,,,,,,,,,,,,,,,,,,,,,,,,,,,,,,,,,,,,,,,,,,,,,,,,,,,,,,,,,,,,,,,0,,,,,,,,,,,,,,,,,,,,,,,,,,,,right,1,40,30,70,0,1367.775361,1367.775361,1367.775361,None,None,1,1,0.3447815,,,,,,,,,,,,,,,,,,,,,,10,14,2,2024-10-31_11h01.37.967,uWM_experiment,2022.2.3,59.99779208
,,,,,,,,,,,,,,,,,,,,3,0,3,0,22,0,22,0,,,,,,,,,,,,,,,,,,,,,,,,,,,,,,,,,,,,,,,,,,,,,,,,,,,,,,,,,,,,,,,,,,,,,,0.153170229,,,,,,,,,,,,,,,,,,,,,,,,,,,,right,1,160,30,190,1,1373.908986,1373.908986,1373.908986,None,None,2,0,0.6751518,,,,,,,,,,,,,,,,,,,,,,10,14,2,2024-10-31_11h01.37.967,uWM_experiment,2022.2.3,59.99779208
,,,,,,,,,,,,,,,,,,,,3,0,3,0,23,0,23,0,,,,,,,,,,,,,,,,,,,,,,,,,,,,,,,,,,,,,,,,,,,,,,,,,,,,,,,,,,,,,,,,,,,,,,0,,,,,,,,,,,,,,,,,,,,,,,,,,,,left,0,70,30,100,0,1380.709293,1380.709293,1380.709293,None,None,1,1,1.4589234,,,,,,,,,,,,,,,,,,,,,,10,14,2,2024-10-31_11h01.37.967,uWM_experiment,2022.2.3,59.99779208
,,,,,,,,,,,,,,,,,,,,3,0,3,0,,,,,0,0,0,0,,,,,,,,,,,,,,,,,,,,,,,,,,,,,,,,,,,,,,,,,,,,,,,,,,,,,,,,,,,,,,,,,,,,,,,,,,,,,,,,,,,,,,,,,,,,,,,,,,,,,,,,,,,,1382.19266,1382.19266,space,277.4956969,None,None,,,,,,,,,,,,,,,,10,14,2,2024-10-31_11h01.37.967,uWM_experiment,2022.2.3,59.99779208
,,,,,,,,,,,,,,,,,,,,3,0,3,0,,,,,1,0,1,0,,,,,,,,,,,,,,,,,,,,,,,,,,,,,,,,,,,,,,,,,,,,,,,,,,,,,,,,,,,,,,,,,,,,,,,,,,,,,,,,,,,,,,,,,,,,,,,,,,,,,,,,,,,,,,,,,,,,,,,,,,,,,,,,,10,14,2,2024-10-31_11h01.37.967,uWM_experiment,2022.2.3,59.99779208
,,,,,,,,,,,,,,,,,,,,3,0,3,0,,,,,2,0,2,0,,,,,,,,,,,,,,,,,,,,,,,,,,,,,,,,,,,,,,,,,,,,,,,,,,,,,,,,,,,,,,,,,,,,,,,,,,,,,,,,,,,,,,,,,,,,,,,,,,,,,,,,,,,,,,,,,,,,,,,,,,,,,,,,,10,14,2,2024-10-31_11h01.37.967,uWM_experiment,2022.2.3,59.99779208
,,,,,,,,,,,,,,,,,,,,4,0,4,0,0,0,0,0,,,,,,,,,,,,,,,,,,,,,,,,,,,,,,,,,,,,,,,,,,,,,,,,,,,,,,,,,,,,,,,,,,,,,,0,,,,,,,,,,,,,,,,,,,,1659.705122,1660.405154,1660.705197,1661.405197,1661.705209,1662.40522,1662.40522,1662.721947,left,1,70,-30,40,0,1667.405497,1667.405497,1667.405497,None,None,1,1,0.3387338,,,,,,,None,,,,,,,,,,,,,,,10,14,2,2024-10-31_11h01.37.967,uWM_experiment,2022.2.3,59.99779208
,,,,,,,,,,,,,,,,,,,,4,0,4,0,1,0,1,0,,,,,,,,,,,,,,,,,,,,,,,,,,,,,,,,,,,,,,,,,,,,,,,,,,,,,,,,,,,,,,,,,,,,,,0.143170229,,,,,,,,,,,,,,,,,,,,,,,,,,,,left,0,100,30,130,1,1673.30573,1673.30573,1673.30573,None,None,1,1,0.6704706,,,,,,,,,,,,,,,,,,,,,,10,14,2,2024-10-31_11h01.37.967,uWM_experiment,2022.2.3,59.99779208
,,,,,,,,,,,,,,,,,,,,4,0,4,0,2,0,2,0,,,,,,,,,,,,,,,,,,,,,,,,,,,,,,,,,,,,,,,,,,,,,,,,,,,,,,,,,,,,,,,,,,,,,,0.153170229,,,,,,,,,,,,,,,,,,,,,,,,,,,,right,1,130,30,160,1,1680.022721,1680.022721,1680.022721,None,None,1,1,0.4815203,,,,,,,,,,,,,,,,,,,,,,10,14,2,2024-10-31_11h01.37.967,uWM_experiment,2022.2.3,59.99779208
,,,,,,,,,,,,,,,,,,,,4,0,4,0,3,0,3,0,,,,,,,,,,,,,,,,,,,,,,,,,,,,,,,,,,,,,,,,,,,,,,,,,,,,,,,,,,,,,,,,,,,,,,0.163170229,,,,,,,,,,,,,,,,,,,,,,,,,,,,left,0,70,30,100,1,1686.289663,1686.289663,1686.289663,None,None,1,1,1.0945848,,,,,,,,,,,,,,,,,,,,,,10,14,2,2024-10-31_11h01.37.967,uWM_experiment,2022.2.3,59.99779208
,,,,,,,,,,,,,,,,,,,,4,0,4,0,4,0,4,0,,,,,,,,,,,,,,,,,,,,,,,,,,,,,,,,,,,,,,,,,,,,,,,,,,,,,,,,,,,,,,,,,,,,,,0.173170229,,,,,,,,,,,,,,,,,,,,,,,,,,,,left,0,130,30,160,1,1694.040016,1694.040016,1694.040016,None,None,1,1,0.3841824,,,,,,,,,,,,,,,,,,,,,,10,14,2,2024-10-31_11h01.37.967,uWM_experiment,2022.2.3,59.99779208
,,,,,,,,,,,,,,,,,,,,4,0,4,0,5,0,5,0,,,,,,,,,,,,,,,,,,,,,,,,,,,,,,,,,,,,,,,,,,,,,,,,,,,,,,,,,,,,,,,,,,,,,,0.183170229,,,,,,,,,,,,,,,,,,,,,,,,,,,,right,0,70,-30,40,1,1701.306989,1701.306989,1701.306989,None,None,1,1,0.6934141,,,,,,,,,,,,,,,,,,,,,,10,14,2,2024-10-31_11h01.37.967,uWM_experiment,2022.2.3,59.99779208
,,,,,,,,,,,,,,,,,,,,4,0,4,0,6,0,6,0,,,,,,,,,,,,,,,,,,,,,,,,,,,,,,,,,,,,,,,,,,,,,,,,,,,,,,,,,,,,,,,,,,,,,,0.193170229,,,,,,,,,,,,,,,,,,,,,,,,,,,,left,1,130,-30,100,1,1707.707285,1707.707285,1707.707285,None,None,1,1,0.3250681,,,,,,,,,,,,,,,,,,,,,,10,14,2,2024-10-31_11h01.37.967,uWM_experiment,2022.2.3,59.99779208
,,,,,,,,,,,,,,,,,,,,4,0,4,0,7,0,7,0,,,,,,,,,,,,,,,,,,,,,,,,,,,,,,,,,,,,,,,,,,,,,,,,,,,,,,,,,,,,,,,,,,,,,,0.203170229,,,,,,,,,,,,,,,,,,,,,,,,,,,,right,0,100,-30,70,1,1713.940915,1713.940915,1713.940915,None,None,1,1,0.5872858,,,,,,,,,,,,,,,,,,,,,,10,14,2,2024-10-31_11h01.37.967,uWM_experiment,2022.2.3,59.99779208
,,,,,,,,,,,,,,,,,,,,4,0,4,0,8,0,8,0,,,,,,,,,,,,,,,,,,,,,,,,,,,,,,,,,,,,,,,,,,,,,,,,,,,,,,,,,,,,,,,,,,,,,,0.213170229,,,,,,,,,,,,,,,,,,,,,,,,,,,,left,0,130,30,160,1,1721.691279,1721.691279,1721.691279,None,None,2,0,0.3730846,,,,,,,,,,,,,,,,,,,,,,10,14,2,2024-10-31_11h01.37.967,uWM_experiment,2022.2.3,59.99779208
,,,,,,,,,,,,,,,,,,,,4,0,4,0,9,0,9,0,,,,,,,,,,,,,,,,,,,,,,,,,,,,,,,,,,,,,,,,,,,,,,,,,,,,,,,,,,,,,,,,,,,,,,0,,,,,,,,,,,,,,,,,,,,,,,,,,,,right,0,40,-30,10,0,1727.741537,1727.741537,1727.741537,None,None,1,1,0.2506397,,,,,,,,,,,,,,,,,,,,,,10,14,2,2024-10-31_11h01.37.967,uWM_experiment,2022.2.3,59.99779208
,,,,,,,,,,,,,,,,,,,,4,0,4,0,10,0,10,0,,,,,,,,,,,,,,,,,,,,,,,,,,,,,,,,,,,,,,,,,,,,,,,,,,,,,,,,,,,,,,,,,,,,,,0.203170229,,,,,,,,,,,,,,,,,,,,,,,,,,,,right,1,40,30,70,1,1733.52511,1733.52511,1733.52511,None,None,1,1,0.2112199,,,,,,,,,,,,,,,,,,,,,,10,14,2,2024-10-31_11h01.37.967,uWM_experiment,2022.2.3,59.99779208
,,,,,,,,,,,,,,,,,,,,4,0,4,0,11,0,11,0,,,,,,,,,,,,,,,,,,,,,,,,,,,,,,,,,,,,,,,,,,,,,,,,,,,,,,,,,,,,,,,,,,,,,,0.213170229,,,,,,,,,,,,,,,,,,,,,,,,,,,,left,1,10,-30,-20,1,1739.875417,1739.875417,1739.875417,None,None,2,0,0.2207878,,,,,,,,,,,,,,,,,,,,,,10,14,2,2024-10-31_11h01.37.967,uWM_experiment,2022.2.3,59.99779208
,,,,,,,,,,,,,,,,,,,,4,0,4,0,12,0,12,0,,,,,,,,,,,,,,,,,,,,,,,,,,,,,,,,,,,,,,,,,,,,,,,,,,,,,,,,,,,,,,,,,,,,,,0.203170229,,,,,,,,,,,,,,,,,,,,,,,,,,,,left,0,100,30,130,1,1745.842344,1745.842344,1745.842344,None,None,1,1,0.1579588,,,,,,,,,,,,,,,,,,,,,,10,14,2,2024-10-31_11h01.37.967,uWM_experiment,2022.2.3,59.99779208
,,,,,,,,,,,,,,,,,,,,4,0,4,0,13,0,13,0,,,,,,,,,,,,,,,,,,,,,,,,,,,,,,,,,,,,,,,,,,,,,,,,,,,,,,,,,,,,,,,,,,,,,,0.213170229,,,,,,,,,,,,,,,,,,,,,,,,,,,,left,0,70,30,100,1,1751.709284,1751.709284,1751.709284,None,None,2,0,0.4750975,,,,,,,,,,,,,,,,,,,,,,10,14,2,2024-10-31_11h01.37.967,uWM_experiment,2022.2.3,59.99779208
,,,,,,,,,,,,,,,,,,,,4,0,4,0,14,0,14,0,,,,,,,,,,,,,,,,,,,,,,,,,,,,,,,,,,,,,,,,,,,,,,,,,,,,,,,,,,,,,,,,,,,,,,0.203170229,,,,,,,,,,,,,,,,,,,,,,,,,,,,left,0,100,30,130,1,1757.709539,1757.709539,1757.709539,None,None,1,1,0.5228438,,,,,,,,,,,,,,,,,,,,,,10,14,2,2024-10-31_11h01.37.967,uWM_experiment,2022.2.3,59.99779208
,,,,,,,,,,,,,,,,,,,,4,0,4,0,15,0,15,0,,,,,,,,,,,,,,,,,,,,,,,,,,,,,,,,,,,,,,,,,,,,,,,,,,,,,,,,,,,,,,,,,,,,,,0,,,,,,,,,,,,,,,,,,,,,,,,,,,,right,1,160,30,190,0,1764.059836,1764.059836,1764.059836,None,None,2,0,0.5484807,,,,,,,,,,,,,,,,,,,,,,10,14,2,2024-10-31_11h01.37.967,uWM_experiment,2022.2.3,59.99779208
,,,,,,,,,,,,,,,,,,,,4,0,4,0,16,0,16,0,,,,,,,,,,,,,,,,,,,,,,,,,,,,,,,,,,,,,,,,,,,,,,,,,,,,,,,,,,,,,,,,,,,,,,0.213170229,,,,,,,,,,,,,,,,,,,,,,,,,,,,left,1,160,-30,130,1,1770.243446,1770.243446,1770.243446,None,None,1,1,0.5408724,,,,,,,,,,,,,,,,,,,,,,10,14,2,2024-10-31_11h01.37.967,uWM_experiment,2022.2.3,59.99779208
,,,,,,,,,,,,,,,,,,,,4,0,4,0,17,0,17,0,,,,,,,,,,,,,,,,,,,,,,,,,,,,,,,,,,,,,,,,,,,,,,,,,,,,,,,,,,,,,,,,,,,,,,0.1,,,,,,,,,,,,,,,,,,,,,,,,,,,,left,1,130,-30,100,2,1777.893768,1777.893768,1777.893768,None,None,1,1,0.8745473,,,,,,,,,,,,,,,,,,,,,,10,14,2,2024-10-31_11h01.37.967,uWM_experiment,2022.2.3,59.99779208
,,,,,,,,,,,,,,,,,,,,4,0,4,0,18,0,18,0,,,,,,,,,,,,,,,,,,,,,,,,,,,,,,,,,,,,,,,,,,,,,,,,,,,,,,,,,,,,,,,,,,,,,,0.223170229,,,,,,,,,,,,,,,,,,,,,,,,,,,,left,1,40,-30,10,1,1788.777613,1788.777613,1788.777613,None,None,1,1,1.1506938,,,,,,,,,,,,,,,,,,,,,,10,14,2,2024-10-31_11h01.37.967,uWM_experiment,2022.2.3,59.99779208
,,,,,,,,,,,,,,,,,,,,4,0,4,0,19,0,19,0,,,,,,,,,,,,,,,,,,,,,,,,,,,,,,,,,,,,,,,,,,,,,,,,,,,,,,,,,,,,,,,,,,,,,,0.233170229,,,,,,,,,,,,,,,,,,,,,,,,,,,,right,0,70,-30,40,1,1795.094543,1795.094543,1795.094543,None,None,2,0,0.6418371,,,,,,,,,,,,,,,,,,,,,,10,14,2,2024-10-31_11h01.37.967,uWM_experiment,2022.2.3,59.99779208
,,,,,,,,,,,,,,,,,,,,4,0,4,0,20,0,20,0,,,,,,,,,,,,,,,,,,,,,,,,,,,,,,,,,,,,,,,,,,,,,,,,,,,,,,,,,,,,,,,,,,,,,,0,,,,,,,,,,,,,,,,,,,,,,,,,,,,left,0,160,30,190,0,1804.778337,1804.778337,1804.778337,None,None,1,1,0.9259959,,,,,,,,,,,,,,,,,,,,,,10,14,2,2024-10-31_11h01.37.967,uWM_experiment,2022.2.3,59.99779208
,,,,,,,,,,,,,,,,,,,,4,0,4,0,21,0,21,0,,,,,,,,,,,,,,,,,,,,,,,,,,,,,,,,,,,,,,,,,,,,,,,,,,,,,,,,,,,,,,,,,,,,,,0.223170229,,,,,,,,,,,,,,,,,,,,,,,,,,,,left,1,160,-30,130,1,1812.895357,1812.895357,1812.895357,None,None,2,0,0.4250378,,,,,,,,,,,,,,,,,,,,,,10,14,2,2024-10-31_11h01.37.967,uWM_experiment,2022.2.3,59.99779208
,,,,,,,,,,,,,,,,,,,,4,0,4,0,22,0,22,0,,,,,,,,,,,,,,,,,,,,,,,,,,,,,,,,,,,,,,,,,,,,,,,,,,,,,,,,,,,,,,,,,,,,,,0.213170229,,,,,,,,,,,,,,,,,,,,,,,,,,,,left,1,40,-30,10,1,1820.629031,1820.629031,1820.629031,None,None,1,1,0.4113432,,,,,,,,,,,,,,,,,,,,,,10,14,2,2024-10-31_11h01.37.967,uWM_experiment,2022.2.3,59.99779208
,,,,,,,,,,,,,,,,,,,,4,0,4,0,23,0,23,0,,,,,,,,,,,,,,,,,,,,,,,,,,,,,,,,,,,,,,,,,,,,,,,,,,,,,,,,,,,,,,,,,,,,,,0.223170229,,,,,,,,,,,,,,,,,,,,,,,,,,,,left,0,10,30,40,1,1829.129407,1829.129407,1829.129407,None,None,2,0,1.478916,,,,,,,,,,,,,,,,,,,,,,10,14,2,2024-10-31_11h01.37.967,uWM_experiment,2022.2.3,59.99779208
,,,,,,,,,,,,,,,,,,,,4,0,4,0,,,,,0,0,0,0,,,,,,,,,,,,,,,,,,,,,,,,,,,,,,,,,,,,,,,,,,,,,,,,,,,,,,,,,,,,,,,,,,,,,,,,,,,,,,,,,,,,,,,,,,,,,,,,,,,,,,,,,,,,1830.629459,1830.629459,space,50.9469898,None,None,,,,,,,,,,,,,,,,10,14,2,2024-10-31_11h01.37.967,uWM_experiment,2022.2.3,59.99779208
,,,,,,,,,,,,,,,,,,,,4,0,4,0,,,,,1,0,1,0,,,,,,,,,,,,,,,,,,,,,,,,,,,,,,,,,,,,,,,,,,,,,,,,,,,,,,,,,,,,,,,,,,,,,,,,,,,,,,,,,,,,,,,,,,,,,,,,,,,,,,,,,,,,,,,,,,,,,,,,,,,,,,,,,10,14,2,2024-10-31_11h01.37.967,uWM_experiment,2022.2.3,59.99779208
,,,,,,,,,,,,,,,,,,,,4,0,4,0,,,,,2,0,2,0,,,,,,,,,,,,,,,,,,,,,,,,,,,,,,,,,,,,,,,,,,,,,,,,,,,,,,,,,,,,,,,,,,,,,,,,,,,,,,,,,,,,,,,,,,,,,,,,,,,,,,,,,,,,,,,,,,,,,,,,,,,,,,,,,10,14,2,2024-10-31_11h01.37.967,uWM_experiment,2022.2.3,59.99779208
,,,,,,,,,,,,,,,,,,,,5,0,5,0,0,0,0,0,,,,,,,,,,,,,,,,,,,,,,,,,,,,,,,,,,,,,,,,,,,,,,,,,,,,,,,,,,,,,,,,,,,,,,0.213170229,,,,,,,,,,,,,,,,,,,,1881.598437,1882.29845,1882.598464,1883.298496,1883.59851,1884.298539,1884.298539,1884.615255,right,1,160,30,190,1,1889.582089,1889.582089,1889.582089,None,None,1,1,0.5542187,,,,,,,None,,,,,,,,,,,,,,,10,14,2,2024-10-31_11h01.37.967,uWM_experiment,2022.2.3,59.99779208
,,,,,,,,,,,,,,,,,,,,5,0,5,0,1,0,1,0,,,,,,,,,,,,,,,,,,,,,,,,,,,,,,,,,,,,,,,,,,,,,,,,,,,,,,,,,,,,,,,,,,,,,,0.223170229,,,,,,,,,,,,,,,,,,,,,,,,,,,,right,1,10,30,40,1,1895.982437,1895.982437,1895.982437,None,None,2,0,0.3298658,,,,,,,,,,,,,,,,,,,,,,10,14,2,2024-10-31_11h01.37.967,uWM_experiment,2022.2.3,59.99779208
,,,,,,,,,,,,,,,,,,,,5,0,5,0,2,0,2,0,,,,,,,,,,,,,,,,,,,,,,,,,,,,,,,,,,,,,,,,,,,,,,,,,,,,,,,,,,,,,,,,,,,,,,0.213170229,,,,,,,,,,,,,,,,,,,,,,,,,,,,right,0,70,-30,40,1,1902.632708,1902.632708,1902.632708,None,None,2,0,1.0397092,,,,,,,,,,,,,,,,,,,,,,10,14,2,2024-10-31_11h01.37.967,uWM_experiment,2022.2.3,59.99779208
,,,,,,,,,,,,,,,,,,,,5,0,5,0,3,0,3,0,,,,,,,,,,,,,,,,,,,,,,,,,,,,,,,,,,,,,,,,,,,,,,,,,,,,,,,,,,,,,,,,,,,,,,0.203170229,,,,,,,,,,,,,,,,,,,,,,,,,,,,left,0,130,30,160,1,1913.183183,1913.183183,1913.183183,None,None,2,0,0.6812353,,,,,,,,,,,,,,,,,,,,,,10,14,2,2024-10-31_11h01.37.967,uWM_experiment,2022.2.3,59.99779208
,,,,,,,,,,,,,,,,,,,,5,0,5,0,4,0,4,0,,,,,,,,,,,,,,,,,,,,,,,,,,,,,,,,,,,,,,,,,,,,,,,,,,,,,,,,,,,,,,,,,,,,,,0.193170229,,,,,,,,,,,,,,,,,,,,,,,,,,,,right,0,40,-30,10,1,1919.600143,1919.600143,1919.600143,None,None,1,1,0.1922535,,,,,,,,,,,,,,,,,,,,,,10,14,2,2024-10-31_11h01.37.967,uWM_experiment,2022.2.3,59.99779208
,,,,,,,,,,,,,,,,,,,,5,0,5,0,5,0,5,0,,,,,,,,,,,,,,,,,,,,,,,,,,,,,,,,,,,,,,,,,,,,,,,,,,,,,,,,,,,,,,,,,,,,,,0,,,,,,,,,,,,,,,,,,,,,,,,,,,,left,0,10,30,40,0,1926.483788,1926.483788,1926.483788,None,None,1,1,0.2845156,,,,,,,,,,,,,,,,,,,,,,10,14,2,2024-10-31_11h01.37.967,uWM_experiment,2022.2.3,59.99779208
,,,,,,,,,,,,,,,,,,,,5,0,5,0,6,0,6,0,,,,,,,,,,,,,,,,,,,,,,,,,,,,,,,,,,,,,,,,,,,,,,,,,,,,,,,,,,,,,,,,,,,,,,0.203170229,,,,,,,,,,,,,,,,,,,,,,,,,,,,right,0,10,-30,-20,1,1932.550747,1932.550747,1932.550747,None,None,2,0,0.2415828,,,,,,,,,,,,,,,,,,,,,,10,14,2,2024-10-31_11h01.37.967,uWM_experiment,2022.2.3,59.99779208
,,,,,,,,,,,,,,,,,,,,5,0,5,0,7,0,7,0,,,,,,,,,,,,,,,,,,,,,,,,,,,,,,,,,,,,,,,,,,,,,,,,,,,,,,,,,,,,,,,,,,,,,,0,,,,,,,,,,,,,,,,,,,,,,,,,,,,left,1,160,-30,130,0,1938.267633,1938.267633,1938.267633,None,None,1,1,0.3007055,,,,,,,,,,,,,,,,,,,,,,10,14,2,2024-10-31_11h01.37.967,uWM_experiment,2022.2.3,59.99779208
,,,,,,,,,,,,,,,,,,,,5,0,5,0,8,0,8,0,,,,,,,,,,,,,,,,,,,,,,,,,,,,,,,,,,,,,,,,,,,,,,,,,,,,,,,,,,,,,,,,,,,,,,0.193170229,,,,,,,,,,,,,,,,,,,,,,,,,,,,right,0,40,-30,10,1,1944.217899,1944.217899,1944.217899,None,None,2,0,0.3425082,,,,,,,,,,,,,,,,,,,,,,10,14,2,2024-10-31_11h01.37.967,uWM_experiment,2022.2.3,59.99779208
,,,,,,,,,,,,,,,,,,,,5,0,5,0,9,0,9,0,,,,,,,,,,,,,,,,,,,,,,,,,,,,,,,,,,,,,,,,,,,,,,,,,,,,,,,,,,,,,,,,,,,,,,0.183170229,,,,,,,,,,,,,,,,,,,,,,,,,,,,right,0,100,-30,70,1,1950.118184,1950.118184,1950.118184,None,None,1,1,0.3621532,,,,,,,,,,,,,,,,,,,,,,10,14,2,2024-10-31_11h01.37.967,uWM_experiment,2022.2.3,59.99779208
,,,,,,,,,,,,,,,,,,,,5,0,5,0,10,0,10,0,,,,,,,,,,,,,,,,,,,,,,,,,,,,,,,,,,,,,,,,,,,,,,,,,,,,,,,,,,,,,,,,,,,,,,0,,,,,,,,,,,,,,,,,,,,,,,,,,,,right,0,160,-30,130,0,1956.051764,1956.051764,1956.051764,None,None,1,1,0.3326425,,,,,,,,,,,,,,,,,,,,,,10,14,2,2024-10-31_11h01.37.967,uWM_experiment,2022.2.3,59.99779208
,,,,,,,,,,,,,,,,,,,,5,0,5,0,11,0,11,0,,,,,,,,,,,,,,,,,,,,,,,,,,,,,,,,,,,,,,,,,,,,,,,,,,,,,,,,,,,,,,,,,,,,,,0.1,,,,,,,,,,,,,,,,,,,,,,,,,,,,right,1,40,30,70,2,1962.485394,1962.485394,1962.485394,None,None,1,1,0.2189532,,,,,,,,,,,,,,,,,,,,,,10,14,2,2024-10-31_11h01.37.967,uWM_experiment,2022.2.3,59.99779208
,,,,,,,,,,,,,,,,,,,,5,0,5,0,12,0,12,0,,,,,,,,,,,,,,,,,,,,,,,,,,,,,,,,,,,,,,,,,,,,,,,,,,,,,,,,,,,,,,,,,,,,,,0,,,,,,,,,,,,,,,,,,,,,,,,,,,,left,1,100,-30,70,0,1968.285662,1968.285662,1968.285662,None,None,2,0,0.3227073,,,,,,,,,,,,,,,,,,,,,,10,14,2,2024-10-31_11h01.37.967,uWM_experiment,2022.2.3,59.99779208
,,,,,,,,,,,,,,,,,,,,5,0,5,0,13,0,13,0,,,,,,,,,,,,,,,,,,,,,,,,,,,,,,,,,,,,,,,,,,,,,,,,,,,,,,,,,,,,,,,,,,,,,,0,,,,,,,,,,,,,,,,,,,,,,,,,,,,left,1,130,-30,100,0,1974.219251,1974.219251,1974.219251,None,None,1,1,0.2370576,,,,,,,,,,,,,,,,,,,,,,10,14,2,2024-10-31_11h01.37.967,uWM_experiment,2022.2.3,59.99779208
,,,,,,,,,,,,,,,,,,,,5,0,5,0,14,0,14,0,,,,,,,,,,,,,,,,,,,,,,,,,,,,,,,,,,,,,,,,,,,,,,,,,,,,,,,,,,,,,,,,,,,,,,0.193170229,,,,,,,,,,,,,,,,,,,,,,,,,,,,left,1,130,-30,100,1,1980.069527,1980.069527,1980.069527,None,None,1,1,0.3789538,,,,,,,,,,,,,,,,,,,,,,10,14,2,2024-10-31_11h01.37.967,uWM_experiment,2022.2.3,59.99779208
,,,,,,,,,,,,,,,,,,,,5,0,5,0,15,0,15,0,,,,,,,,,,,,,,,,,,,,,,,,,,,,,,,,,,,,,,,,,,,,,,,,,,,,,,,,,,,,,,,,,,,,,,0.1,,,,,,,,,,,,,,,,,,,,,,,,,,,,right,1,160,30,190,2,1986.419793,1986.419793,1986.419793,None,None,1,1,0.9486139,,,,,,,,,,,,,,,,,,,,,,10,14,2,2024-10-31_11h01.37.967,uWM_experiment,2022.2.3,59.99779208
,,,,,,,,,,,,,,,,,,,,5,0,5,0,16,0,16,0,,,,,,,,,,,,,,,,,,,,,,,,,,,,,,,,,,,,,,,,,,,,,,,,,,,,,,,,,,,,,,,,,,,,,,0.203170229,,,,,,,,,,,,,,,,,,,,,,,,,,,,left,0,160,30,190,1,1994.820195,1994.820195,1994.820195,None,None,1,1,0.7881647,,,,,,,,,,,,,,,,,,,,,,10,14,2,2024-10-31_11h01.37.967,uWM_experiment,2022.2.3,59.99779208
,,,,,,,,,,,,,,,,,,,,5,0,5,0,17,0,17,0,,,,,,,,,,,,,,,,,,,,,,,,,,,,,,,,,,,,,,,,,,,,,,,,,,,,,,,,,,,,,,,,,,,,,,0.213170229,,,,,,,,,,,,,,,,,,,,,,,,,,,,left,0,160,30,190,1,2001.37044,2001.37044,2001.37044,None,None,1,1,0.1981703,,,,,,,,,,,,,,,,,,,,,,10,14,2,2024-10-31_11h01.37.967,uWM_experiment,2022.2.3,59.99779208
,,,,,,,,,,,,,,,,,,,,5,0,5,0,18,0,18,0,,,,,,,,,,,,,,,,,,,,,,,,,,,,,,,,,,,,,,,,,,,,,,,,,,,,,,,,,,,,,,,,,,,,,,0.223170229,,,,,,,,,,,,,,,,,,,,,,,,,,,,left,1,130,-30,100,1,2007.087373,2007.087373,2007.087373,None,None,2,0,0.4090697,,,,,,,,,,,,,,,,,,,,,,10,14,2,2024-10-31_11h01.37.967,uWM_experiment,2022.2.3,59.99779208
,,,,,,,,,,,,,,,,,,,,5,0,5,0,19,0,19,0,,,,,,,,,,,,,,,,,,,,,,,,,,,,,,,,,,,,,,,,,,,,,,,,,,,,,,,,,,,,,,,,,,,,,,0.213170229,,,,,,,,,,,,,,,,,,,,,,,,,,,,left,0,160,30,190,1,2013.121012,2013.121012,2013.121012,None,None,1,1,0.247419,,,,,,,,,,,,,,,,,,,,,,10,14,2,2024-10-31_11h01.37.967,uWM_experiment,2022.2.3,59.99779208
,,,,,,,,,,,,,,,,,,,,5,0,5,0,20,0,20,0,,,,,,,,,,,,,,,,,,,,,,,,,,,,,,,,,,,,,,,,,,,,,,,,,,,,,,,,,,,,,,,,,,,,,,0.1,,,,,,,,,,,,,,,,,,,,,,,,,,,,right,0,100,-30,70,2,2019.904637,2019.904637,2019.904637,None,None,2,0,0.5357668,,,,,,,,,,,,,,,,,,,,,,10,14,2,2024-10-31_11h01.37.967,uWM_experiment,2022.2.3,59.99779208
,,,,,,,,,,,,,,,,,,,,5,0,5,0,21,0,21,0,,,,,,,,,,,,,,,,,,,,,,,,,,,,,,,,,,,,,,,,,,,,,,,,,,,,,,,,,,,,,,,,,,,,,,0.223170229,,,,,,,,,,,,,,,,,,,,,,,,,,,,left,0,70,30,100,1,2026.554928,2026.554928,2026.554928,None,None,1,1,0.5337276,,,,,,,,,,,,,,,,,,,,,,10,14,2,2024-10-31_11h01.37.967,uWM_experiment,2022.2.3,59.99779208
,,,,,,,,,,,,,,,,,,,,5,0,5,0,22,0,22,0,,,,,,,,,,,,,,,,,,,,,,,,,,,,,,,,,,,,,,,,,,,,,,,,,,,,,,,,,,,,,,,,,,,,,,0.233170229,,,,,,,,,,,,,,,,,,,,,,,,,,,,left,1,160,-30,130,1,2032.721884,2032.721884,2032.721884,None,None,2,0,1.2306437,,,,,,,,,,,,,,,,,,,,,,10,14,2,2024-10-31_11h01.37.967,uWM_experiment,2022.2.3,59.99779208
,,,,,,,,,,,,,,,,,,,,5,0,5,0,23,0,23,0,,,,,,,,,,,,,,,,,,,,,,,,,,,,,,,,,,,,,,,,,,,,,,,,,,,,,,,,,,,,,,,,,,,,,,0.223170229,,,,,,,,,,,,,,,,,,,,,,,,,,,,left,0,160,30,190,1,2040.422227,2040.422227,2040.422227,None,None,1,1,0.4662764,,,,,,,,,,,,,,,,,,,,,,10,14,2,2024-10-31_11h01.37.967,uWM_experiment,2022.2.3,59.99779208
,,,,,,,,,,,,,,,,,,,,5,0,5,0,,,,,0,0,0,0,,,,,,,,,,,,,,,,,,,,,,,,,,,,,,,,,,,,,,,,,,,,,,,,,,,,,,,,,,,,,,,,,,,,,,,,,,,,,,,,,,,,,,,,,,,,,,,,,,,,,,,,,,,,2040.905561,2040.905561,space,72.9109347,space,None,,2113.842173,2113.842173,0.8784059,,,,,,,,,,,,10,14,2,2024-10-31_11h01.37.967,uWM_experiment,2022.2.3,59.99779208
,,,,,,,,,,,,,,,,,,,,5,0,5,0,,,,,1,0,1,0,,,,,,,,,,,,,,,,,,,,,,,,,,,,,,,,,,,,,,,,,,,,,,,,,,,,,,,,,,,,,,,,,,,,,,,,,,,,,,,,,,,,,,,,,,,,,,,,,,,,,,,,,,,,,,,,,,,,,,,,,,,,,,,,,10,14,2,2024-10-31_11h01.37.967,uWM_experiment,2022.2.3,59.99779208
,,,,,,,,,,,,,,,,,,,,5,0,5,0,,,,,2,0,2,0,,,,,,,,,,,,,,,,,,,,,,,,,,,,,,,,,,,,,,,,,,,,,,,,,,,,,,,,,,,,,,,,,,,,,,,,,,,,,,,,,,,,,,,,,,,,,,,,,,,,,,,,,,,,,,,,,,,,,,,,,,,,,,,,,10,14,2,2024-10-31_11h01.37.967,uWM_experiment,2022.2.3,59.99779208
,,,,,,,,,,,,,,,,,,,,6,0,6,0,0,0,0,0,,,,,,,,,,,,,,,,,,,,,,,,,,,,,,,,,,,,,,,,,,,,,,,,,,,,,,,,,,,,,,,,,,,,,,0,,,,,,,,,,,,,,,,,,,,2114.742213,2115.44222,2115.742251,2116.442304,2116.74233,2117.442328,2117.442328,2117.759014,left,1,130,-30,100,0,2122.64258,2122.64258,2122.64258,None,None,2,0,0.3899035,,,,,,,None,,,,,,,,,,,,,,,10,14,2,2024-10-31_11h01.37.967,uWM_experiment,2022.2.3,59.99779208
,,,,,,,,,,,,,,,,,,,,6,0,6,0,1,0,1,0,,,,,,,,,,,,,,,,,,,,,,,,,,,,,,,,,,,,,,,,,,,,,,,,,,,,,,,,,,,,,,,,,,,,,,0.233170229,,,,,,,,,,,,,,,,,,,,,,,,,,,,left,0,130,30,160,1,2128.542838,2128.542838,2128.542838,None,None,1,1,0.297786,,,,,,,,,,,,,,,,,,,,,,10,14,2,2024-10-31_11h01.37.967,uWM_experiment,2022.2.3,59.99779208
,,,,,,,,,,,,,,,,,,,,6,0,6,0,2,0,2,0,,,,,,,,,,,,,,,,,,,,,,,,,,,,,,,,,,,,,,,,,,,,,,,,,,,,,,,,,,,,,,,,,,,,,,0.243170229,,,,,,,,,,,,,,,,,,,,,,,,,,,,left,0,130,30,160,1,2134.659777,2134.659777,2134.659777,None,None,1,1,0.2366629,,,,,,,,,,,,,,,,,,,,,,10,14,2,2024-10-31_11h01.37.967,uWM_experiment,2022.2.3,59.99779208
,,,,,,,,,,,,,,,,,,,,6,0,6,0,3,0,3,0,,,,,,,,,,,,,,,,,,,,,,,,,,,,,,,,,,,,,,,,,,,,,,,,,,,,,,,,,,,,,,,,,,,,,,0.253170229,,,,,,,,,,,,,,,,,,,,,,,,,,,,right,0,70,-30,40,1,2140.543383,2140.543383,2140.543383,None,None,2,0,0.3370099,,,,,,,,,,,,,,,,,,,,,,10,14,2,2024-10-31_11h01.37.967,uWM_experiment,2022.2.3,59.99779208
,,,,,,,,,,,,,,,,,,,,6,0,6,0,4,0,4,0,,,,,,,,,,,,,,,,,,,,,,,,,,,,,,,,,,,,,,,,,,,,,,,,,,,,,,,,,,,,,,,,,,,,,,0.243170229,,,,,,,,,,,,,,,,,,,,,,,,,,,,right,1,160,30,190,1,2146.426986,2146.426986,2146.426986,None,None,1,1,0.17345,,,,,,,,,,,,,,,,,,,,,,10,14,2,2024-10-31_11h01.37.967,uWM_experiment,2022.2.3,59.99779208
,,,,,,,,,,,,,,,,,,,,6,0,6,0,5,0,5,0,,,,,,,,,,,,,,,,,,,,,,,,,,,,,,,,,,,,,,,,,,,,,,,,,,,,,,,,,,,,,,,,,,,,,,0,,,,,,,,,,,,,,,,,,,,,,,,,,,,right,1,10,30,40,0,2153.993964,2153.993964,2153.993964,None,None,1,1,0.1985051,,,,,,,,,,,,,,,,,,,,,,10,14,2,2024-10-31_11h01.37.967,uWM_experiment,2022.2.3,59.99779208
,,,,,,,,,,,,,,,,,,,,6,0,6,0,6,0,6,0,,,,,,,,,,,,,,,,,,,,,,,,,,,,,,,,,,,,,,,,,,,,,,,,,,,,,,,,,,,,,,,,,,,,,,0,,,,,,,,,,,,,,,,,,,,,,,,,,,,left,0,160,30,190,0,2159.877569,2159.877569,2159.877569,None,None,1,1,0.2429252,,,,,,,,,,,,,,,,,,,,,,10,14,2,2024-10-31_11h01.37.967,uWM_experiment,2022.2.3,59.99779208
,,,,,,,,,,,,,,,,,,,,6,0,6,0,7,0,7,0,,,,,,,,,,,,,,,,,,,,,,,,,,,,,,,,,,,,,,,,,,,,,,,,,,,,,,,,,,,,,,,,,,,,,,0.253170229,,,,,,,,,,,,,,,,,,,,,,,,,,,,left,1,130,-30,100,1,2165.527829,2165.527829,2165.527829,None,None,1,1,0.2087638,,,,,,,,,,,,,,,,,,,,,,10,14,2,2024-10-31_11h01.37.967,uWM_experiment,2022.2.3,59.99779208
,,,,,,,,,,,,,,,,,,,,6,0,6,0,8,0,8,0,,,,,,,,,,,,,,,,,,,,,,,,,,,,,,,,,,,,,,,,,,,,,,,,,,,,,,,,,,,,,,,,,,,,,,0,,,,,,,,,,,,,,,,,,,,,,,,,,,,left,0,130,30,160,0,2171.344752,2171.344752,2171.344752,None,None,2,0,0.2717515,,,,,,,,,,,,,,,,,,,,,,10,14,2,2024-10-31_11h01.37.967,uWM_experiment,2022.2.3,59.99779208
,,,,,,,,,,,,,,,,,,,,6,0,6,0,9,0,9,0,,,,,,,,,,,,,,,,,,,,,,,,,,,,,,,,,,,,,,,,,,,,,,,,,,,,,,,,,,,,,,,,,,,,,,0.263170229,,,,,,,,,,,,,,,,,,,,,,,,,,,,right,1,160,30,190,1,2177.361717,2177.361717,2177.361717,None,None,1,1,0.2308107,,,,,,,,,,,,,,,,,,,,,,10,14,2,2024-10-31_11h01.37.967,uWM_experiment,2022.2.3,59.99779208
,,,,,,,,,,,,,,,,,,,,6,0,6,0,10,0,10,0,,,,,,,,,,,,,,,,,,,,,,,,,,,,,,,,,,,,,,,,,,,,,,,,,,,,,,,,,,,,,,,,,,,,,,0.273170229,,,,,,,,,,,,,,,,,,,,,,,,,,,,right,0,160,-30,130,1,2182.978604,2182.978604,2182.978604,None,None,1,1,0.6538875,,,,,,,,,,,,,,,,,,,,,,10,14,2,2024-10-31_11h01.37.967,uWM_experiment,2022.2.3,59.99779208
,,,,,,,,,,,,,,,,,,,,6,0,6,0,11,0,11,0,,,,,,,,,,,,,,,,,,,,,,,,,,,,,,,,,,,,,,,,,,,,,,,,,,,,,,,,,,,,,,,,,,,,,,0,,,,,,,,,,,,,,,,,,,,,,,,,,,,left,0,100,30,130,0,2189.578948,2189.578948,2189.578948,None,None,2,0,0.3977079,,,,,,,,,,,,,,,,,,,,,,10,14,2,2024-10-31_11h01.37.967,uWM_experiment,2022.2.3,59.99779208
,,,,,,,,,,,,,,,,,,,,6,0,6,0,12,0,12,0,,,,,,,,,,,,,,,,,,,,,,,,,,,,,,,,,,,,,,,,,,,,,,,,,,,,,,,,,,,,,,,,,,,,,,0.283170229,,,,,,,,,,,,,,,,,,,,,,,,,,,,left,0,40,30,70,1,2196.16254,2196.16254,2196.16254,None,None,1,1,0.2299344,,,,,,,,,,,,,,,,,,,,,,10,14,2,2024-10-31_11h01.37.967,uWM_experiment,2022.2.3,59.99779208
,,,,,,,,,,,,,,,,,,,,6,0,6,0,13,0,13,0,,,,,,,,,,,,,,,,,,,,,,,,,,,,,,,,,,,,,,,,,,,,,,,,,,,,,,,,,,,,,,,,,,,,,,0,,,,,,,,,,,,,,,,,,,,,,,,,,,,right,0,70,-30,40,0,2202.346162,2202.346162,2202.346162,None,None,2,0,1.0303924,,,,,,,,,,,,,,,,,,,,,,10,14,2,2024-10-31_11h01.37.967,uWM_experiment,2022.2.3,59.99779208
,,,,,,,,,,,,,,,,,,,,6,0,6,0,14,0,14,0,,,,,,,,,,,,,,,,,,,,,,,,,,,,,,,,,,,,,,,,,,,,,,,,,,,,,,,,,,,,,,,,,,,,,,0,,,,,,,,,,,,,,,,,,,,,,,,,,,,left,1,160,-30,130,0,2209.046454,2209.046454,2209.046454,None,None,1,1,0.3540084,,,,,,,,,,,,,,,,,,,,,,10,14,2,2024-10-31_11h01.37.967,uWM_experiment,2022.2.3,59.99779208
,,,,,,,,,,,,,,,,,,,,6,0,6,0,15,0,15,0,,,,,,,,,,,,,,,,,,,,,,,,,,,,,,,,,,,,,,,,,,,,,,,,,,,,,,,,,,,,,,,,,,,,,,0,,,,,,,,,,,,,,,,,,,,,,,,,,,,left,1,40,-30,10,0,2215.96342,2215.96342,2215.96342,None,None,1,1,1.3892007,,,,,,,,,,,,,,,,,,,,,,10,14,2,2024-10-31_11h01.37.967,uWM_experiment,2022.2.3,59.99779208
,,,,,,,,,,,,,,,,,,,,6,0,6,0,16,0,16,0,,,,,,,,,,,,,,,,,,,,,,,,,,,,,,,,,,,,,,,,,,,,,,,,,,,,,,,,,,,,,,,,,,,,,,0.293170229,,,,,,,,,,,,,,,,,,,,,,,,,,,,left,0,130,30,160,1,2223.230424,2223.230424,2223.230424,None,None,2,0,0.2900871,,,,,,,,,,,,,,,,,,,,,,10,14,2,2024-10-31_11h01.37.967,uWM_experiment,2022.2.3,59.99779208
,,,,,,,,,,,,,,,,,,,,6,0,6,0,17,0,17,0,,,,,,,,,,,,,,,,,,,,,,,,,,,,,,,,,,,,,,,,,,,,,,,,,,,,,,,,,,,,,,,,,,,,,,0.283170229,,,,,,,,,,,,,,,,,,,,,,,,,,,,left,0,100,30,130,1,2229.647357,2229.647357,2229.647357,None,None,1,1,0.3451665,,,,,,,,,,,,,,,,,,,,,,10,14,2,2024-10-31_11h01.37.967,uWM_experiment,2022.2.3,59.99779208
,,,,,,,,,,,,,,,,,,,,6,0,6,0,18,0,18,0,,,,,,,,,,,,,,,,,,,,,,,,,,,,,,,,,,,,,,,,,,,,,,,,,,,,,,,,,,,,,,,,,,,,,,0.293170229,,,,,,,,,,,,,,,,,,,,,,,,,,,,right,1,40,30,70,1,2236.23101,2236.23101,2236.23101,None,None,1,1,0.3534901,,,,,,,,,,,,,,,,,,,,,,10,14,2,2024-10-31_11h01.37.967,uWM_experiment,2022.2.3,59.99779208
,,,,,,,,,,,,,,,,,,,,6,0,6,0,19,0,19,0,,,,,,,,,,,,,,,,,,,,,,,,,,,,,,,,,,,,,,,,,,,,,,,,,,,,,,,,,,,,,,,,,,,,,,0.303170229,,,,,,,,,,,,,,,,,,,,,,,,,,,,right,0,70,-30,40,1,2243.031313,2243.031313,2243.031313,None,None,2,0,0.2572087,,,,,,,,,,,,,,,,,,,,,,10,14,2,2024-10-31_11h01.37.967,uWM_experiment,2022.2.3,59.99779208
,,,,,,,,,,,,,,,,,,,,6,0,6,0,20,0,20,0,,,,,,,,,,,,,,,,,,,,,,,,,,,,,,,,,,,,,,,,,,,,,,,,,,,,,,,,,,,,,,,,,,,,,,0.293170229,,,,,,,,,,,,,,,,,,,,,,,,,,,,left,0,100,30,130,1,2248.814901,2248.814901,2248.814901,None,None,1,1,0.2896524,,,,,,,,,,,,,,,,,,,,,,10,14,2,2024-10-31_11h01.37.967,uWM_experiment,2022.2.3,59.99779208
,,,,,,,,,,,,,,,,,,,,6,0,6,0,21,0,21,0,,,,,,,,,,,,,,,,,,,,,,,,,,,,,,,,,,,,,,,,,,,,,,,,,,,,,,,,,,,,,,,,,,,,,,0.303170229,,,,,,,,,,,,,,,,,,,,,,,,,,,,right,1,40,30,70,1,2255.665234,2255.665234,2255.665234,None,None,2,0,0.2872717,,,,,,,,,,,,,,,,,,,,,,10,14,2,2024-10-31_11h01.37.967,uWM_experiment,2022.2.3,59.99779208
,,,,,,,,,,,,,,,,,,,,6,0,6,0,22,0,22,0,,,,,,,,,,,,,,,,,,,,,,,,,,,,,,,,,,,,,,,,,,,,,,,,,,,,,,,,,,,,,,,,,,,,,,0.293170229,,,,,,,,,,,,,,,,,,,,,,,,,,,,right,0,160,-30,130,1,2261.71548,2261.71548,2261.71548,None,None,1,1,0.4290665,,,,,,,,,,,,,,,,,,,,,,10,14,2,2024-10-31_11h01.37.967,uWM_experiment,2022.2.3,59.99779208
,,,,,,,,,,,,,,,,,,,,6,0,6,0,23,0,23,0,,,,,,,,,,,,,,,,,,,,,,,,,,,,,,,,,,,,,,,,,,,,,,,,,,,,,,,,,,,,,,,,,,,,,,0.303170229,,,,,,,,,,,,,,,,,,,,,,,,,,,,left,0,130,30,160,1,2267.732424,2267.732424,2267.732424,None,None,1,1,0.2361207,,,,,,,,,,,,,,,,,,,,,,10,14,2,2024-10-31_11h01.37.967,uWM_experiment,2022.2.3,59.99779208
,,,,,,,,,,,,,,,,,,,,6,0,6,0,,,,,0,0,0,0,,,,,,,,,,,,,,,,,,,,,,,,,,,,,,,,,,,,,,,,,,,,,,,,,,,,,,,,,,,,,,,,,,,,,,,,,,,,,,,,,,,,,,,,,,,,,,,,,,,,,,,,,,,,2267.999081,2267.999081,space,147.777619,None,space,,,,,2415.805707,2415.805707,2.154967,,,,,,,,,10,14,2,2024-10-31_11h01.37.967,uWM_experiment,2022.2.3,59.99779208
,,,,,,,,,,,,,,,,,,,,6,0,6,0,,,,,1,0,1,0,,,,,,,,,,,,,,,,,,,,,,,,,,,,,,,,,,,,,,,,,,,,,,,,,,,,,,,,,,,,,,,,,,,,,,,,,,,,,,,,,,,,,,,,,,,,,,,,,,,,,,,,,,,,,,,,,,,,,,,,,,,,,,,,,10,14,2,2024-10-31_11h01.37.967,uWM_experiment,2022.2.3,59.99779208
,,,,,,,,,,,,,,,,,,,,6,0,6,0,,,,,2,0,2,0,,,,,,,,,,,,,,,,,,,,,,,,,,,,,,,,,,,,,,,,,,,,,,,,,,,,,,,,,,,,,,,,,,,,,,,,,,,,,,,,,,,,,,,,,,,,,,,,,,,,,,,,,,,,,,,,,,,,,,,,,,,,,,,,,10,14,2,2024-10-31_11h01.37.967,uWM_experiment,2022.2.3,59.99779208
,,,,,,,,,,,,,,,,,,,,7,0,7,0,0,0,0,0,,,,,,,,,,,,,,,,,,,,,,,,,,,,,,,,,,,,,,,,,,,,,,,,,,,,,,,,,,,,,,,,,,,,,,0.313170229,,,,,,,,,,,,,,,,,,,,2431.8731,2432.57315,2432.856481,2433.556511,2433.856527,2434.556554,2434.556554,2434.873237,left,1,10,-30,-20,1,2439.423448,2439.423448,2439.423448,None,None,2,0,0.5452095,,,,,,,space,,,,,,,2430.07302,2430.07302,1.7676764,,,,,,10,14,2,2024-10-31_11h01.37.967,uWM_experiment,2022.2.3,59.99779208
,,,,,,,,,,,,,,,,,,,,7,0,7,0,1,0,1,0,,,,,,,,,,,,,,,,,,,,,,,,,,,,,,,,,,,,,,,,,,,,,,,,,,,,,,,,,,,,,,,,,,,,,,0.303170229,,,,,,,,,,,,,,,,,,,,,,,,,,,,left,1,160,-30,130,1,2445.457074,2445.457074,2445.457074,None,None,1,1,0.1996374,,,,,,,,,,,,,,,,,,,,,,10,14,2,2024-10-31_11h01.37.967,uWM_experiment,2022.2.3,59.99779208
,,,,,,,,,,,,,,,,,,,,7,0,7,0,2,0,2,0,,,,,,,,,,,,,,,,,,,,,,,,,,,,,,,,,,,,,,,,,,,,,,,,,,,,,,,,,,,,,,,,,,,,,,0.313170229,,,,,,,,,,,,,,,,,,,,,,,,,,,,left,1,10,-30,-20,1,2451.574006,2451.574006,2451.574006,None,None,2,0,0.4907176,,,,,,,,,,,,,,,,,,,,,,10,14,2,2024-10-31_11h01.37.967,uWM_experiment,2022.2.3,59.99779208
,,,,,,,,,,,,,,,,,,,,7,0,7,0,3,0,3,0,,,,,,,,,,,,,,,,,,,,,,,,,,,,,,,,,,,,,,,,,,,,,,,,,,,,,,,,,,,,,,,,,,,,,,0.303170229,,,,,,,,,,,,,,,,,,,,,,,,,,,,right,1,40,30,70,1,2458.390973,2458.390973,2458.390973,None,None,1,1,0.3856457,,,,,,,,,,,,,,,,,,,,,,10,14,2,2024-10-31_11h01.37.967,uWM_experiment,2022.2.3,59.99779208
,,,,,,,,,,,,,,,,,,,,7,0,7,0,4,0,4,0,,,,,,,,,,,,,,,,,,,,,,,,,,,,,,,,,,,,,,,,,,,,,,,,,,,,,,,,,,,,,,,,,,,,,,0.313170229,,,,,,,,,,,,,,,,,,,,,,,,,,,,left,0,130,30,160,1,2464.557927,2464.557927,2464.557927,None,None,3,0,0.2267335,,,,,,,,,,,,,,,,,,,,,,10,14,2,2024-10-31_11h01.37.967,uWM_experiment,2022.2.3,59.99779208
,,,,,,,,,,,,,,,,,,,,7,0,7,0,5,0,5,0,,,,,,,,,,,,,,,,,,,,,,,,,,,,,,,,,,,,,,,,,,,,,,,,,,,,,,,,,,,,,,,,,,,,,,0,,,,,,,,,,,,,,,,,,,,,,,,,,,,right,1,40,30,70,0,2470.441512,2470.441512,2470.441512,None,None,1,1,0.3031193,,,,,,,,,,,,,,,,,,,,,,10,14,2,2024-10-31_11h01.37.967,uWM_experiment,2022.2.3,59.99779208
,,,,,,,,,,,,,,,,,,,,7,0,7,0,6,0,6,0,,,,,,,,,,,,,,,,,,,,,,,,,,,,,,,,,,,,,,,,,,,,,,,,,,,,,,,,,,,,,,,,,,,,,,0.303170229,,,,,,,,,,,,,,,,,,,,,,,,,,,,left,1,160,-30,130,1,2476.991792,2476.991792,2476.991792,None,None,1,1,0.2888713,,,,,,,,,,,,,,,,,,,,,,10,14,2,2024-10-31_11h01.37.967,uWM_experiment,2022.2.3,59.99779208
,,,,,,,,,,,,,,,,,,,,7,0,7,0,7,0,7,0,,,,,,,,,,,,,,,,,,,,,,,,,,,,,,,,,,,,,,,,,,,,,,,,,,,,,,,,,,,,,,,,,,,,,,0.313170229,,,,,,,,,,,,,,,,,,,,,,,,,,,,right,0,70,-30,40,1,2482.792083,2482.792083,2482.792083,None,None,2,0,0.5365766,,,,,,,,,,,,,,,,,,,,,,10,14,2,2024-10-31_11h01.37.967,uWM_experiment,2022.2.3,59.99779208
,,,,,,,,,,,,,,,,,,,,7,0,7,0,8,0,8,0,,,,,,,,,,,,,,,,,,,,,,,,,,,,,,,,,,,,,,,,,,,,,,,,,,,,,,,,,,,,,,,,,,,,,,0,,,,,,,,,,,,,,,,,,,,,,,,,,,,right,1,40,30,70,0,2488.808994,2488.808994,2488.808994,None,None,1,1,0.4077686,,,,,,,,,,,,,,,,,,,,,,10,14,2,2024-10-31_11h01.37.967,uWM_experiment,2022.2.3,59.99779208
,,,,,,,,,,,,,,,,,,,,7,0,7,0,9,0,9,0,,,,,,,,,,,,,,,,,,,,,,,,,,,,,,,,,,,,,,,,,,,,,,,,,,,,,,,,,,,,,,,,,,,,,,0.303170229,,,,,,,,,,,,,,,,,,,,,,,,,,,,left,0,100,30,130,1,2494.742597,2494.742597,2494.742597,None,None,1,1,0.4503153,,,,,,,,,,,,,,,,,,,,,,10,14,2,2024-10-31_11h01.37.967,uWM_experiment,2022.2.3,59.99779208
,,,,,,,,,,,,,,,,,,,,7,0,7,0,10,0,10,0,,,,,,,,,,,,,,,,,,,,,,,,,,,,,,,,,,,,,,,,,,,,,,,,,,,,,,,,,,,,,,,,,,,,,,0.313170229,,,,,,,,,,,,,,,,,,,,,,,,,,,,right,0,100,-30,70,1,2500.692872,2500.692872,2500.692872,None,None,1,1,0.5878349,,,,,,,,,,,,,,,,,,,,,,10,14,2,2024-10-31_11h01.37.967,uWM_experiment,2022.2.3,59.99779208
,,,,,,,,,,,,,,,,,,,,7,0,7,0,11,0,11,0,,,,,,,,,,,,,,,,,,,,,,,,,,,,,,,,,,,,,,,,,,,,,,,,,,,,,,,,,,,,,,,,,,,,,,0,,,,,,,,,,,,,,,,,,,,,,,,,,,,left,1,40,-30,10,0,2507.409872,2507.409872,2507.409872,None,None,1,1,0.478851,,,,,,,,,,,,,,,,,,,,,,10,14,2,2024-10-31_11h01.37.967,uWM_experiment,2022.2.3,59.99779208
,,,,,,,,,,,,,,,,,,,,7,0,7,0,12,0,12,0,,,,,,,,,,,,,,,,,,,,,,,,,,,,,,,,,,,,,,,,,,,,,,,,,,,,,,,,,,,,,,,,,,,,,,0.323170229,,,,,,,,,,,,,,,,,,,,,,,,,,,,right,1,40,30,70,1,2513.693449,2513.693449,2513.693449,None,None,1,1,0.563298,,,,,,,,,,,,,,,,,,,,,,10,14,2,2024-10-31_11h01.37.967,uWM_experiment,2022.2.3,59.99779208
,,,,,,,,,,,,,,,,,,,,7,0,7,0,13,0,13,0,,,,,,,,,,,,,,,,,,,,,,,,,,,,,,,,,,,,,,,,,,,,,,,,,,,,,,,,,,,,,,,,,,,,,,0.333170229,,,,,,,,,,,,,,,,,,,,,,,,,,,,right,0,70,-30,40,1,2520.427096,2520.427096,2520.427096,None,None,2,0,0.8055818,,,,,,,,,,,,,,,,,,,,,,10,14,2,2024-10-31_11h01.37.967,uWM_experiment,2022.2.3,59.99779208
,,,,,,,,,,,,,,,,,,,,7,0,7,0,14,0,14,0,,,,,,,,,,,,,,,,,,,,,,,,,,,,,,,,,,,,,,,,,,,,,,,,,,,,,,,,,,,,,,,,,,,,,,0.323170229,,,,,,,,,,,,,,,,,,,,,,,,,,,,left,0,100,30,130,1,2526.660707,2526.660707,2526.660707,None,None,1,1,0.4199722,,,,,,,,,,,,,,,,,,,,,,10,14,2,2024-10-31_11h01.37.967,uWM_experiment,2022.2.3,59.99779208
,,,,,,,,,,,,,,,,,,,,7,0,7,0,15,0,15,0,,,,,,,,,,,,,,,,,,,,,,,,,,,,,,,,,,,,,,,,,,,,,,,,,,,,,,,,,,,,,,,,,,,,,,0.333170229,,,,,,,,,,,,,,,,,,,,,,,,,,,,left,1,40,-30,10,1,2533.144334,2533.144334,2533.144334,None,None,1,1,0.4723296,,,,,,,,,,,,,,,,,,,,,,10,14,2,2024-10-31_11h01.37.967,uWM_experiment,2022.2.3,59.99779208
,,,,,,,,,,,,,,,,,,,,7,0,7,0,16,0,16,0,,,,,,,,,,,,,,,,,,,,,,,,,,,,,,,,,,,,,,,,,,,,,,,,,,,,,,,,,,,,,,,,,,,,,,0.343170229,,,,,,,,,,,,,,,,,,,,,,,,,,,,left,1,160,-30,130,1,2539.161274,2539.161274,2539.161274,None,None,1,1,0.4795388,,,,,,,,,,,,,,,,,,,,,,10,14,2,2024-10-31_11h01.37.967,uWM_experiment,2022.2.3,59.99779208
,,,,,,,,,,,,,,,,,,,,7,0,7,0,17,0,17,0,,,,,,,,,,,,,,,,,,,,,,,,,,,,,,,,,,,,,,,,,,,,,,,,,,,,,,,,,,,,,,,,,,,,,,0,,,,,,,,,,,,,,,,,,,,,,,,,,,,right,1,40,30,70,0,2545.194874,2545.194874,2545.194874,None,None,1,1,0.4698106,,,,,,,,,,,,,,,,,,,,,,10,14,2,2024-10-31_11h01.37.967,uWM_experiment,2022.2.3,59.99779208
,,,,,,,,,,,,,,,,,,,,7,0,7,0,18,0,18,0,,,,,,,,,,,,,,,,,,,,,,,,,,,,,,,,,,,,,,,,,,,,,,,,,,,,,,,,,,,,,,,,,,,,,,0,,,,,,,,,,,,,,,,,,,,,,,,,,,,right,0,70,-30,40,0,2551.161845,2551.161845,2551.161845,None,None,1,1,0.3348652,,,,,,,,,,,,,,,,,,,,,,10,14,2,2024-10-31_11h01.37.967,uWM_experiment,2022.2.3,59.99779208
,,,,,,,,,,,,,,,,,,,,7,0,7,0,19,0,19,0,,,,,,,,,,,,,,,,,,,,,,,,,,,,,,,,,,,,,,,,,,,,,,,,,,,,,,,,,,,,,,,,,,,,,,0.353170229,,,,,,,,,,,,,,,,,,,,,,,,,,,,left,0,70,30,100,1,2557.045388,2557.045388,2557.045388,None,None,1,1,0.1393507,,,,,,,,,,,,,,,,,,,,,,10,14,2,2024-10-31_11h01.37.967,uWM_experiment,2022.2.3,59.99779208
,,,,,,,,,,,,,,,,,,,,7,0,7,0,20,0,20,0,,,,,,,,,,,,,,,,,,,,,,,,,,,,,,,,,,,,,,,,,,,,,,,,,,,,,,,,,,,,,,,,,,,,,,0,,,,,,,,,,,,,,,,,,,,,,,,,,,,left,1,160,-30,130,0,2562.628978,2562.628978,2562.628978,None,None,2,0,0.5798193,,,,,,,,,,,,,,,,,,,,,,10,14,2,2024-10-31_11h01.37.967,uWM_experiment,2022.2.3,59.99779208
,,,,,,,,,,,,,,,,,,,,7,0,7,0,21,0,21,0,,,,,,,,,,,,,,,,,,,,,,,,,,,,,,,,,,,,,,,,,,,,,,,,,,,,,,,,,,,,,,,,,,,,,,0.363170229,,,,,,,,,,,,,,,,,,,,,,,,,,,,left,0,70,30,100,1,2568.862599,2568.862599,2568.862599,None,None,1,1,0.2661216,,,,,,,,,,,,,,,,,,,,,,10,14,2,2024-10-31_11h01.37.967,uWM_experiment,2022.2.3,59.99779208
,,,,,,,,,,,,,,,,,,,,7,0,7,0,22,0,22,0,,,,,,,,,,,,,,,,,,,,,,,,,,,,,,,,,,,,,,,,,,,,,,,,,,,,,,,,,,,,,,,,,,,,,,0.373170229,,,,,,,,,,,,,,,,,,,,,,,,,,,,right,1,100,30,130,1,2574.862874,2574.862874,2574.862874,None,None,3,0,0.369793,,,,,,,,,,,,,,,,,,,,,,10,14,2,2024-10-31_11h01.37.967,uWM_experiment,2022.2.3,59.99779208
,,,,,,,,,,,,,,,,,,,,7,0,7,0,23,0,23,0,,,,,,,,,,,,,,,,,,,,,,,,,,,,,,,,,,,,,,,,,,,,,,,,,,,,,,,,,,,,,,,,,,,,,,0.1,,,,,,,,,,,,,,,,,,,,,,,,,,,,right,0,100,-30,70,2,2581.163154,2581.163154,2581.163154,None,None,1,1,0.2135881,,,,,,,,,,,,,,,,,,,,,,10,14,2,2024-10-31_11h01.37.967,uWM_experiment,2022.2.3,59.99779208
,,,,,,,,,,,,,,,,,,,,7,0,7,0,,,,,0,0,0,0,,,,,,,,,,,,,,,,,,,,,,,,,,,,,,,,,,,,,,,,,,,,,,,,,,,,,,,,,,,,,,,,,,,,,,,,,,,,,,,,,,,,,,,,,,,,,,,,,,,,,,,,,,,,2581.396467,2581.396467,space,2.0603322,None,None,,,,,,,,,,,,,,,,10,14,2,2024-10-31_11h01.37.967,uWM_experiment,2022.2.3,59.99779208
,,,,,,,,,,,,,,,,,,,,7,0,7,0,,,,,1,0,1,0,,,,,,,,,,,,,,,,,,,,,,,,,,,,,,,,,,,,,,,,,,,,,,,,,,,,,,,,,,,,,,,,,,,,,,,,,,,,,,,,,,,,,,,,,,,,,,,,,,,,,,,,,,,,,,,,,,,,,,,,,,,,,,,,,10,14,2,2024-10-31_11h01.37.967,uWM_experiment,2022.2.3,59.99779208
,,,,,,,,,,,,,,,,,,,,7,0,7,0,,,,,2,0,2,0,,,,,,,,,,,,,,,,,,,,,,,,,,,,,,,,,,,,,,,,,,,,,,,,,,,,,,,,,,,,,,,,,,,,,,,,,,,,,,,,,,,,,,,,,,,,,,,,,,,,,,,,,,,,,,,,,,,,,,,,,,,,,,,,,10,14,2,2024-10-31_11h01.37.967,uWM_experiment,2022.2.3,59.99779208
,,,,,,,,,,,,,,,,,,,,8,0,8,0,0,0,0,0,,,,,,,,,,,,,,,,,,,,,,,,,,,,,,,,,,,,,,,,,,,,,,,,,,,,,,,,,,,,,,,,,,,,,,0.363170229,,,,,,,,,,,,,,,,,,,,2583.479898,2584.179933,2584.479946,2585.179977,2585.479991,2586.18001,2586.18001,2586.496705,left,0,130,30,160,1,2591.046915,2591.046915,2591.046915,None,None,1,1,0.2177932,,,,,,,None,,,,,,,,,,,,,,,10,14,2,2024-10-31_11h01.37.967,uWM_experiment,2022.2.3,59.99779208
,,,,,,,,,,,,,,,,,,,,8,0,8,0,1,0,1,0,,,,,,,,,,,,,,,,,,,,,,,,,,,,,,,,,,,,,,,,,,,,,,,,,,,,,,,,,,,,,,,,,,,,,,0.373170229,,,,,,,,,,,,,,,,,,,,,,,,,,,,left,0,100,30,130,1,2596.99718,2596.99718,2596.99718,None,None,2,0,0.307652,,,,,,,,,,,,,,,,,,,,,,10,14,2,2024-10-31_11h01.37.967,uWM_experiment,2022.2.3,59.99779208
,,,,,,,,,,,,,,,,,,,,8,0,8,0,2,0,2,0,,,,,,,,,,,,,,,,,,,,,,,,,,,,,,,,,,,,,,,,,,,,,,,,,,,,,,,,,,,,,,,,,,,,,,0,,,,,,,,,,,,,,,,,,,,,,,,,,,,right,0,100,-30,70,0,2602.930782,2602.930782,2602.930782,None,None,1,1,0.1899035,,,,,,,,,,,,,,,,,,,,,,10,14,2,2024-10-31_11h01.37.967,uWM_experiment,2022.2.3,59.99779208
,,,,,,,,,,,,,,,,,,,,8,0,8,0,3,0,3,0,,,,,,,,,,,,,,,,,,,,,,,,,,,,,,,,,,,,,,,,,,,,,,,,,,,,,,,,,,,,,,,,,,,,,,0,,,,,,,,,,,,,,,,,,,,,,,,,,,,left,0,100,30,130,0,2608.347702,2608.347702,2608.347702,None,None,1,1,0.2530133,,,,,,,,,,,,,,,,,,,,,,10,14,2,2024-10-31_11h01.37.967,uWM_experiment,2022.2.3,59.99779208
,,,,,,,,,,,,,,,,,,,,8,0,8,0,4,0,4,0,,,,,,,,,,,,,,,,,,,,,,,,,,,,,,,,,,,,,,,,,,,,,,,,,,,,,,,,,,,,,,,,,,,,,,0,,,,,,,,,,,,,,,,,,,,,,,,,,,,right,1,100,30,130,0,2614.597993,2614.597993,2614.597993,None,None,1,1,0.3547701,,,,,,,,,,,,,,,,,,,,,,10,14,2,2024-10-31_11h01.37.967,uWM_experiment,2022.2.3,59.99779208
,,,,,,,,,,,,,,,,,,,,8,0,8,0,5,0,5,0,,,,,,,,,,,,,,,,,,,,,,,,,,,,,,,,,,,,,,,,,,,,,,,,,,,,,,,,,,,,,,,,,,,,,,0.363170229,,,,,,,,,,,,,,,,,,,,,,,,,,,,left,1,10,-30,-20,1,2620.548258,2620.548258,2620.548258,None,None,1,1,0.2204608,,,,,,,,,,,,,,,,,,,,,,10,14,2,2024-10-31_11h01.37.967,uWM_experiment,2022.2.3,59.99779208
,,,,,,,,,,,,,,,,,,,,8,0,8,0,6,0,6,0,,,,,,,,,,,,,,,,,,,,,,,,,,,,,,,,,,,,,,,,,,,,,,,,,,,,,,,,,,,,,,,,,,,,,,0.373170229,,,,,,,,,,,,,,,,,,,,,,,,,,,,left,1,160,-30,130,1,2626.365179,2626.365179,2626.365179,None,None,2,0,0.3955911,,,,,,,,,,,,,,,,,,,,,,10,14,2,2024-10-31_11h01.37.967,uWM_experiment,2022.2.3,59.99779208
,,,,,,,,,,,,,,,,,,,,8,0,8,0,7,0,7,0,,,,,,,,,,,,,,,,,,,,,,,,,,,,,,,,,,,,,,,,,,,,,,,,,,,,,,,,,,,,,,,,,,,,,,0.363170229,,,,,,,,,,,,,,,,,,,,,,,,,,,,left,1,130,-30,100,1,2632.698853,2632.698853,2632.698853,None,None,1,1,1.1100082,,,,,,,,,,,,,,,,,,,,,,10,14,2,2024-10-31_11h01.37.967,uWM_experiment,2022.2.3,59.99779208
,,,,,,,,,,,,,,,,,,,,8,0,8,0,8,0,8,0,,,,,,,,,,,,,,,,,,,,,,,,,,,,,,,,,,,,,,,,,,,,,,,,,,,,,,,,,,,,,,,,,,,,,,0.373170229,,,,,,,,,,,,,,,,,,,,,,,,,,,,right,0,100,-30,70,1,2640.182455,2640.182455,2640.182455,None,None,1,1,0.4823161,,,,,,,,,,,,,,,,,,,,,,10,14,2,2024-10-31_11h01.37.967,uWM_experiment,2022.2.3,59.99779208
,,,,,,,,,,,,,,,,,,,,8,0,8,0,9,0,9,0,,,,,,,,,,,,,,,,,,,,,,,,,,,,,,,,,,,,,,,,,,,,,,,,,,,,,,,,,,,,,,,,,,,,,,0,,,,,,,,,,,,,,,,,,,,,,,,,,,,left,1,40,-30,10,0,2647.532784,2647.532784,2647.532784,None,None,1,1,0.8679815,,,,,,,,,,,,,,,,,,,,,,10,14,2,2024-10-31_11h01.37.967,uWM_experiment,2022.2.3,59.99779208
,,,,,,,,,,,,,,,,,,,,8,0,8,0,10,0,10,0,,,,,,,,,,,,,,,,,,,,,,,,,,,,,,,,,,,,,,,,,,,,,,,,,,,,,,,,,,,,,,,,,,,,,,0.383170229,,,,,,,,,,,,,,,,,,,,,,,,,,,,left,0,130,30,160,1,2665.150278,2665.150278,2665.150278,None,None,3,0,1.1625322,,,,,,,,,,,,,,,,,,,,,,10,14,2,2024-10-31_11h01.37.967,uWM_experiment,2022.2.3,59.99779208
,,,,,,,,,,,,,,,,,,,,8,0,8,0,11,0,11,0,,,,,,,,,,,,,,,,,,,,,,,,,,,,,,,,,,,,,,,,,,,,,,,,,,,,,,,,,,,,,,,,,,,,,,0.373170229,,,,,,,,,,,,,,,,,,,,,,,,,,,,right,1,10,30,40,1,2673.900632,2673.900632,2673.900632,None,None,1,1,1.260261,,,,,,,,,,,,,,,,,,,,,,10,14,2,2024-10-31_11h01.37.967,uWM_experiment,2022.2.3,59.99779208
,,,,,,,,,,,,,,,,,,,,8,0,8,0,12,0,12,0,,,,,,,,,,,,,,,,,,,,,,,,,,,,,,,,,,,,,,,,,,,,,,,,,,,,,,,,,,,,,,,,,,,,,,0.383170229,,,,,,,,,,,,,,,,,,,,,,,,,,,,left,1,70,-30,40,1,2684.134434,2684.134434,2684.134434,None,None,1,1,0.2343205,,,,,,,,,,,,,,,,,,,,,,10,14,2,2024-10-31_11h01.37.967,uWM_experiment,2022.2.3,59.99779208
,,,,,,,,,,,,,,,,,,,,8,0,8,0,13,0,13,0,,,,,,,,,,,,,,,,,,,,,,,,,,,,,,,,,,,,,,,,,,,,,,,,,,,,,,,,,,,,,,,,,,,,,,0.393170229,,,,,,,,,,,,,,,,,,,,,,,,,,,,right,1,40,30,70,1,2693.084824,2693.084824,2693.084824,None,None,2,0,0.9640374,,,,,,,,,,,,,,,,,,,,,,10,14,2,2024-10-31_11h01.37.967,uWM_experiment,2022.2.3,59.99779208
,,,,,,,,,,,,,,,,,,,,8,0,8,0,14,0,14,0,,,,,,,,,,,,,,,,,,,,,,,,,,,,,,,,,,,,,,,,,,,,,,,,,,,,,,,,,,,,,,,,,,,,,,0.383170229,,,,,,,,,,,,,,,,,,,,,,,,,,,,right,1,40,30,70,1,2700.018478,2700.018478,2700.018478,None,None,1,1,0.262372,,,,,,,,,,,,,,,,,,,,,,10,14,2,2024-10-31_11h01.37.967,uWM_experiment,2022.2.3,59.99779208
,,,,,,,,,,,,,,,,,,,,8,0,8,0,15,0,15,0,,,,,,,,,,,,,,,,,,,,,,,,,,,,,,,,,,,,,,,,,,,,,,,,,,,,,,,,,,,,,,,,,,,,,,0,,,,,,,,,,,,,,,,,,,,,,,,,,,,right,1,40,30,70,0,2706.018728,2706.018728,2706.018728,None,None,1,1,0.2860095,,,,,,,,,,,,,,,,,,,,,,10,14,2,2024-10-31_11h01.37.967,uWM_experiment,2022.2.3,59.99779208
,,,,,,,,,,,,,,,,,,,,8,0,8,0,16,0,16,0,,,,,,,,,,,,,,,,,,,,,,,,,,,,,,,,,,,,,,,,,,,,,,,,,,,,,,,,,,,,,,,,,,,,,,0.393170229,,,,,,,,,,,,,,,,,,,,,,,,,,,,left,0,10,30,40,1,2711.518977,2711.518977,2711.518977,None,None,1,1,2.3939428,,,,,,,,,,,,,,,,,,,,,,10,14,2,2024-10-31_11h01.37.967,uWM_experiment,2022.2.3,59.99779208
,,,,,,,,,,,,,,,,,,,,8,0,8,0,17,0,17,0,,,,,,,,,,,,,,,,,,,,,,,,,,,,,,,,,,,,,,,,,,,,,,,,,,,,,,,,,,,,,,,,,,,,,,0,,,,,,,,,,,,,,,,,,,,,,,,,,,,right,1,10,30,40,0,2719.419342,2719.419342,2719.419342,None,None,1,1,0.2854502,,,,,,,,,,,,,,,,,,,,,,10,14,2,2024-10-31_11h01.37.967,uWM_experiment,2022.2.3,59.99779208
,,,,,,,,,,,,,,,,,,,,8,0,8,0,18,0,18,0,,,,,,,,,,,,,,,,,,,,,,,,,,,,,,,,,,,,,,,,,,,,,,,,,,,,,,,,,,,,,,,,,,,,,,0.403170229,,,,,,,,,,,,,,,,,,,,,,,,,,,,left,0,130,30,160,1,2725.702963,2725.702963,2725.702963,None,None,1,1,0.2258421,,,,,,,,,,,,,,,,,,,,,,10,14,2,2024-10-31_11h01.37.967,uWM_experiment,2022.2.3,59.99779208
,,,,,,,,,,,,,,,,,,,,8,0,8,0,19,0,19,0,,,,,,,,,,,,,,,,,,,,,,,,,,,,,,,,,,,,,,,,,,,,,,,,,,,,,,,,,,,,,,,,,,,,,,0,,,,,,,,,,,,,,,,,,,,,,,,,,,,right,0,40,-30,10,0,2732.603262,2732.603262,2732.603262,None,None,1,1,0.813566,,,,,,,,,,,,,,,,,,,,,,10,14,2,2024-10-31_11h01.37.967,uWM_experiment,2022.2.3,59.99779208
,,,,,,,,,,,,,,,,,,,,8,0,8,0,20,0,20,0,,,,,,,,,,,,,,,,,,,,,,,,,,,,,,,,,,,,,,,,,,,,,,,,,,,,,,,,,,,,,,,,,,,,,,0,,,,,,,,,,,,,,,,,,,,,,,,,,,,left,1,160,-30,130,0,2739.303565,2739.303565,2739.303565,None,None,1,1,0.3371974,,,,,,,,,,,,,,,,,,,,,,10,14,2,2024-10-31_11h01.37.967,uWM_experiment,2022.2.3,59.99779208
,,,,,,,,,,,,,,,,,,,,8,0,8,0,21,0,21,0,,,,,,,,,,,,,,,,,,,,,,,,,,,,,,,,,,,,,,,,,,,,,,,,,,,,,,,,,,,,,,,,,,,,,,0.413170229,,,,,,,,,,,,,,,,,,,,,,,,,,,,right,0,130,-30,100,1,2745.537161,2745.537161,2745.537161,None,None,1,1,0.3917256,,,,,,,,,,,,,,,,,,,,,,10,14,2,2024-10-31_11h01.37.967,uWM_experiment,2022.2.3,59.99779208
,,,,,,,,,,,,,,,,,,,,8,0,8,0,22,0,22,0,,,,,,,,,,,,,,,,,,,,,,,,,,,,,,,,,,,,,,,,,,,,,,,,,,,,,,,,,,,,,,,,,,,,,,0.1,,,,,,,,,,,,,,,,,,,,,,,,,,,,left,1,160,-30,130,2,2752.804165,2752.804165,2752.804165,None,None,1,1,0.2845815,,,,,,,,,,,,,,,,,,,,,,10,14,2,2024-10-31_11h01.37.967,uWM_experiment,2022.2.3,59.99779208
,,,,,,,,,,,,,,,,,,,,8,0,8,0,23,0,23,0,,,,,,,,,,,,,,,,,,,,,,,,,,,,,,,,,,,,,,,,,,,,,,,,,,,,,,,,,,,,,,,,,,,,,,0.423170229,,,,,,,,,,,,,,,,,,,,,,,,,,,,left,0,70,30,100,1,2758.987774,2758.987774,2758.987774,None,None,1,1,0.2689959,,,,,,,,,,,,,,,,,,,,,,10,14,2,2024-10-31_11h01.37.967,uWM_experiment,2022.2.3,59.99779208
,,,,,,,,,,,,,,,,,,,,8,0,8,0,,,,,0,0,0,0,,,,,,,,,,,,,,,,,,,,,,,,,,,,,,,,,,,,,,,,,,,,,,,,,,,,,,,,,,,,,,,,,,,,,,,,,,,,,,,,,,,,,,,,,,,,,,,,,,,,,,,,,,,,2759.287743,2759.287743,space,2.9211898,space,None,,2762.237906,2762.237906,1.0109478,,,,,,,,,,,,10,14,2,2024-10-31_11h01.37.967,uWM_experiment,2022.2.3,59.99779208
,,,,,,,,,,,,,,,,,,,,8,0,8,0,,,,,1,0,1,0,,,,,,,,,,,,,,,,,,,,,,,,,,,,,,,,,,,,,,,,,,,,,,,,,,,,,,,,,,,,,,,,,,,,,,,,,,,,,,,,,,,,,,,,,,,,,,,,,,,,,,,,,,,,,,,,,,,,,,,,,,,,,,,,,10,14,2,2024-10-31_11h01.37.967,uWM_experiment,2022.2.3,59.99779208
,,,,,,,,,,,,,,,,,,,,8,0,8,0,,,,,2,0,2,0,,,,,,,,,,,,,,,,,,,,,,,,,,,,,,,,,,,,,,,,,,,,,,,,,,,,,,,,,,,,,,,,,,,,,,,,,,,,,,,,,,,,,,,,,,,,,,,,,,,,,,,,,,,,,,,,,,,,,,,,,,,,,,,,,10,14,2,2024-10-31_11h01.37.967,uWM_experiment,2022.2.3,59.99779208
,,,,,,,,,,,,,,,,,,,,9,0,9,0,0,0,0,0,,,,,,,,,,,,,,,,,,,,,,,,,,,,,,,,,,,,,,,,,,,,,,,,,,,,,,,,,,,,,,,,,,,,,,0.433170229,,,,,,,,,,,,,,,,,,,,2763.271288,2763.971317,2764.271334,2764.97136,2765.27137,2765.971406,2765.971406,2766.288091,left,1,160,-30,130,1,2770.854982,2770.854982,2770.854982,None,None,1,1,0.2818949,,,,,,,None,,,,,,,,,,,,,,,10,14,2,2024-10-31_11h01.37.967,uWM_experiment,2022.2.3,59.99779208
,,,,,,,,,,,,,,,,,,,,9,0,9,0,1,0,1,0,,,,,,,,,,,,,,,,,,,,,,,,,,,,,,,,,,,,,,,,,,,,,,,,,,,,,,,,,,,,,,,,,,,,,,0.443170229,,,,,,,,,,,,,,,,,,,,,,,,,,,,left,1,10,-30,-20,1,2776.805263,2776.805263,2776.805263,None,None,1,1,0.4916762,,,,,,,,,,,,,,,,,,,,,,10,14,2,2024-10-31_11h01.37.967,uWM_experiment,2022.2.3,59.99779208
,,,,,,,,,,,,,,,,,,,,9,0,9,0,2,0,2,0,,,,,,,,,,,,,,,,,,,,,,,,,,,,,,,,,,,,,,,,,,,,,,,,,,,,,,,,,,,,,,,,,,,,,,0.453170229,,,,,,,,,,,,,,,,,,,,,,,,,,,,right,0,130,-30,100,1,2783.255521,2783.255521,2783.255521,None,None,2,0,0.3613685,,,,,,,,,,,,,,,,,,,,,,10,14,2,2024-10-31_11h01.37.967,uWM_experiment,2022.2.3,59.99779208
,,,,,,,,,,,,,,,,,,,,9,0,9,0,3,0,3,0,,,,,,,,,,,,,,,,,,,,,,,,,,,,,,,,,,,,,,,,,,,,,,,,,,,,,,,,,,,,,,,,,,,,,,0.443170229,,,,,,,,,,,,,,,,,,,,,,,,,,,,left,1,10,-30,-20,1,2792.372598,2792.372598,2792.372598,None,None,1,1,0.4442731,,,,,,,,,,,,,,,,,,,,,,10,14,2,2024-10-31_11h01.37.967,uWM_experiment,2022.2.3,59.99779208
,,,,,,,,,,,,,,,,,,,,9,0,9,0,4,0,4,0,,,,,,,,,,,,,,,,,,,,,,,,,,,,,,,,,,,,,,,,,,,,,,,,,,,,,,,,,,,,,,,,,,,,,,0.453170229,,,,,,,,,,,,,,,,,,,,,,,,,,,,right,0,70,-30,40,1,2801.53974,2801.53974,2801.53974,None,None,1,1,0.4611011,,,,,,,,,,,,,,,,,,,,,,10,14,2,2024-10-31_11h01.37.967,uWM_experiment,2022.2.3,59.99779208
,,,,,,,,,,,,,,,,,,,,9,0,9,0,5,0,5,0,,,,,,,,,,,,,,,,,,,,,,,,,,,,,,,,,,,,,,,,,,,,,,,,,,,,,,,,,,,,,,,,,,,,,,0,,,,,,,,,,,,,,,,,,,,,,,,,,,,right,1,10,30,40,0,2809.006698,2809.006698,2809.006698,None,None,1,1,0.5942096,,,,,,,,,,,,,,,,,,,,,,10,14,2,2024-10-31_11h01.37.967,uWM_experiment,2022.2.3,59.99779208
,,,,,,,,,,,,,,,,,,,,9,0,9,0,6,0,6,0,,,,,,,,,,,,,,,,,,,,,,,,,,,,,,,,,,,,,,,,,,,,,,,,,,,,,,,,,,,,,,,,,,,,,,0.463170229,,,,,,,,,,,,,,,,,,,,,,,,,,,,left,1,130,-30,100,1,2815.723659,2815.723659,2815.723659,None,None,1,1,0.7011463,,,,,,,,,,,,,,,,,,,,,,10,14,2,2024-10-31_11h01.37.967,uWM_experiment,2022.2.3,59.99779208
,,,,,,,,,,,,,,,,,,,,9,0,9,0,7,0,7,0,,,,,,,,,,,,,,,,,,,,,,,,,,,,,,,,,,,,,,,,,,,,,,,,,,,,,,,,,,,,,,,,,,,,,,0.473170229,,,,,,,,,,,,,,,,,,,,,,,,,,,,right,0,70,-30,40,1,2823.457336,2823.457336,2823.457336,None,None,2,0,0.3915599,,,,,,,,,,,,,,,,,,,,,,10,14,2,2024-10-31_11h01.37.967,uWM_experiment,2022.2.3,59.99779208
,,,,,,,,,,,,,,,,,,,,9,0,9,0,8,0,8,0,,,,,,,,,,,,,,,,,,,,,,,,,,,,,,,,,,,,,,,,,,,,,,,,,,,,,,,,,,,,,,,,,,,,,,0.463170229,,,,,,,,,,,,,,,,,,,,,,,,,,,,right,0,100,-30,70,1,2829.657623,2829.657623,2829.657623,None,None,1,1,0.2232295,,,,,,,,,,,,,,,,,,,,,,10,14,2,2024-10-31_11h01.37.967,uWM_experiment,2022.2.3,59.99779208
,,,,,,,,,,,,,,,,,,,,9,0,9,0,9,0,9,0,,,,,,,,,,,,,,,,,,,,,,,,,,,,,,,,,,,,,,,,,,,,,,,,,,,,,,,,,,,,,,,,,,,,,,0.473170229,,,,,,,,,,,,,,,,,,,,,,,,,,,,left,1,160,-30,130,1,2836.407906,2836.407906,2836.407906,None,None,2,0,0.4649746,,,,,,,,,,,,,,,,,,,,,,10,14,2,2024-10-31_11h01.37.967,uWM_experiment,2022.2.3,59.99779208
,,,,,,,,,,,,,,,,,,,,9,0,9,0,10,0,10,0,,,,,,,,,,,,,,,,,,,,,,,,,,,,,,,,,,,,,,,,,,,,,,,,,,,,,,,,,,,,,,,,,,,,,,0,,,,,,,,,,,,,,,,,,,,,,,,,,,,right,0,100,-30,70,0,2842.458181,2842.458181,2842.458181,None,None,1,1,0.3266945,,,,,,,,,,,,,,,,,,,,,,10,14,2,2024-10-31_11h01.37.967,uWM_experiment,2022.2.3,59.99779208
,,,,,,,,,,,,,,,,,,,,9,0,9,0,11,0,11,0,,,,,,,,,,,,,,,,,,,,,,,,,,,,,,,,,,,,,,,,,,,,,,,,,,,,,,,,,,,,,,,,,,,,,,0.463170229,,,,,,,,,,,,,,,,,,,,,,,,,,,,left,1,70,-30,40,1,2857.442198,2857.442198,2857.442198,None,None,2,0,1.8866172,,,,,,,,,,,,,,,,,,,,,,10,14,2,2024-10-31_11h01.37.967,uWM_experiment,2022.2.3,59.99779208
,,,,,,,,,,,,,,,,,,,,9,0,9,0,12,0,12,0,,,,,,,,,,,,,,,,,,,,,,,,,,,,,,,,,,,,,,,,,,,,,,,,,,,,,,,,,,,,,,,,,,,,,,0,,,,,,,,,,,,,,,,,,,,,,,,,,,,left,1,40,-30,10,0,2871.926173,2871.926173,2871.926173,None,None,1,1,1.4027029,,,,,,,,,,,,,,,,,,,,,,10,14,2,2024-10-31_11h01.37.967,uWM_experiment,2022.2.3,59.99779208
,,,,,,,,,,,,,,,,,,,,9,0,9,0,13,0,13,0,,,,,,,,,,,,,,,,,,,,,,,,,,,,,,,,,,,,,,,,,,,,,,,,,,,,,,,,,,,,,,,,,,,,,,0.453170229,,,,,,,,,,,,,,,,,,,,,,,,,,,,right,1,160,30,190,1,2883.926687,2883.926687,2883.926687,None,None,1,1,0.5381414,,,,,,,,,,,,,,,,,,,,,,10,14,2,2024-10-31_11h01.37.967,uWM_experiment,2022.2.3,59.99779208
,,,,,,,,,,,,,,,,,,,,9,0,9,0,14,0,14,0,,,,,,,,,,,,,,,,,,,,,,,,,,,,,,,,,,,,,,,,,,,,,,,,,,,,,,,,,,,,,,,,,,,,,,0.463170229,,,,,,,,,,,,,,,,,,,,,,,,,,,,left,0,70,30,100,1,2893.643832,2893.643832,2893.643832,None,None,1,1,0.4611323,,,,,,,,,,,,,,,,,,,,,,10,14,2,2024-10-31_11h01.37.967,uWM_experiment,2022.2.3,59.99779208
,,,,,,,,,,,,,,,,,,,,9,0,9,0,15,0,15,0,,,,,,,,,,,,,,,,,,,,,,,,,,,,,,,,,,,,,,,,,,,,,,,,,,,,,,,,,,,,,,,,,,,,,,0.1,,,,,,,,,,,,,,,,,,,,,,,,,,,,left,1,40,-30,10,2,2900.460792,2900.460792,2900.460792,None,None,2,0,2.8121983,,,,,,,,,,,,,,,,,,,,,,10,14,2,2024-10-31_11h01.37.967,uWM_experiment,2022.2.3,59.99779208
,,,,,,,,,,,,,,,,,,,,9,0,9,0,16,0,16,0,,,,,,,,,,,,,,,,,,,,,,,,,,,,,,,,,,,,,,,,,,,,,,,,,,,,,,,,,,,,,,,,,,,,,,0,,,,,,,,,,,,,,,,,,,,,,,,,,,,left,1,10,-30,-20,0,2910.99459,2910.99459,2910.99459,None,None,1,1,0.2702959,,,,,,,,,,,,,,,,,,,,,,10,14,2,2024-10-31_11h01.37.967,uWM_experiment,2022.2.3,59.99779208
,,,,,,,,,,,,,,,,,,,,9,0,9,0,17,0,17,0,,,,,,,,,,,,,,,,,,,,,,,,,,,,,,,,,,,,,,,,,,,,,,,,,,,,,,,,,,,,,,,,,,,,,,0.473170229,,,,,,,,,,,,,,,,,,,,,,,,,,,,right,0,100,-30,70,1,2916.794833,2916.794833,2916.794833,None,None,2,0,0.3420802,,,,,,,,,,,,,,,,,,,,,,10,14,2,2024-10-31_11h01.37.967,uWM_experiment,2022.2.3,59.99779208
,,,,,,,,,,,,,,,,,,,,9,0,9,0,18,0,18,0,,,,,,,,,,,,,,,,,,,,,,,,,,,,,,,,,,,,,,,,,,,,,,,,,,,,,,,,,,,,,,,,,,,,,,0.1,,,,,,,,,,,,,,,,,,,,,,,,,,,,left,0,160,30,190,2,2922.628442,2922.628442,2922.628442,None,None,1,1,0.3884543,,,,,,,,,,,,,,,,,,,,,,10,14,2,2024-10-31_11h01.37.967,uWM_experiment,2022.2.3,59.99779208
,,,,,,,,,,,,,,,,,,,,9,0,9,0,19,0,19,0,,,,,,,,,,,,,,,,,,,,,,,,,,,,,,,,,,,,,,,,,,,,,,,,,,,,,,,,,,,,,,,,,,,,,,0.463170229,,,,,,,,,,,,,,,,,,,,,,,,,,,,left,0,130,30,160,1,2928.645415,2928.645415,2928.645415,None,None,2,0,0.3795472,,,,,,,,,,,,,,,,,,,,,,10,14,2,2024-10-31_11h01.37.967,uWM_experiment,2022.2.3,59.99779208
,,,,,,,,,,,,,,,,,,,,9,0,9,0,20,0,20,0,,,,,,,,,,,,,,,,,,,,,,,,,,,,,,,,,,,,,,,,,,,,,,,,,,,,,,,,,,,,,,,,,,,,,,0.1,,,,,,,,,,,,,,,,,,,,,,,,,,,,left,1,40,-30,10,2,2935.212343,2935.212343,2935.212343,None,None,1,1,0.2926592,,,,,,,,,,,,,,,,,,,,,,10,14,2,2024-10-31_11h01.37.967,uWM_experiment,2022.2.3,59.99779208
,,,,,,,,,,,,,,,,,,,,9,0,9,0,21,0,21,0,,,,,,,,,,,,,,,,,,,,,,,,,,,,,,,,,,,,,,,,,,,,,,,,,,,,,,,,,,,,,,,,,,,,,,0.453170229,,,,,,,,,,,,,,,,,,,,,,,,,,,,left,0,130,30,160,1,2941.145946,2941.145946,2941.145946,None,None,2,0,1.3029244,,,,,,,,,,,,,,,,,,,,,,10,14,2,2024-10-31_11h01.37.967,uWM_experiment,2022.2.3,59.99779208
,,,,,,,,,,,,,,,,,,,,9,0,9,0,22,0,22,0,,,,,,,,,,,,,,,,,,,,,,,,,,,,,,,,,,,,,,,,,,,,,,,,,,,,,,,,,,,,,,,,,,,,,,0.443170229,,,,,,,,,,,,,,,,,,,,,,,,,,,,left,1,100,-30,70,1,2948.629618,2948.629618,2948.629618,None,None,1,1,0.275283,,,,,,,,,,,,,,,,,,,,,,10,14,2,2024-10-31_11h01.37.967,uWM_experiment,2022.2.3,59.99779208
,,,,,,,,,,,,,,,,,,,,9,0,9,0,23,0,23,0,,,,,,,,,,,,,,,,,,,,,,,,,,,,,,,,,,,,,,,,,,,,,,,,,,,,,,,,,,,,,,,,,,,,,,0,,,,,,,,,,,,,,,,,,,,,,,,,,,,left,1,10,-30,-20,0,2955.013213,2955.013213,2955.013213,None,None,2,0,0.4277835,,,,,,,,,,,,,,,,,,,,,,10,14,2,2024-10-31_11h01.37.967,uWM_experiment,2022.2.3,59.99779208
,,,,,,,,,,,,,,,,,,,,9,0,9,0,,,,,0,0,0,0,,,,,,,,,,,,,,,,,,,,,,,,,,,,,,,,,,,,,,,,,,,,,,,,,,,,,,,,,,,,,,,,,,,,,,,,,,,,,,,,,,,,,,,,,,,,,,,,,,,,,,,,,,,,2955.463247,2955.463247,space,385.3140743,None,None,,,,,,,,,,,,,,,,10,14,2,2024-10-31_11h01.37.967,uWM_experiment,2022.2.3,59.99779208
,,,,,,,,,,,,,,,,,,,,9,0,9,0,,,,,1,0,1,0,,,,,,,,,,,,,,,,,,,,,,,,,,,,,,,,,,,,,,,,,,,,,,,,,,,,,,,,,,,,,,,,,,,,,,,,,,,,,,,,,,,,,,,,,,,,,,,,,,,,,,,,,,,,,,,,,,,,,,,,,,,,,,,,,10,14,2,2024-10-31_11h01.37.967,uWM_experiment,2022.2.3,59.99779208
,,,,,,,,,,,,,,,,,,,,9,0,9,0,,,,,2,0,2,0,,,,,,,,,,,,,,,,,,,,,,,,,,,,,,,,,,,,,,,,,,,,,,,,,,,,,,,,,,,,,,,,,,,,,,,,,,,,,,,,,,,,,,,,,,,,,,,,,,,,,,,,,,,,,,,,,,,,,,,,,,,,,,,,,10,14,2,2024-10-31_11h01.37.967,uWM_experiment,2022.2.3,59.99779208
,,,,,,,,,,,,,,,,,,,,10,0,10,0,0,0,0,0,,,,,,,,,,,,,,,,,,,,,,,,,,,,,,,,,,,,,,,,,,,,,,,,,,,,,,,,,,,,,,,,,,,,,,0.453170229,,,,,,,,,,,,,,,,,,,,3340.797193,3341.497215,3341.797234,3342.497262,3342.797262,3343.497304,3343.497304,3343.813999,right,1,40,30,70,1,3348.497542,3348.497542,3348.497542,None,None,1,1,0.2075671,,,,,,,None,,,,,,,,,,,,,,,10,14,2,2024-10-31_11h01.37.967,uWM_experiment,2022.2.3,59.99779208
,,,,,,,,,,,,,,,,,,,,10,0,10,0,1,0,1,0,,,,,,,,,,,,,,,,,,,,,,,,,,,,,,,,,,,,,,,,,,,,,,,,,,,,,,,,,,,,,,,,,,,,,,0.463170229,,,,,,,,,,,,,,,,,,,,,,,,,,,,left,1,100,-30,70,1,3353.931119,3353.931119,3353.931119,None,None,2,0,0.3420599,,,,,,,,,,,,,,,,,,,,,,10,14,2,2024-10-31_11h01.37.967,uWM_experiment,2022.2.3,59.99779208
,,,,,,,,,,,,,,,,,,,,10,0,10,0,2,0,2,0,,,,,,,,,,,,,,,,,,,,,,,,,,,,,,,,,,,,,,,,,,,,,,,,,,,,,,,,,,,,,,,,,,,,,,0.453170229,,,,,,,,,,,,,,,,,,,,,,,,,,,,left,0,130,30,160,1,3359.781401,3359.781401,3359.781401,None,None,1,1,0.2277539,,,,,,,,,,,,,,,,,,,,,,10,14,2,2024-10-31_11h01.37.967,uWM_experiment,2022.2.3,59.99779208
,,,,,,,,,,,,,,,,,,,,10,0,10,0,3,0,3,0,,,,,,,,,,,,,,,,,,,,,,,,,,,,,,,,,,,,,,,,,,,,,,,,,,,,,,,,,,,,,,,,,,,,,,0.463170229,,,,,,,,,,,,,,,,,,,,,,,,,,,,left,1,160,-30,130,1,3365.481632,3365.481632,3365.481632,None,None,1,1,0.2155075,,,,,,,,,,,,,,,,,,,,,,10,14,2,2024-10-31_11h01.37.967,uWM_experiment,2022.2.3,59.99779208
,,,,,,,,,,,,,,,,,,,,10,0,10,0,4,0,4,0,,,,,,,,,,,,,,,,,,,,,,,,,,,,,,,,,,,,,,,,,,,,,,,,,,,,,,,,,,,,,,,,,,,,,,0.1,,,,,,,,,,,,,,,,,,,,,,,,,,,,right,0,70,-30,40,2,3371.348568,3371.348568,3371.348568,None,None,1,1,0.2606067,,,,,,,,,,,,,,,,,,,,,,10,14,2,2024-10-31_11h01.37.967,uWM_experiment,2022.2.3,59.99779208
,,,,,,,,,,,,,,,,,,,,10,0,10,0,5,0,5,0,,,,,,,,,,,,,,,,,,,,,,,,,,,,,,,,,,,,,,,,,,,,,,,,,,,,,,,,,,,,,,,,,,,,,,0.473170229,,,,,,,,,,,,,,,,,,,,,,,,,,,,left,1,10,-30,-20,1,3377.182181,3377.182181,3377.182181,None,None,1,1,0.2830385,,,,,,,,,,,,,,,,,,,,,,10,14,2,2024-10-31_11h01.37.967,uWM_experiment,2022.2.3,59.99779208
,,,,,,,,,,,,,,,,,,,,10,0,10,0,6,0,6,0,,,,,,,,,,,,,,,,,,,,,,,,,,,,,,,,,,,,,,,,,,,,,,,,,,,,,,,,,,,,,,,,,,,,,,0.483170229,,,,,,,,,,,,,,,,,,,,,,,,,,,,right,0,100,-30,70,1,3383.115767,3383.115767,3383.115767,None,None,1,1,0.2533025,,,,,,,,,,,,,,,,,,,,,,10,14,2,2024-10-31_11h01.37.967,uWM_experiment,2022.2.3,59.99779208
,,,,,,,,,,,,,,,,,,,,10,0,10,0,7,0,7,0,,,,,,,,,,,,,,,,,,,,,,,,,,,,,,,,,,,,,,,,,,,,,,,,,,,,,,,,,,,,,,,,,,,,,,0.493170229,,,,,,,,,,,,,,,,,,,,,,,,,,,,left,1,100,-30,70,1,3389.532721,3389.532721,3389.532721,None,None,1,1,1.8765093,,,,,,,,,,,,,,,,,,,,,,10,14,2,2024-10-31_11h01.37.967,uWM_experiment,2022.2.3,59.99779208
,,,,,,,,,,,,,,,,,,,,10,0,10,0,8,0,8,0,,,,,,,,,,,,,,,,,,,,,,,,,,,,,,,,,,,,,,,,,,,,,,,,,,,,,,,,,,,,,,,,,,,,,,0.503170229,,,,,,,,,,,,,,,,,,,,,,,,,,,,right,0,100,-30,70,1,3397.199732,3397.199732,3397.199732,None,None,1,1,0.6574541,,,,,,,,,,,,,,,,,,,,,,10,14,2,2024-10-31_11h01.37.967,uWM_experiment,2022.2.3,59.99779208
,,,,,,,,,,,,,,,,,,,,10,0,10,0,9,0,9,0,,,,,,,,,,,,,,,,,,,,,,,,,,,,,,,,,,,,,,,,,,,,,,,,,,,,,,,,,,,,,,,,,,,,,,0.513170229,,,,,,,,,,,,,,,,,,,,,,,,,,,,right,1,40,30,70,1,3403.299994,3403.299994,3403.299994,None,None,2,0,0.261214,,,,,,,,,,,,,,,,,,,,,,10,14,2,2024-10-31_11h01.37.967,uWM_experiment,2022.2.3,59.99779208
,,,,,,,,,,,,,,,,,,,,10,0,10,0,10,0,10,0,,,,,,,,,,,,,,,,,,,,,,,,,,,,,,,,,,,,,,,,,,,,,,,,,,,,,,,,,,,,,,,,,,,,,,0.503170229,,,,,,,,,,,,,,,,,,,,,,,,,,,,left,0,70,30,100,1,3409.066918,3409.066918,3409.066918,None,None,1,1,0.5262624,,,,,,,,,,,,,,,,,,,,,,10,14,2,2024-10-31_11h01.37.967,uWM_experiment,2022.2.3,59.99779208
,,,,,,,,,,,,,,,,,,,,10,0,10,0,11,0,11,0,,,,,,,,,,,,,,,,,,,,,,,,,,,,,,,,,,,,,,,,,,,,,,,,,,,,,,,,,,,,,,,,,,,,,,0.513170229,,,,,,,,,,,,,,,,,,,,,,,,,,,,left,1,160,-30,130,1,3415.083866,3415.083866,3415.083866,None,None,1,1,0.1973204,,,,,,,,,,,,,,,,,,,,,,10,14,2,2024-10-31_11h01.37.967,uWM_experiment,2022.2.3,59.99779208
,,,,,,,,,,,,,,,,,,,,10,0,10,0,12,0,12,0,,,,,,,,,,,,,,,,,,,,,,,,,,,,,,,,,,,,,,,,,,,,,,,,,,,,,,,,,,,,,,,,,,,,,,0.523170229,,,,,,,,,,,,,,,,,,,,,,,,,,,,left,0,70,30,100,1,3420.917453,3420.917453,3420.917453,None,None,2,0,0.6037042,,,,,,,,,,,,,,,,,,,,,,10,14,2,2024-10-31_11h01.37.967,uWM_experiment,2022.2.3,59.99779208
,,,,,,,,,,,,,,,,,,,,10,0,10,0,13,0,13,0,,,,,,,,,,,,,,,,,,,,,,,,,,,,,,,,,,,,,,,,,,,,,,,,,,,,,,,,,,,,,,,,,,,,,,0.513170229,,,,,,,,,,,,,,,,,,,,,,,,,,,,left,1,10,-30,-20,1,3427.067755,3427.067755,3427.067755,None,None,1,1,0.2694198,,,,,,,,,,,,,,,,,,,,,,10,14,2,2024-10-31_11h01.37.967,uWM_experiment,2022.2.3,59.99779208
