PreTrainingPAS4_loop.thisRepN,PreTrainingPAS4_loop.thisTrialN,PreTrainingPAS4_loop.thisN,PreTrainingPAS4_loop.thisIndex,PreTrainingPAS1_loop.thisRepN,PreTrainingPAS1_loop.thisTrialN,PreTrainingPAS1_loop.thisN,PreTrainingPAS1_loop.thisIndex,RepeatCV_loop.thisRepN,RepeatCV_loop.thisTrialN,RepeatCV_loop.thisN,RepeatCV_loop.thisIndex,TrainingCV_loop.thisRepN,TrainingCV_loop.thisTrialN,TrainingCV_loop.thisN,TrainingCV_loop.thisIndex,TrainingCAL_loop.thisRepN,TrainingCAL_loop.thisTrialN,TrainingCAL_loop.thisN,TrainingCAL_loop.thisIndex,blocks_loop.thisRepN,blocks_loop.thisTrialN,blocks_loop.thisN,blocks_loop.thisIndex,trials_loop.thisRepN,trials_loop.thisTrialN,trials_loop.thisN,trials_loop.thisIndex,TrainingPAS1_loop.thisRepN,TrainingPAS1_loop.thisTrialN,TrainingPAS1_loop.thisN,TrainingPAS1_loop.thisIndex,spacebarWelcome0.started,spacebarWelcome0.keys,spacebarWelcome0.rt,spacebarWelcome1.started,gaborWelcome1.started,maskWelcome1.started,textMaskWelcome1.started,spacebarWelcome1.keys,spacebarWelcome1.rt,spacebarWelcome2.started,spacebarWelcome2.keys,spacebarWelcome2.rt,textInst_PreTrainingPAS4.started,spacebarPreTrainingPAS4.started,spacebarPreTrainingPAS4.keys,spacebarPreTrainingPAS4.rt,textPreTrainingPAS1.started,spacebarPreTrainingPAS1.started,spacebarPreTrainingPAS1.keys,spacebarPreTrainingPAS1.rt,textQUEST0.started,spacebarQUEST0.started,spacebarQUEST0.keys,spacebarQUEST0.rt,spacebar0.started,spacebar0.keys,spacebar0.rt,spacebar1.started,spacebar1.keys,spacebar1.rt,textInstructions2.started,spacebar2.started,Gabor1Inst2.started,Gabor2Inst2.started,Gabor3Inst2.started,Gabor4Inst2.started,spacebar2.keys,spacebar2.rt,textInstructionsPAS.started,spacebarInstPAS.started,spacebarInstPAS.keys,spacebarInstPAS.rt,textInstructions3.started,spacebar3.started,spacebar3.keys,spacebar3.rt,WMresp_CV,WMresp_CV_acc,oriMemo_CV,gyre_CV,oriTest_CV,feedbackText.started,sliderCV.started,PAStextCV.started,PASkeyCV.started,sliderCV.response,sliderCV.rt,PASkeyCV.keys,PASkeyCV.corr,PASkeyCV.rt,feedbackText.stopped,TextInstructionsCAL.started,spacebarCAL.started,spacebarCAL.keys,spacebarCAL.rt,contrast,WMresp_CAL,WMresp_CAL_acc,oriMemo_CAL,gyre_CAL,oriTest_CAL,cue_CAL,sliderCAL.started,PAStextCAL.started,PASkeyCAL.started,sliderCAL.response,sliderCAL.rt,PASkeyCAL.keys,PASkeyCAL.corr,PASkeyCAL.rt,propUnseen_CAL,textStart.started,spacebar4.started,spacebar4.keys,spacebar4.rt,three.started,three.stopped,two.started,two.stopped,one.started,one.stopped,blank_countdown.started,blank_countdown.stopped,WMresp,WMresp_acc,oriMemo,gyre,oriTest,cue,slider.started,textPAS_firstGabor.started,PASkey.started,slider.response,slider.rt,PASkey.keys,PASkey.corr,PASkey.rt,spacebarContinue.started,textBreak.started,spacebarContinue.keys,spacebarContinue.rt,spacebar_reminder.keys,spacebar_TrainingPAS1.keys,spacebar_endpractice.keys,spacebar_reminder.started,textReminder.started,spacebar_reminder.rt,textInst_TrainingPAS1.started,spacebar_TrainingPAS1.started,spacebar_TrainingPAS1.rt,textend_practicePAS1.started,spacebar_endpractice.started,spacebar_endpractice.rt,textThanks.started,textThanks.stopped,laboratory,participant,session,date,expName,psychopyVersion,frameRate
,,,,,,,,,,,,,,,,,,,,,,,,,,,,,,,,185.9318477,space,1.620224,,,,,,,,,,,,,,,,,,,,,,,,,,,,,,,,,,,,,,,,,,,,,,,,,,,,,,,,,,,,,,,,,,,,,,,,,,,,,,,,,,,,,,,,,,,,,,,,,,,,,,,,,,,,,,,,,,,,,,,,,,,10,14,1,2024-10-29_10h33.40.571,uWM_experiment,2022.2.3,59.999808
,,,,,,,,,,,,,,,,,,,,,,,,,,,,,,,,,,,187.5983546,187.5983546,187.5983546,187.5983546,space,23.0656312,,,,,,,,,,,,,,,,,,,,,,,,,,,,,,,,,,,,,,,,,,,,,,,,,,,,,,,,,,,,,,,,,,,,,,,,,,,,,,,,,,,,,,,,,,,,,,,,,,,,,,,,,,,,,,,,,,,,,10,14,1,2024-10-29_10h33.40.571,uWM_experiment,2022.2.3,59.999808
,,,,,,,,,,,,,,,,,,,,,,,,,,,,,,,,,,,,,,,,,210.6825325,space,26.5413591,,,,,,,,,,,,,,,,,,,,,,,,,,,,,,,,,,,,,,,,,,,,,,,,,,,,,,,,,,,,,,,,,,,,,,,,,,,,,,,,,,,,,,,,,,,,,,,,,,,,,,,,,,,,,,,,,,10,14,1,2024-10-29_10h33.40.571,uWM_experiment,2022.2.3,59.999808
,,,,,,,,,,,,,,,,,,,,,,,,,,,,,,,,,,,,,,,,,,,,237.2502055,237.2502055,space,22.3896429,,,,,,,,,,,,,,,,,,,,,,,,,,,,,,,,,,,,,,,,,,,,,,,,,,,,,,,,,,,,,,,,,,,,,,,,,,,,,,,,,,,,,,,,,,,,,,,,,,,,,,,,,,,,,,10,14,1,2024-10-29_10h33.40.571,uWM_experiment,2022.2.3,59.999808
0,0,0,0,,,,,,,,,,,,,,,,,,,,,,,,,,,,,,,,,,,,,,,,,,,,,,,,,,,,,,,,,,,,,,,,,,,,,,,,,,,,,,,,,,,,,,,,,,,,,,,,,,,,,,,,,,,,,,,,,,,,,,,,,,,,,,,,,,,,,,,,,,,,,,,,,,,,,,,,,,10,14,1,2024-10-29_10h33.40.571,uWM_experiment,2022.2.3,59.999808
1,0,1,0,,,,,,,,,,,,,,,,,,,,,,,,,,,,,,,,,,,,,,,,,,,,,,,,,,,,,,,,,,,,,,,,,,,,,,,,,,,,,,,,,,,,,,,,,,,,,,,,,,,,,,,,,,,,,,,,,,,,,,,,,,,,,,,,,,,,,,,,,,,,,,,,,,,,,,,,,,10,14,1,2024-10-29_10h33.40.571,uWM_experiment,2022.2.3,59.999808
2,0,2,0,,,,,,,,,,,,,,,,,,,,,,,,,,,,,,,,,,,,,,,,,,,,,,,,,,,,,,,,,,,,,,,,,,,,,,,,,,,,,,,,,,,,,,,,,,,,,,,,,,,,,,,,,,,,,,,,,,,,,,,,,,,,,,,,,,,,,,,,,,,,,,,,,,,,,,,,,,10,14,1,2024-10-29_10h33.40.571,uWM_experiment,2022.2.3,59.999808
,,,,,,,,,,,,,,,,,,,,,,,,,,,,,,,,,,,,,,,,,,,,,,,,271.101558,271.101558,space,23.3780754,,,,,,,,,,,,,,,,,,,,,,,,,,,,,,,,,,,,,,,,,,,,,,,,,,,,,,,,,,,,,,,,,,,,,,,,,,,,,,,,,,,,,,,,,,,,,,,,,,,,,,,,,,10,14,1,2024-10-29_10h33.40.571,uWM_experiment,2022.2.3,59.999808
,,,,0,0,0,0,,,,,,,,,,,,,,,,,,,,,,,,,,,,,,,,,,,,,,,,,,,,,,,,,,,,,,,,,,,,,,,,,,,,,,,,,,,,,,,,,,,,,,,,,,,,,,,,,,,,,,,,,,,,,,,,,,,,,,,,,,,,,,,,,,,,,,,,,,,,,,,,,,,,,,10,14,1,2024-10-29_10h33.40.571,uWM_experiment,2022.2.3,59.999808
,,,,1,0,1,0,,,,,,,,,,,,,,,,,,,,,,,,,,,,,,,,,,,,,,,,,,,,,,,,,,,,,,,,,,,,,,,,,,,,,,,,,,,,,,,,,,,,,,,,,,,,,,,,,,,,,,,,,,,,,,,,,,,,,,,,,,,,,,,,,,,,,,,,,,,,,,,,,,,,,,10,14,1,2024-10-29_10h33.40.571,uWM_experiment,2022.2.3,59.999808
,,,,2,0,2,0,,,,,,,,,,,,,,,,,,,,,,,,,,,,,,,,,,,,,,,,,,,,,,,,,,,,,,,,,,,,,,,,,,,,,,,,,,,,,,,,,,,,,,,,,,,,,,,,,,,,,,,,,,,,,,,,,,,,,,,,,,,,,,,,,,,,,,,,,,,,,,,,,,,,,,10,14,1,2024-10-29_10h33.40.571,uWM_experiment,2022.2.3,59.999808
,,,,,,,,,,,,,,,,,,,,,,,,,,,,,,,,,,,,,,,,,,,,,,,,,,,,304.5695626,304.5695626,space,20.8859054,,,,,,,,,,,,,,,,,,,,,,,,,,,,,,,,,,,,,,,,,,,,,,,,,,,,,,,,,,,,,,,,,,,,,,,,,,,,,,,,,,,,,,,,,,,,,,,,,,,,,,10,14,1,2024-10-29_10h33.40.571,uWM_experiment,2022.2.3,59.999808
,,,,,,,,,,,,,,,,,,,,,,,,,,,,,,,,,,,,,,,,,,,,,,,,,,,,,,,,471.3928788,space,24.3178398,,,,,,,,,,,,,,,,,,,,,,,,,,,,,,,,,,,,,,,,,,,,,,,,,,,,,,,,,,,,,,,,,,,,,,,,,,,,,,,,,,,,,,,,,,,,,,,,,,,10,14,1,2024-10-29_10h33.40.571,uWM_experiment,2022.2.3,59.999808
,,,,,,,,,,,,,,,,,,,,,,,,,,,,,,,,,,,,,,,,,,,,,,,,,,,,,,,,,,,495.7437996,space,70.206701,,,,,,,,,,,,,,,,,,,,,,,,,,,,,,,,,,,,,,,,,,,,,,,,,,,,,,,,,,,,,,,,,,,,,,,,,,,,,,,,,,,,,,,,,,,,,,,,10,14,1,2024-10-29_10h33.40.571,uWM_experiment,2022.2.3,59.999808
,,,,,,,,,,,,,,,,,,,,,,,,,,,,,,,,,,,,,,,,,,,,,,,,,,,,,,,,,,,,,,565.9799621,565.9799621,565.9799621,565.9799621,565.9799621,565.9799621,space,62.8022238,,,,,,,,,,,,,,,,,,,,,,,,,,,,,,,,,,,,,,,,,,,,,,,,,,,,,,,,,,,,,,,,,,,,,,,,,,,,,,,,,,,,,,,,10,14,1,2024-10-29_10h33.40.571,uWM_experiment,2022.2.3,59.999808
,,,,,,,,,,,,,,,,,,,,,,,,,,,,,,,,,,,,,,,,,,,,,,,,,,,,,,,,,,,,,,,,,,,,,,628.7991795,628.7991795,space,28.9589474,,,,,,,,,,,,,,,,,,,,,,,,,,,,,,,,,,,,,,,,,,,,,,,,,,,,,,,,,,,,,,,,,,,,,,,,,,,,,,,,,,,,10,14,1,2024-10-29_10h33.40.571,uWM_experiment,2022.2.3,59.999808
,,,,,,,,,,,,,,,,,,,,,,,,,,,,,,,,,,,,,,,,,,,,,,,,,,,,,,,,,,,,,,,,,,,,,,,,,,657.7836281,657.7836281,space,20.0543518,,,,,,,,,,,,,,,,,,,,,,,,,,,,,,,,,,,,,,,,,,,,,,,,,,,,,,,,,,,,,,,,,,,,,,,,,,,,,,,,10,14,1,2024-10-29_10h33.40.571,uWM_experiment,2022.2.3,59.999808
,,,,,,,,0,0,0,0,0,0,0,0,,,,,,,,,,,,,,,,,,,,,,,,,,,,,,,,,,,,,,,,,,,,,,,,,,,,,,,,,,,,,,,left,1,130,-30,100,705.1688578,706.1688946,706.1688946,706.1688946,None,None,4,0,10.0928785,,,,,,,,,,,,,,,,,,,,,,,,,,,,,,,,,,,,,,,,,,,,,,,,,,,,,,,,,,,,,,,,,,10,14,1,2024-10-29_10h33.40.571,uWM_experiment,2022.2.3,59.999808
,,,,,,,,0,0,0,0,1,0,1,0,,,,,,,,,,,,,,,,,,,,,,,,,,,,,,,,,,,,,,,,,,,,,,,,,,,,,,,,,,,,,,,right,0,10,-30,-20,723.5196373,724.519683,724.519683,724.519683,None,None,1,1,3.9500105,,,,,,,,,,,,,,,,,,,,,,,,,,,,,,,,,,,,,,,,,,,,,,,,,,,,,,,,,,,,,,,,,,10,14,1,2024-10-29_10h33.40.571,uWM_experiment,2022.2.3,59.999808
,,,,,,,,0,0,0,0,2,0,2,0,,,,,,,,,,,,,,,,,,,,,,,,,,,,,,,,,,,,,,,,,,,,,,,,,,,,,,,,,,,,,,,right,1,70,30,100,737.5701554,738.570182,738.570182,738.570182,None,None,3,0,2.6914797,,,,,,,,,,,,,,,,,,,,,,,,,,,,,,,,,,,,,,,,,,,,,,,,,,,,,,,,,,,,,,,,,,10,14,1,2024-10-29_10h33.40.571,uWM_experiment,2022.2.3,59.999808
,,,,,,,,0,0,0,0,3,0,3,0,,,,,,,,,,,,,,,,,,,,,,,,,,,,,,,,,,,,,,,,,,,,,,,,,,,,,,,,,,,,,,,left,1,130,-30,100,748.6872621,749.6872987,749.6872987,749.6872987,None,None,3,0,1.9423384,749.6872987,,,,,,,,,,,,,,,,,,,,,,,,,,,,,,,,,,,,,,,,,,,,,,,,,,,,,,,,,,,,,,,,,10,14,1,2024-10-29_10h33.40.571,uWM_experiment,2022.2.3,59.999808
,,,,,,,,0,0,0,0,4,0,4,0,,,,,,,,,,,,,,,,,,,,,,,,,,,,,,,,,,,,,,,,,,,,,,,,,,,,,,,,,,,,,,,left,1,160,-30,130,760.5544063,761.5544308,761.5544308,761.5544308,None,None,3,0,2.043123,761.5544308,,,,,,,,,,,,,,,,,,,,,,,,,,,,,,,,,,,,,,,,,,,,,,,,,,,,,,,,,,,,,,,,,10,14,1,2024-10-29_10h33.40.571,uWM_experiment,2022.2.3,59.999808
,,,,,,,,0,0,0,0,5,0,5,0,,,,,,,,,,,,,,,,,,,,,,,,,,,,,,,,,,,,,,,,,,,,,,,,,,,,,,,,,,,,,,,left,0,100,30,130,771.4214922,772.4215359,772.4215359,772.4215359,None,None,1,1,0.9119477,772.4215359,,,,,,,,,,,,,,,,,,,,,,,,,,,,,,,,,,,,,,,,,,,,,,,,,,,,,,,,,,,,,,,,,10,14,1,2024-10-29_10h33.40.571,uWM_experiment,2022.2.3,59.999808
,,,,,,,,0,0,0,0,6,0,6,0,,,,,,,,,,,,,,,,,,,,,,,,,,,,,,,,,,,,,,,,,,,,,,,,,,,,,,,,,,,,,,,right,1,70,30,100,788.822194,789.8222266,789.8222266,789.8222266,None,None,3,0,1.7272617,789.8222266,,,,,,,,,,,,,,,,,,,,,,,,,,,,,,,,,,,,,,,,,,,,,,,,,,,,,,,,,,,,,,,,,10,14,1,2024-10-29_10h33.40.571,uWM_experiment,2022.2.3,59.999808
,,,,,,,,0,0,0,0,7,0,7,0,,,,,,,,,,,,,,,,,,,,,,,,,,,,,,,,,,,,,,,,,,,,,,,,,,,,,,,,,,,,,,,left,0,10,30,40,800.0559613,801.0560061,801.0560061,801.0560061,None,None,1,1,1.1333649,,,,,,,,,,,,,,,,,,,,,,,,,,,,,,,,,,,,,,,,,,,,,,,,,,,,,,,,,,,,,,,,,,10,14,1,2024-10-29_10h33.40.571,uWM_experiment,2022.2.3,59.999808
,,,,,,,,0,0,0,0,8,0,8,0,,,,,,,,,,,,,,,,,,,,,,,,,,,,,,,,,,,,,,,,,,,,,,,,,,,,,,,,,,,,,,,left,0,130,30,160,809.3063489,810.3063752,810.3063752,810.3063752,None,None,1,1,10.0829643,810.3063752,,,,,,,,,,,,,,,,,,,,,,,,,,,,,,,,,,,,,,,,,,,,,,,,,,,,,,,,,,,,,,,,,10,14,1,2024-10-29_10h33.40.571,uWM_experiment,2022.2.3,59.999808
,,,,,,,,0,0,0,0,9,0,9,0,,,,,,,,,,,,,,,,,,,,,,,,,,,,,,,,,,,,,,,,,,,,,,,,,,,,,,,,,,,,,,,right,1,40,30,70,828.0070623,829.0071483,829.0071483,829.0071483,None,None,4,0,0.8460596,829.0071483,,,,,,,,,,,,,,,,,,,,,,,,,,,,,,,,,,,,,,,,,,,,,,,,,,,,,,,,,,,,,,,,,10,14,1,2024-10-29_10h33.40.571,uWM_experiment,2022.2.3,59.999808
,,,,,,,,0,0,0,0,10,0,10,0,,,,,,,,,,,,,,,,,,,,,,,,,,,,,,,,,,,,,,,,,,,,,,,,,,,,,,,,,,,,,,,right,1,40,30,70,838.4408248,839.4408638,839.4408638,839.4408638,None,None,4,0,2.3723159,839.4408638,,,,,,,,,,,,,,,,,,,,,,,,,,,,,,,,,,,,,,,,,,,,,,,,,,,,,,,,,,,,,,,,,10,14,1,2024-10-29_10h33.40.571,uWM_experiment,2022.2.3,59.999808
,,,,,,,,0,0,0,0,11,0,11,0,,,,,,,,,,,,,,,,,,,,,,,,,,,,,,,,,,,,,,,,,,,,,,,,,,,,,,,,,,,,,,,left,1,10,-30,-20,850.3746126,851.3747405,851.3747405,851.3747405,None,None,4,0,2.24645,851.3747405,,,,,,,,,,,,,,,,,,,,,,,,,,,,,,,,,,,,,,,,,,,,,,,,,,,,,,,,,,,,,,,,,10,14,1,2024-10-29_10h33.40.571,uWM_experiment,2022.2.3,59.999808
,,,,,,,,0,0,0,0,,,,,,,,,,,,,,,,,,,,,,,,,,,,,,,,,,,,,,,,,,,,,,,,,,,,,,,,,,,,,,,,,,,,,,,,,,,,,,,,,,,,,,,,,,,,,,,,,,,,,,,,,,,,,,,,,,,,,,,,,,,,,,,,,,,,,,,,,,,,,,,,,,10,14,1,2024-10-29_10h33.40.571,uWM_experiment,2022.2.3,59.999808
,,,,,,,,,,,,,,,,,,,,,,,,,,,,,,,,,,,,,,,,,,,,,,,,,,,,,,,,,,,,,,,,,,,,,,,,,,,,,,,,,,,,,,,,,,,,,868.6086905,868.6086905,space,43.9162262,,,,,,,,,,,,,,,,,,,,,,,,,,,,,,,,,,,,,,,,,,,,,,,,,,,,,,,,,,,,,10,14,1,2024-10-29_10h33.40.571,uWM_experiment,2022.2.3,59.999808
,,,,,,,,,,,,,,,,0,0,0,0,,,,,,,,,,,,,,,,,,,,,,,,,,,,,,,,,,,,,,,,,,,,,,,,,,,,,,,,,,,,,,,,,,,,,,,,,,,,,,0.159397506,left,1,160,-30,130,1,918.6940228,918.6940228,918.6940228,None,None,1,1,1.0628205,,,,,,,,,,,,,,,,,,,,,,,,,,,,,,,,,,,,,,,,,,,,,,10,14,1,2024-10-29_10h33.40.571,uWM_experiment,2022.2.3,59.999808
,,,,,,,,,,,,,,,,1,0,1,0,,,,,,,,,,,,,,,,,,,,,,,,,,,,,,,,,,,,,,,,,,,,,,,,,,,,,,,,,,,,,,,,,,,,,,,,,,,,,,0.169397506,right,1,40,30,70,1,927.0277051,927.0277051,927.0277051,None,None,1,1,1.6251678,1,,,,,,,,,,,,,,,,,,,,,,,,,,,,,,,,,,,,,,,,,,,,,10,14,1,2024-10-29_10h33.40.571,uWM_experiment,2022.2.3,59.999808
,,,,,,,,,,,,,,,,2,0,2,0,,,,,,,,,,,,,,,,,,,,,,,,,,,,,,,,,,,,,,,,,,,,,,,,,,,,,,,,,,,,,,,,,,,,,,,,,,,,,,0.179397506,right,1,160,30,190,1,938.3281296,938.3281296,938.3281296,None,None,1,1,0.8126307,1,,,,,,,,,,,,,,,,,,,,,,,,,,,,,,,,,,,,,,,,,,,,,10,14,1,2024-10-29_10h33.40.571,uWM_experiment,2022.2.3,59.999808
,,,,,,,,,,,,,,,,3,0,3,0,,,,,,,,,,,,,,,,,,,,,,,,,,,,,,,,,,,,,,,,,,,,,,,,,,,,,,,,,,,,,,,,,,,,,,,,,,,,,,0.189397506,right,0,70,-30,40,1,946.2617746,946.2617746,946.2617746,None,None,2,0,2.1028864,1,,,,,,,,,,,,,,,,,,,,,,,,,,,,,,,,,,,,,,,,,,,,,10,14,1,2024-10-29_10h33.40.571,uWM_experiment,2022.2.3,59.999808
,,,,,,,,,,,,,,,,4,0,4,0,,,,,,,,,,,,,,,,,,,,,,,,,,,,,,,,,,,,,,,,,,,,,,,,,,,,,,,,,,,,,,,,,,,,,,,,,,,,,,0.179397506,right,0,100,-30,70,1,955.1621746,955.1621746,955.1621746,None,None,1,1,1.0904729,0.75,,,,,,,,,,,,,,,,,,,,,,,,,,,,,,,,,,,,,,,,,,,,,10,14,1,2024-10-29_10h33.40.571,uWM_experiment,2022.2.3,59.999808
,,,,,,,,,,,,,,,,5,0,5,0,,,,,,,,,,,,,,,,,,,,,,,,,,,,,,,,,,,,,,,,,,,,,,,,,,,,,,,,,,,,,,,,,,,,,,,,,,,,,,0.1,right,0,100,-30,70,2,968.5793391,968.5793391,968.5793391,None,None,3,0,5.1532372,0.8,,,,,,,,,,,,,,,,,,,,,,,,,,,,,,,,,,,,,,,,,,,,,10,14,1,2024-10-29_10h33.40.571,uWM_experiment,2022.2.3,59.999808
,,,,,,,,,,,,,,,,6,0,6,0,,,,,,,,,,,,,,,,,,,,,,,,,,,,,,,,,,,,,,,,,,,,,,,,,,,,,,,,,,,,,,,,,,,,,,,,,,,,,,0.1,left,0,70,30,100,2,981.4798559,981.4798559,981.4798559,None,None,1,1,1.524789,0.666666667,,,,,,,,,,,,,,,,,,,,,,,,,,,,,,,,,,,,,,,,,,,,,10,14,1,2024-10-29_10h33.40.571,uWM_experiment,2022.2.3,59.999808
,,,,,,,,,,,,,,,,7,0,7,0,,,,,,,,,,,,,,,,,,,,,,,,,,,,,,,,,,,,,,,,,,,,,,,,,,,,,,,,,,,,,,,,,,,,,,,,,,,,,,0.189397506,right,1,40,30,70,1,991.6135937,991.6135937,991.6135937,None,None,1,1,1.534924,0.714285714,,,,,,,,,,,,,,,,,,,,,,,,,,,,,,,,,,,,,,,,,,,,,10,14,1,2024-10-29_10h33.40.571,uWM_experiment,2022.2.3,59.999808
,,,,,,,,,,,,,,,,8,0,8,0,,,,,,,,,,,,,,,,,,,,,,,,,,,,,,,,,,,,,,,,,,,,,,,,,,,,,,,,,,,,,,,,,,,,,,,,,,,,,,0.199397506,left,1,130,-30,100,1,1000.480605,1000.480605,1000.480605,None,None,1,1,1.1239491,0.75,,,,,,,,,,,,,,,,,,,,,,,,,,,,,,,,,,,,,,,,,,,,,10,14,1,2024-10-29_10h33.40.571,uWM_experiment,2022.2.3,59.999808
,,,,,,,,,,,,,,,,9,0,9,0,,,,,,,,,,,,,,,,,,,,,,,,,,,,,,,,,,,,,,,,,,,,,,,,,,,,,,,,,,,,,,,,,,,,,,,,,,,,,,0.1,right,0,10,-30,-20,2,1010.197748,1010.197748,1010.197748,None,None,1,1,1.3427555,0.777777778,,,,,,,,,,,,,,,,,,,,,,,,,,,,,,,,,,,,,,,,,,,,,10,14,1,2024-10-29_10h33.40.571,uWM_experiment,2022.2.3,59.999808
,,,,,,,,,,,,,,,,10,0,10,0,,,,,,,,,,,,,,,,,,,,,,,,,,,,,,,,,,,,,,,,,,,,,,,,,,,,,,,,,,,,,,,,,,,,,,,,,,,,,,0.1,right,0,130,-30,100,2,1024.481553,1024.481553,1024.481553,None,None,1,1,1.1387662,0.8,,,,,,,,,,,,,,,,,,,,,,,,,,,,,,,,,,,,,,,,,,,,,10,14,1,2024-10-29_10h33.40.571,uWM_experiment,2022.2.3,59.999808
,,,,,,,,,,,,,,,,11,0,11,0,,,,,,,,,,,,,,,,,,,,,,,,,,,,,,,,,,,,,,,,,,,,,,,,,,,,,,,,,,,,,,,,,,,,,,,,,,,,,,0.209397506,left,0,10,30,40,1,1033.915334,1033.915334,1033.915334,None,None,1,1,0.600942,0.818181818,,,,,,,,,,,,,,,,,,,,,,,,,,,,,,,,,,,,,,,,,,,,,10,14,1,2024-10-29_10h33.40.571,uWM_experiment,2022.2.3,59.999808
,,,,,,,,,,,,,,,,12,0,12,0,,,,,,,,,,,,,,,,,,,,,,,,,,,,,,,,,,,,,,,,,,,,,,,,,,,,,,,,,,,,,,,,,,,,,,,,,,,,,,0.219397506,right,1,100,30,130,1,1043.215646,1043.215646,1043.215646,None,None,1,1,0.6127356,0.833333333,,,,,,,,,,,,,,,,,,,,,,,,,,,,,,,,,,,,,,,,,,,,,10,14,1,2024-10-29_10h33.40.571,uWM_experiment,2022.2.3,59.999808
,,,,,,,,,,,,,,,,13,0,13,0,,,,,,,,,,,,,,,,,,,,,,,,,,,,,,,,,,,,,,,,,,,,,,,,,,,,,,,,,,,,,,,,,,,,,,,,,,,,,,0.229397506,left,1,130,-30,100,1,1050.549274,1050.549274,1050.549274,None,None,2,0,1.0150343,0.846153846,,,,,,,,,,,,,,,,,,,,,,,,,,,,,,,,,,,,,,,,,,,,,10,14,1,2024-10-29_10h33.40.571,uWM_experiment,2022.2.3,59.999808
,,,,,,,,,,,,,,,,14,0,14,0,,,,,,,,,,,,,,,,,,,,,,,,,,,,,,,,,,,,,,,,,,,,,,,,,,,,,,,,,,,,,,,,,,,,,,,,,,,,,,0.1,right,1,130,30,160,2,1058.349625,1058.349625,1058.349625,None,None,1,1,1.1506865,0.785714286,,,,,,,,,,,,,,,,,,,,,,,,,,,,,,,,,,,,,,,,,,,,,10,14,1,2024-10-29_10h33.40.571,uWM_experiment,2022.2.3,59.999808
,,,,,,,,,,,,,,,,15,0,15,0,,,,,,,,,,,,,,,,,,,,,,,,,,,,,,,,,,,,,,,,,,,,,,,,,,,,,,,,,,,,,,,,,,,,,,,,,,,,,,0.1,right,0,10,-30,-20,2,1066.53325,1066.53325,1066.53325,None,None,1,1,0.5990554,0.8,,,,,,,,,,,,,,,,,,,,,,,,,,,,,,,,,,,,,,,,,,,,,10,14,1,2024-10-29_10h33.40.571,uWM_experiment,2022.2.3,59.999808
,,,,,,,,,,,,,,,,16,0,16,0,,,,,,,,,,,,,,,,,,,,,,,,,,,,,,,,,,,,,,,,,,,,,,,,,,,,,,,,,,,,,,,,,,,,,,,,,,,,,,0.1,left,0,100,30,130,2,1076.30028,1076.30028,1076.30028,None,None,4,0,2.9120494,0.8125,,,,,,,,,,,,,,,,,,,,,,,,,,,,,,,,,,,,,,,,,,,,,10,14,1,2024-10-29_10h33.40.571,uWM_experiment,2022.2.3,59.999808
,,,,,,,,,,,,,,,,17,0,17,0,,,,,,,,,,,,,,,,,,,,,,,,,,,,,,,,,,,,,,,,,,,,,,,,,,,,,,,,,,,,,,,,,,,,,,,,,,,,,,0.1,left,0,160,30,190,2,1085.767356,1085.767356,1085.767356,None,None,2,0,0.9567816,0.764705882,,,,,,,,,,,,,,,,,,,,,,,,,,,,,,,,,,,,,,,,,,,,,10,14,1,2024-10-29_10h33.40.571,uWM_experiment,2022.2.3,59.999808
,,,,,,,,,,,,,,,,18,0,18,0,,,,,,,,,,,,,,,,,,,,,,,,,,,,,,,,,,,,,,,,,,,,,,,,,,,,,,,,,,,,,,,,,,,,,,,,,,,,,,0.219397506,right,0,40,-30,10,1,1096.017731,1096.017731,1096.017731,None,None,2,0,1.13042,0.722222222,,,,,,,,,,,,,,,,,,,,,,,,,,,,,,,,,,,,,,,,,,,,,10,14,1,2024-10-29_10h33.40.571,uWM_experiment,2022.2.3,59.999808
,,,,,,,,,,,,,,,,19,0,19,0,,,,,,,,,,,,,,,,,,,,,,,,,,,,,,,,,,,,,,,,,,,,,,,,,,,,,,,,,,,,,,,,,,,,,,,,,,,,,,0.1,right,0,10,-30,-20,2,1104.834808,1104.834808,1104.834808,None,None,1,1,0.7132936,0.684210526,,,,,,,,,,,,,,,,,,,,,,,,,,,,,,,,,,,,,,,,,,,,,10,14,1,2024-10-29_10h33.40.571,uWM_experiment,2022.2.3,59.999808
,,,,,,,,,,,,,,,,20,0,20,0,,,,,,,,,,,,,,,,,,,,,,,,,,,,,,,,,,,,,,,,,,,,,,,,,,,,,,,,,,,,,,,,,,,,,,,,,,,,,,0.1,right,0,40,-30,10,2,1112.985078,1112.985078,1112.985078,None,None,4,0,0.5388636,0.7,,,,,,,,,,,,,,,,,,,,,,,,,,,,,,,,,,,,,,,,,,,,,10,14,1,2024-10-29_10h33.40.571,uWM_experiment,2022.2.3,59.999808
,,,,,,,,,,,,,,,,21,0,21,0,,,,,,,,,,,,,,,,,,,,,,,,,,,,,,,,,,,,,,,,,,,,,,,,,,,,,,,,,,,,,,,,,,,,,,,,,,,,,,0.209397506,left,0,70,30,100,1,1121.752105,1121.752105,1121.752105,None,None,3,0,1.4038174,0.666666667,,,,,,,,,,,,,,,,,,,,,,,,,,,,,,,,,,,,,,,,,,,,,10,14,1,2024-10-29_10h33.40.571,uWM_experiment,2022.2.3,59.999808
,,,,,,,,,,,,,,,,22,0,22,0,,,,,,,,,,,,,,,,,,,,,,,,,,,,,,,,,,,,,,,,,,,,,,,,,,,,,,,,,,,,,,,,,,,,,,,,,,,,,,0.1,left,0,70,30,100,2,1131.385804,1131.385804,1131.385804,None,None,2,0,0.9700666,0.636363636,,,,,,,,,,,,,,,,,,,,,,,,,,,,,,,,,,,,,,,,,,,,,10,14,1,2024-10-29_10h33.40.571,uWM_experiment,2022.2.3,59.999808
,,,,,,,,,,,,,,,,23,0,23,0,,,,,,,,,,,,,,,,,,,,,,,,,,,,,,,,,,,,,,,,,,,,,,,,,,,,,,,,,,,,,,,,,,,,,,,,,,,,,,0.1,right,1,160,30,190,2,1140.536185,1140.536185,1140.536185,None,None,1,1,0.6277209,0.608695652,,,,,,,,,,,,,,,,,,,,,,,,,,,,,,,,,,,,,,,,,,,,,10,14,1,2024-10-29_10h33.40.571,uWM_experiment,2022.2.3,59.999808
,,,,,,,,,,,,,,,,,,,,,,,,,,,,,,,,,,,,,,,,,,,,,,,,,,,,,,,,,,,,,,,,,,,,,,,,,,,,,,,,,,,,,,,,,,,,,,,,,,,,,,,,,,,,,,,,,1141.186195,1142.186228,space,7.9376004,,,,,,,,,,,,,,,,,,,,,,,,,,,,,,,,,,,,,,,,,10,14,1,2024-10-29_10h33.40.571,uWM_experiment,2022.2.3,59.999808
,,,,,,,,,,,,,,,,,,,,0,0,0,0,0,0,0,0,,,,,,,,,,,,,,,,,,,,,,,,,,,,,,,,,,,,,,,,,,,,,,,,,,,,,,,,,,,,,,,,,,,,,,0.209397506,,,,,,,,,,,,,,,,,,,,1150.153242,1150.85326,1151.136606,1151.8367,1152.136643,1152.836685,1152.836685,1153.186679,left,0,160,30,190,1,1158.503601,1158.503601,1158.503601,None,None,3,0,1.7802565,,,,,,,,,,,,,,,,,,,10,14,1,2024-10-29_10h33.40.571,uWM_experiment,2022.2.3,59.999808
,,,,,,,,,,,,,,,,,,,,0,0,0,0,1,0,1,0,,,,,,,,,,,,,,,,,,,,,,,,,,,,,,,,,,,,,,,,,,,,,,,,,,,,,,,,,,,,,,,,,,,,,,0.199397506,,,,,,,,,,,,,,,,,,,,,,,,,,,,left,0,10,30,40,1,1166.870548,1166.870548,1166.870548,None,None,2,0,1.4052075,,,,,,,,,,,,,,,,,,,10,14,1,2024-10-29_10h33.40.571,uWM_experiment,2022.2.3,59.999808
,,,,,,,,,,,,,,,,,,,,0,0,0,0,2,0,2,0,,,,,,,,,,,,,,,,,,,,,,,,,,,,,,,,,,,,,,,,,,,,,,,,,,,,,,,,,,,,,,,,,,,,,,0.189397506,,,,,,,,,,,,,,,,,,,,,,,,,,,,left,0,160,30,190,1,1175.170888,1175.170888,1175.170888,None,None,1,1,0.4568521,,,,,,,,,,,,,,,,,,,10,14,1,2024-10-29_10h33.40.571,uWM_experiment,2022.2.3,59.999808
,,,,,,,,,,,,,,,,,,,,0,0,0,0,3,0,3,0,,,,,,,,,,,,,,,,,,,,,,,,,,,,,,,,,,,,,,,,,,,,,,,,,,,,,,,,,,,,,,,,,,,,,,0.199397506,,,,,,,,,,,,,,,,,,,,,,,,,,,,left,0,160,30,190,1,1181.721153,1181.721153,1181.721153,None,None,2,0,0.6905961,,,,,,,,,,,,,,,,,,,10,14,1,2024-10-29_10h33.40.571,uWM_experiment,2022.2.3,59.999808
,,,,,,,,,,,,,,,,,,,,0,0,0,0,4,0,4,0,,,,,,,,,,,,,,,,,,,,,,,,,,,,,,,,,,,,,,,,,,,,,,,,,,,,,,,,,,,,,,,,,,,,,,0.189397506,,,,,,,,,,,,,,,,,,,,,,,,,,,,left,0,40,30,70,1,1189.654797,1189.654797,1189.654797,None,None,2,0,0.9888028,,,,,,,,,,,,,,,,,,,10,14,1,2024-10-29_10h33.40.571,uWM_experiment,2022.2.3,59.999808
,,,,,,,,,,,,,,,,,,,,0,0,0,0,5,0,5,0,,,,,,,,,,,,,,,,,,,,,,,,,,,,,,,,,,,,,,,,,,,,,,,,,,,,,,,,,,,,,,,,,,,,,,0.179397506,,,,,,,,,,,,,,,,,,,,,,,,,,,,left,1,160,-30,130,1,1197.255164,1197.255164,1197.255164,None,None,1,1,0.6524348,,,,,,,,,,,,,,,,,,,10,14,1,2024-10-29_10h33.40.571,uWM_experiment,2022.2.3,59.999808
,,,,,,,,,,,,,,,,,,,,0,0,0,0,6,0,6,0,,,,,,,,,,,,,,,,,,,,,,,,,,,,,,,,,,,,,,,,,,,,,,,,,,,,,,,,,,,,,,,,,,,,,,0.189397506,,,,,,,,,,,,,,,,,,,,,,,,,,,,left,0,70,30,100,1,1205.022087,1205.022087,1205.022087,None,None,2,0,1.5174725,,,,,,,,,,,,,,,,,,,10,14,1,2024-10-29_10h33.40.571,uWM_experiment,2022.2.3,59.999808
,,,,,,,,,,,,,,,,,,,,0,0,0,0,7,0,7,0,,,,,,,,,,,,,,,,,,,,,,,,,,,,,,,,,,,,,,,,,,,,,,,,,,,,,,,,,,,,,,,,,,,,,,0.1,,,,,,,,,,,,,,,,,,,,,,,,,,,,left,0,70,30,100,2,1213.222444,1213.222444,1213.222444,None,None,1,1,0.5571908,,,,,,,,,,,,,,,,,,,10,14,1,2024-10-29_10h33.40.571,uWM_experiment,2022.2.3,59.999808
,,,,,,,,,,,,,,,,,,,,0,0,0,0,8,0,8,0,,,,,,,,,,,,,,,,,,,,,,,,,,,,,,,,,,,,,,,,,,,,,,,,,,,,,,,,,,,,,,,,,,,,,,0.179397506,,,,,,,,,,,,,,,,,,,,,,,,,,,,left,0,100,30,130,1,1220.439439,1220.439439,1220.439439,None,None,1,1,0.4441412,,,,,,,,,,,,,,,,,,,10,14,1,2024-10-29_10h33.40.571,uWM_experiment,2022.2.3,59.999808
,,,,,,,,,,,,,,,,,,,,0,0,0,0,9,0,9,0,,,,,,,,,,,,,,,,,,,,,,,,,,,,,,,,,,,,,,,,,,,,,,,,,,,,,,,,,,,,,,,,,,,,,,0.1,,,,,,,,,,,,,,,,,,,,,,,,,,,,left,0,100,30,130,2,1230.689771,1230.689771,1230.689771,None,None,4,0,1.1216381,,,,,,,,,,,,,,,,,,,10,14,1,2024-10-29_10h33.40.571,uWM_experiment,2022.2.3,59.999808
,,,,,,,,,,,,,,,,,,,,0,0,0,0,10,0,10,0,,,,,,,,,,,,,,,,,,,,,,,,,,,,,,,,,,,,,,,,,,,,,,,,,,,,,,,,,,,,,,,,,,,,,,0.189397506,,,,,,,,,,,,,,,,,,,,,,,,,,,,left,1,130,-30,100,1,1237.923477,1237.923477,1237.923477,None,None,1,1,0.3279883,,,,,,,,,,,,,,,,,,,10,14,1,2024-10-29_10h33.40.571,uWM_experiment,2022.2.3,59.999808
,,,,,,,,,,,,,,,,,,,,0,0,0,0,11,0,11,0,,,,,,,,,,,,,,,,,,,,,,,,,,,,,,,,,,,,,,,,,,,,,,,,,,,,,,,,,,,,,,,,,,,,,,0.199397506,,,,,,,,,,,,,,,,,,,,,,,,,,,,right,1,160,30,190,1,1245.507046,1245.507046,1245.507046,None,None,4,0,5.3443785,,,,,,,,,,,,,,,,,,,10,14,1,2024-10-29_10h33.40.571,uWM_experiment,2022.2.3,59.999808
,,,,,,,,,,,,,,,,,,,,0,0,0,0,12,0,12,0,,,,,,,,,,,,,,,,,,,,,,,,,,,,,,,,,,,,,,,,,,,,,,,,,,,,,,,,,,,,,,,,,,,,,,0,,,,,,,,,,,,,,,,,,,,,,,,,,,,right,1,130,30,160,0,1258.174214,1258.174214,1258.174214,None,None,2,0,1.5251549,,,,,,,,,,,,,,,,,,,10,14,1,2024-10-29_10h33.40.571,uWM_experiment,2022.2.3,59.999808
,,,,,,,,,,,,,,,,,,,,0,0,0,0,13,0,13,0,,,,,,,,,,,,,,,,,,,,,,,,,,,,,,,,,,,,,,,,,,,,,,,,,,,,,,,,,,,,,,,,,,,,,,0.189397506,,,,,,,,,,,,,,,,,,,,,,,,,,,,left,0,100,30,130,1,1267.141237,1267.141237,1267.141237,None,None,1,1,0.4220644,,,,,,,,,,,,,,,,,,,10,14,1,2024-10-29_10h33.40.571,uWM_experiment,2022.2.3,59.999808
,,,,,,,,,,,,,,,,,,,,0,0,0,0,14,0,14,0,,,,,,,,,,,,,,,,,,,,,,,,,,,,,,,,,,,,,,,,,,,,,,,,,,,,,,,,,,,,,,,,,,,,,,0,,,,,,,,,,,,,,,,,,,,,,,,,,,,left,1,10,-30,-20,0,1274.191496,1274.191496,1274.191496,None,None,1,1,0.8677647,,,,,,,,,,,,,,,,,,,10,14,1,2024-10-29_10h33.40.571,uWM_experiment,2022.2.3,59.999808
,,,,,,,,,,,,,,,,,,,,0,0,0,0,15,0,15,0,,,,,,,,,,,,,,,,,,,,,,,,,,,,,,,,,,,,,,,,,,,,,,,,,,,,,,,,,,,,,,,,,,,,,,0.199397506,,,,,,,,,,,,,,,,,,,,,,,,,,,,left,0,100,30,130,1,1283.808549,1283.808549,1283.808549,None,None,1,1,0.7467481,,,,,,,,,,,,,,,,,,,10,14,1,2024-10-29_10h33.40.571,uWM_experiment,2022.2.3,59.999808
,,,,,,,,,,,,,,,,,,,,0,0,0,0,16,0,16,0,,,,,,,,,,,,,,,,,,,,,,,,,,,,,,,,,,,,,,,,,,,,,,,,,,,,,,,,,,,,,,,,,,,,,,0.209397506,,,,,,,,,,,,,,,,,,,,,,,,,,,,left,1,10,-30,-20,1,1290.358889,1290.358889,1290.358889,None,None,1,1,0.2604067,,,,,,,,,,,,,,,,,,,10,14,1,2024-10-29_10h33.40.571,uWM_experiment,2022.2.3,59.999808
,,,,,,,,,,,,,,,,,,,,0,0,0,0,17,0,17,0,,,,,,,,,,,,,,,,,,,,,,,,,,,,,,,,,,,,,,,,,,,,,,,,,,,,,,,,,,,,,,,,,,,,,,0.219397506,,,,,,,,,,,,,,,,,,,,,,,,,,,,right,1,130,30,160,1,1297.042433,1297.042433,1297.042433,None,None,1,1,0.3608559,,,,,,,,,,,,,,,,,,,10,14,1,2024-10-29_10h33.40.571,uWM_experiment,2022.2.3,59.999808
,,,,,,,,,,,,,,,,,,,,0,0,0,0,18,0,18,0,,,,,,,,,,,,,,,,,,,,,,,,,,,,,,,,,,,,,,,,,,,,,,,,,,,,,,,,,,,,,,,,,,,,,,0.229397506,,,,,,,,,,,,,,,,,,,,,,,,,,,,left,1,160,-30,130,1,1303.626024,1303.626024,1303.626024,None,None,2,0,2.2572068,,,,,,,,,,,,,,,,,,,10,14,1,2024-10-29_10h33.40.571,uWM_experiment,2022.2.3,59.999808
,,,,,,,,,,,,,,,,,,,,0,0,0,0,19,0,19,0,,,,,,,,,,,,,,,,,,,,,,,,,,,,,,,,,,,,,,,,,,,,,,,,,,,,,,,,,,,,,,,,,,,,,,0.219397506,,,,,,,,,,,,,,,,,,,,,,,,,,,,right,1,40,30,70,1,1313.943087,1313.943087,1313.943087,None,None,1,1,0.8121456,,,,,,,,,,,,,,,,,,,10,14,1,2024-10-29_10h33.40.571,uWM_experiment,2022.2.3,59.999808
,,,,,,,,,,,,,,,,,,,,0,0,0,0,20,0,20,0,,,,,,,,,,,,,,,,,,,,,,,,,,,,,,,,,,,,,,,,,,,,,,,,,,,,,,,,,,,,,,,,,,,,,,0.1,,,,,,,,,,,,,,,,,,,,,,,,,,,,left,1,70,-30,40,2,1321.3434,1321.3434,1321.3434,None,None,2,0,0.8036851,,,,,,,,,,,,,,,,,,,10,14,1,2024-10-29_10h33.40.571,uWM_experiment,2022.2.3,59.999808
,,,,,,,,,,,,,,,,,,,,0,0,0,0,21,0,21,0,,,,,,,,,,,,,,,,,,,,,,,,,,,,,,,,,,,,,,,,,,,,,,,,,,,,,,,,,,,,,,,,,,,,,,0,,,,,,,,,,,,,,,,,,,,,,,,,,,,right,1,160,30,190,0,1329.543752,1329.543752,1329.543752,None,None,1,1,0.6672256,,,,,,,,,,,,,,,,,,,10,14,1,2024-10-29_10h33.40.571,uWM_experiment,2022.2.3,59.999808
,,,,,,,,,,,,,,,,,,,,0,0,0,0,22,0,22,0,,,,,,,,,,,,,,,,,,,,,,,,,,,,,,,,,,,,,,,,,,,,,,,,,,,,,,,,,,,,,,,,,,,,,,0.1,,,,,,,,,,,,,,,,,,,,,,,,,,,,right,0,10,-30,-20,2,1337.744067,1337.744067,1337.744067,None,None,1,1,0.4749665,,,,,,,,,,,,,,,,,,,10,14,1,2024-10-29_10h33.40.571,uWM_experiment,2022.2.3,59.999808
,,,,,,,,,,,,,,,,,,,,0,0,0,0,23,0,23,0,,,,,,,,,,,,,,,,,,,,,,,,,,,,,,,,,,,,,,,,,,,,,,,,,,,,,,,,,,,,,,,,,,,,,,0.229397506,,,,,,,,,,,,,,,,,,,,,,,,,,,,left,0,40,30,70,1,1344.644329,1344.644329,1344.644329,None,None,1,1,0.4947062,,,,,,,,,,,,,,,,,,,10,14,1,2024-10-29_10h33.40.571,uWM_experiment,2022.2.3,59.999808
,,,,,,,,,,,,,,,,,,,,0,0,0,0,,,,,0,0,0,0,,,,,,,,,,,,,,,,,,,,,,,,,,,,,,,,,,,,,,,,,,,,,,,,,,,,,,,,,,,,,,,,,,,,,,,,,,,,,,,,,,,,,,,,,,,,,,,,,,,,,,,,,,,,1345.161003,1345.161003,space,16.4899099,None,None,,,,,,,,,,,,,10,14,1,2024-10-29_10h33.40.571,uWM_experiment,2022.2.3,59.999808
,,,,,,,,,,,,,,,,,,,,0,0,0,0,,,,,1,0,1,0,,,,,,,,,,,,,,,,,,,,,,,,,,,,,,,,,,,,,,,,,,,,,,,,,,,,,,,,,,,,,,,,,,,,,,,,,,,,,,,,,,,,,,,,,,,,,,,,,,,,,,,,,,,,,,,,,,,,,,,,,,,,,,10,14,1,2024-10-29_10h33.40.571,uWM_experiment,2022.2.3,59.999808
,,,,,,,,,,,,,,,,,,,,0,0,0,0,,,,,2,0,2,0,,,,,,,,,,,,,,,,,,,,,,,,,,,,,,,,,,,,,,,,,,,,,,,,,,,,,,,,,,,,,,,,,,,,,,,,,,,,,,,,,,,,,,,,,,,,,,,,,,,,,,,,,,,,,,,,,,,,,,,,,,,,,,10,14,1,2024-10-29_10h33.40.571,uWM_experiment,2022.2.3,59.999808
,,,,,,,,,,,,,,,,,,,,1,0,1,0,0,0,0,0,,,,,,,,,,,,,,,,,,,,,,,,,,,,,,,,,,,,,,,,,,,,,,,,,,,,,,,,,,,,,,,,,,,,,,0,,,,,,,,,,,,,,,,,,,,1361.678387,1362.378362,1362.678434,1363.378399,1363.678465,1364.378439,1364.378439,1364.695128,right,0,70,-30,40,0,1370.495372,1370.495372,1370.495372,None,None,1,1,0.5714707,,,,,,,None,,,,,,,,,,,,10,14,1,2024-10-29_10h33.40.571,uWM_experiment,2022.2.3,59.999808
,,,,,,,,,,,,,,,,,,,,1,0,1,0,1,0,1,0,,,,,,,,,,,,,,,,,,,,,,,,,,,,,,,,,,,,,,,,,,,,,,,,,,,,,,,,,,,,,,,,,,,,,,0,,,,,,,,,,,,,,,,,,,,,,,,,,,,right,1,100,30,130,0,1377.395623,1377.395623,1377.395623,None,None,1,1,0.335118,,,,,,,,,,,,,,,,,,,10,14,1,2024-10-29_10h33.40.571,uWM_experiment,2022.2.3,59.999808
,,,,,,,,,,,,,,,,,,,,1,0,1,0,2,0,2,0,,,,,,,,,,,,,,,,,,,,,,,,,,,,,,,,,,,,,,,,,,,,,,,,,,,,,,,,,,,,,,,,,,,,,,0,,,,,,,,,,,,,,,,,,,,,,,,,,,,left,1,10,-30,-20,0,1384.262577,1384.262577,1384.262577,None,None,1,1,0.4362019,,,,,,,,,,,,,,,,,,,10,14,1,2024-10-29_10h33.40.571,uWM_experiment,2022.2.3,59.999808
,,,,,,,,,,,,,,,,,,,,1,0,1,0,3,0,3,0,,,,,,,,,,,,,,,,,,,,,,,,,,,,,,,,,,,,,,,,,,,,,,,,,,,,,,,,,,,,,,,,,,,,,,0.239397506,,,,,,,,,,,,,,,,,,,,,,,,,,,,right,0,100,-30,70,1,1391.829566,1391.829566,1391.829566,None,None,1,1,0.7891738,,,,,,,,,,,,,,,,,,,10,14,1,2024-10-29_10h33.40.571,uWM_experiment,2022.2.3,59.999808
,,,,,,,,,,,,,,,,,,,,1,0,1,0,4,0,4,0,,,,,,,,,,,,,,,,,,,,,,,,,,,,,,,,,,,,,,,,,,,,,,,,,,,,,,,,,,,,,,,,,,,,,,0.249397506,,,,,,,,,,,,,,,,,,,,,,,,,,,,right,1,10,30,40,1,1399.196554,1399.196554,1399.196554,None,None,3,0,1.1742546,,,,,,,,,,,,,,,,,,,10,14,1,2024-10-29_10h33.40.571,uWM_experiment,2022.2.3,59.999808
,,,,,,,,,,,,,,,,,,,,1,0,1,0,5,0,5,0,,,,,,,,,,,,,,,,,,,,,,,,,,,,,,,,,,,,,,,,,,,,,,,,,,,,,,,,,,,,,,,,,,,,,,0.239397506,,,,,,,,,,,,,,,,,,,,,,,,,,,,right,0,100,-30,70,1,1411.31364,1411.31364,1411.31364,None,None,1,1,2.0009988,,,,,,,,,,,,,,,,,,,10,14,1,2024-10-29_10h33.40.571,uWM_experiment,2022.2.3,59.999808
,,,,,,,,,,,,,,,,,,,,1,0,1,0,6,0,6,0,,,,,,,,,,,,,,,,,,,,,,,,,,,,,,,,,,,,,,,,,,,,,,,,,,,,,,,,,,,,,,,,,,,,,,0.249397506,,,,,,,,,,,,,,,,,,,,,,,,,,,,right,0,40,-30,10,1,1422.747443,1422.747443,1422.747443,None,None,2,0,0.7591667,,,,,,,,,,,,,,,,,,,10,14,1,2024-10-29_10h33.40.571,uWM_experiment,2022.2.3,59.999808
,,,,,,,,,,,,,,,,,,,,1,0,1,0,7,0,7,0,,,,,,,,,,,,,,,,,,,,,,,,,,,,,,,,,,,,,,,,,,,,,,,,,,,,,,,,,,,,,,,,,,,,,,0.239397506,,,,,,,,,,,,,,,,,,,,,,,,,,,,left,1,40,-30,10,1,1429.531025,1429.531025,1429.531025,None,None,1,1,0.5756029,,,,,,,,,,,,,,,,,,,10,14,1,2024-10-29_10h33.40.571,uWM_experiment,2022.2.3,59.999808
,,,,,,,,,,,,,,,,,,,,1,0,1,0,8,0,8,0,,,,,,,,,,,,,,,,,,,,,,,,,,,,,,,,,,,,,,,,,,,,,,,,,,,,,,,,,,,,,,,,,,,,,,0,,,,,,,,,,,,,,,,,,,,,,,,,,,,left,0,130,30,160,0,1436.597995,1436.597995,1436.597995,None,None,1,1,0.4446173,,,,,,,,,,,,,,,,,,,10,14,1,2024-10-29_10h33.40.571,uWM_experiment,2022.2.3,59.999808
,,,,,,,,,,,,,,,,,,,,1,0,1,0,9,0,9,0,,,,,,,,,,,,,,,,,,,,,,,,,,,,,,,,,,,,,,,,,,,,,,,,,,,,,,,,,,,,,,,,,,,,,,0,,,,,,,,,,,,,,,,,,,,,,,,,,,,left,1,130,-30,100,0,1444.981651,1444.981651,1444.981651,None,None,2,0,0.9569479,,,,,,,,,,,,,,,,,,,10,14,1,2024-10-29_10h33.40.571,uWM_experiment,2022.2.3,59.999808
,,,,,,,,,,,,,,,,,,,,1,0,1,0,10,0,10,0,,,,,,,,,,,,,,,,,,,,,,,,,,,,,,,,,,,,,,,,,,,,,,,,,,,,,,,,,,,,,,,,,,,,,,0.249397506,,,,,,,,,,,,,,,,,,,,,,,,,,,,left,0,130,30,160,1,1451.998651,1451.998651,1451.998651,None,None,1,1,0.8198298,,,,,,,,,,,,,,,,,,,10,14,1,2024-10-29_10h33.40.571,uWM_experiment,2022.2.3,59.999808
,,,,,,,,,,,,,,,,,,,,1,0,1,0,11,0,11,0,,,,,,,,,,,,,,,,,,,,,,,,,,,,,,,,,,,,,,,,,,,,,,,,,,,,,,,,,,,,,,,,,,,,,,0,,,,,,,,,,,,,,,,,,,,,,,,,,,,left,1,10,-30,-20,0,1459.848916,1459.848916,1459.848916,None,None,1,1,0.6175361,,,,,,,,,,,,,,,,,,,10,14,1,2024-10-29_10h33.40.571,uWM_experiment,2022.2.3,59.999808
,,,,,,,,,,,,,,,,,,,,1,0,1,0,12,0,12,0,,,,,,,,,,,,,,,,,,,,,,,,,,,,,,,,,,,,,,,,,,,,,,,,,,,,,,,,,,,,,,,,,,,,,,0,,,,,,,,,,,,,,,,,,,,,,,,,,,,left,0,100,30,130,0,1466.449184,1466.449184,1466.449184,None,None,1,1,0.369192,,,,,,,,,,,,,,,,,,,10,14,1,2024-10-29_10h33.40.571,uWM_experiment,2022.2.3,59.999808
,,,,,,,,,,,,,,,,,,,,1,0,1,0,13,0,13,0,,,,,,,,,,,,,,,,,,,,,,,,,,,,,,,,,,,,,,,,,,,,,,,,,,,,,,,,,,,,,,,,,,,,,,0.259397506,,,,,,,,,,,,,,,,,,,,,,,,,,,,right,0,40,-30,10,1,1473.616113,1473.616113,1473.616113,None,None,1,1,0.3623646,,,,,,,,,,,,,,,,,,,10,14,1,2024-10-29_10h33.40.571,uWM_experiment,2022.2.3,59.999808
,,,,,,,,,,,,,,,,,,,,1,0,1,0,14,0,14,0,,,,,,,,,,,,,,,,,,,,,,,,,,,,,,,,,,,,,,,,,,,,,,,,,,,,,,,,,,,,,,,,,,,,,,0.269397506,,,,,,,,,,,,,,,,,,,,,,,,,,,,left,0,70,30,100,1,1479.716368,1479.716368,1479.716368,None,None,1,1,0.2461337,,,,,,,,,,,,,,,,,,,10,14,1,2024-10-29_10h33.40.571,uWM_experiment,2022.2.3,59.999808
,,,,,,,,,,,,,,,,,,,,1,0,1,0,15,0,15,0,,,,,,,,,,,,,,,,,,,,,,,,,,,,,,,,,,,,,,,,,,,,,,,,,,,,,,,,,,,,,,,,,,,,,,0.279397506,,,,,,,,,,,,,,,,,,,,,,,,,,,,left,0,100,30,130,1,1486.633296,1486.633296,1486.633296,None,None,2,0,0.8731175,,,,,,,,,,,,,,,,,,,10,14,1,2024-10-29_10h33.40.571,uWM_experiment,2022.2.3,59.999808
,,,,,,,,,,,,,,,,,,,,1,0,1,0,16,0,16,0,,,,,,,,,,,,,,,,,,,,,,,,,,,,,,,,,,,,,,,,,,,,,,,,,,,,,,,,,,,,,,,,,,,,,,0.269397506,,,,,,,,,,,,,,,,,,,,,,,,,,,,right,0,10,-30,-20,1,1492.63359,1492.63359,1492.63359,None,None,1,1,0.4328188,,,,,,,,,,,,,,,,,,,10,14,1,2024-10-29_10h33.40.571,uWM_experiment,2022.2.3,59.999808
,,,,,,,,,,,,,,,,,,,,1,0,1,0,17,0,17,0,,,,,,,,,,,,,,,,,,,,,,,,,,,,,,,,,,,,,,,,,,,,,,,,,,,,,,,,,,,,,,,,,,,,,,0.279397506,,,,,,,,,,,,,,,,,,,,,,,,,,,,right,0,70,-30,40,1,1499.31715,1499.31715,1499.31715,None,None,1,1,0.061186,,,,,,,,,,,,,,,,,,,10,14,1,2024-10-29_10h33.40.571,uWM_experiment,2022.2.3,59.999808
,,,,,,,,,,,,,,,,,,,,1,0,1,0,18,0,18,0,,,,,,,,,,,,,,,,,,,,,,,,,,,,,,,,,,,,,,,,,,,,,,,,,,,,,,,,,,,,,,,,,,,,,,0.289397506,,,,,,,,,,,,,,,,,,,,,,,,,,,,right,0,100,-30,70,1,1507.517498,1507.517498,1507.517498,None,None,3,0,1.6128026,,,,,,,,,,,,,,,,,,,10,14,1,2024-10-29_10h33.40.571,uWM_experiment,2022.2.3,59.999808
,,,,,,,,,,,,,,,,,,,,1,0,1,0,19,0,19,0,,,,,,,,,,,,,,,,,,,,,,,,,,,,,,,,,,,,,,,,,,,,,,,,,,,,,,,,,,,,,,,,,,,,,,0.279397506,,,,,,,,,,,,,,,,,,,,,,,,,,,,left,1,160,-30,130,1,1515.551148,1515.551148,1515.551148,None,None,1,1,0.4350172,,,,,,,,,,,,,,,,,,,10,14,1,2024-10-29_10h33.40.571,uWM_experiment,2022.2.3,59.999808
,,,,,,,,,,,,,,,,,,,,1,0,1,0,20,0,20,0,,,,,,,,,,,,,,,,,,,,,,,,,,,,,,,,,,,,,,,,,,,,,,,,,,,,,,,,,,,,,,,,,,,,,,0.289397506,,,,,,,,,,,,,,,,,,,,,,,,,,,,right,0,40,-30,10,1,1522.734728,1522.734728,1522.734728,None,None,2,0,0.4594808,,,,,,,,,,,,,,,,,,,10,14,1,2024-10-29_10h33.40.571,uWM_experiment,2022.2.3,59.999808
,,,,,,,,,,,,,,,,,,,,1,0,1,0,21,0,21,0,,,,,,,,,,,,,,,,,,,,,,,,,,,,,,,,,,,,,,,,,,,,,,,,,,,,,,,,,,,,,,,,,,,,,,0.279397506,,,,,,,,,,,,,,,,,,,,,,,,,,,,right,1,160,30,190,1,1529.051666,1529.051666,1529.051666,None,None,1,1,0.3344401,,,,,,,,,,,,,,,,,,,10,14,1,2024-10-29_10h33.40.571,uWM_experiment,2022.2.3,59.999808
,,,,,,,,,,,,,,,,,,,,1,0,1,0,22,0,22,0,,,,,,,,,,,,,,,,,,,,,,,,,,,,,,,,,,,,,,,,,,,,,,,,,,,,,,,,,,,,,,,,,,,,,,0.289397506,,,,,,,,,,,,,,,,,,,,,,,,,,,,right,1,10,30,40,1,1535.518651,1535.518651,1535.518651,None,None,1,1,0.4116248,,,,,,,,,,,,,,,,,,,10,14,1,2024-10-29_10h33.40.571,uWM_experiment,2022.2.3,59.999808
,,,,,,,,,,,,,,,,,,,,1,0,1,0,23,0,23,0,,,,,,,,,,,,,,,,,,,,,,,,,,,,,,,,,,,,,,,,,,,,,,,,,,,,,,,,,,,,,,,,,,,,,,0.299397506,,,,,,,,,,,,,,,,,,,,,,,,,,,,right,0,70,-30,40,1,1543.102235,1543.102235,1543.102235,None,None,1,1,0.5559696,,,,,,,,,,,,,,,,,,,10,14,1,2024-10-29_10h33.40.571,uWM_experiment,2022.2.3,59.999808
,,,,,,,,,,,,,,,,,,,,1,0,1,0,,,,,0,0,0,0,,,,,,,,,,,,,,,,,,,,,,,,,,,,,,,,,,,,,,,,,,,,,,,,,,,,,,,,,,,,,,,,,,,,,,,,,,,,,,,,,,,,,,,,,,,,,,,,,,,,,,,,,,,,1543.68557,1543.68557,space,32.2604048,None,None,,,,,,,,,,,,,10,14,1,2024-10-29_10h33.40.571,uWM_experiment,2022.2.3,59.999808
,,,,,,,,,,,,,,,,,,,,1,0,1,0,,,,,1,0,1,0,,,,,,,,,,,,,,,,,,,,,,,,,,,,,,,,,,,,,,,,,,,,,,,,,,,,,,,,,,,,,,,,,,,,,,,,,,,,,,,,,,,,,,,,,,,,,,,,,,,,,,,,,,,,,,,,,,,,,,,,,,,,,,10,14,1,2024-10-29_10h33.40.571,uWM_experiment,2022.2.3,59.999808
,,,,,,,,,,,,,,,,,,,,1,0,1,0,,,,,2,0,2,0,,,,,,,,,,,,,,,,,,,,,,,,,,,,,,,,,,,,,,,,,,,,,,,,,,,,,,,,,,,,,,,,,,,,,,,,,,,,,,,,,,,,,,,,,,,,,,,,,,,,,,,,,,,,,,,,,,,,,,,,,,,,,,10,14,1,2024-10-29_10h33.40.571,uWM_experiment,2022.2.3,59.999808
,,,,,,,,,,,,,,,,,,,,2,0,2,0,0,0,0,0,,,,,,,,,,,,,,,,,,,,,,,,,,,,,,,,,,,,,,,,,,,,,,,,,,,,,,,,,,,,,,,,,,,,,,0.309397506,,,,,,,,,,,,,,,,,,,,1575.970188,1576.67023,1576.970238,1577.670294,1577.970276,1578.670304,1578.670304,1578.986986,left,0,160,30,190,1,1587.803996,1587.803996,1587.803996,None,None,1,1,0.7900497,,,,,,,None,,,,,,,,,,,,10,14,1,2024-10-29_10h33.40.571,uWM_experiment,2022.2.3,59.999808
,,,,,,,,,,,,,,,,,,,,2,0,2,0,1,0,1,0,,,,,,,,,,,,,,,,,,,,,,,,,,,,,,,,,,,,,,,,,,,,,,,,,,,,,,,,,,,,,,,,,,,,,,0,,,,,,,,,,,,,,,,,,,,,,,,,,,,right,1,40,30,70,0,1594.82102,1594.82102,1594.82102,None,None,1,1,0.9729574,,,,,,,,,,,,,,,,,,,10,14,1,2024-10-29_10h33.40.571,uWM_experiment,2022.2.3,59.999808
,,,,,,,,,,,,,,,,,,,,2,0,2,0,2,0,2,0,,,,,,,,,,,,,,,,,,,,,,,,,,,,,,,,,,,,,,,,,,,,,,,,,,,,,,,,,,,,,,,,,,,,,,0.319397506,,,,,,,,,,,,,,,,,,,,,,,,,,,,left,1,100,-30,70,1,1601.254603,1601.254603,1601.254603,None,None,1,1,0.8912579,,,,,,,,,,,,,,,,,,,10,14,1,2024-10-29_10h33.40.571,uWM_experiment,2022.2.3,59.999808
,,,,,,,,,,,,,,,,,,,,2,0,2,0,3,0,3,0,,,,,,,,,,,,,,,,,,,,,,,,,,,,,,,,,,,,,,,,,,,,,,,,,,,,,,,,,,,,,,,,,,,,,,0.1,,,,,,,,,,,,,,,,,,,,,,,,,,,,left,0,70,30,100,2,1609.62153,1609.62153,1609.62153,None,None,2,0,1.2282574,,,,,,,,,,,,,,,,,,,10,14,1,2024-10-29_10h33.40.571,uWM_experiment,2022.2.3,59.999808
,,,,,,,,,,,,,,,,,,,,2,0,2,0,4,0,4,0,,,,,,,,,,,,,,,,,,,,,,,,,,,,,,,,,,,,,,,,,,,,,,,,,,,,,,,,,,,,,,,,,,,,,,0.329397506,,,,,,,,,,,,,,,,,,,,,,,,,,,,left,1,10,-30,-20,1,1617.971881,1617.971881,1617.971881,None,None,1,1,0.3978611,,,,,,,,,,,,,,,,,,,10,14,1,2024-10-29_10h33.40.571,uWM_experiment,2022.2.3,59.999808
,,,,,,,,,,,,,,,,,,,,2,0,2,0,5,0,5,0,,,,,,,,,,,,,,,,,,,,,,,,,,,,,,,,,,,,,,,,,,,,,,,,,,,,,,,,,,,,,,,,,,,,,,0.339397506,,,,,,,,,,,,,,,,,,,,,,,,,,,,right,0,100,-30,70,1,1625.322175,1625.322175,1625.322175,None,None,1,1,1.3436491,,,,,,,,,,,,,,,,,,,10,14,1,2024-10-29_10h33.40.571,uWM_experiment,2022.2.3,59.999808
,,,,,,,,,,,,,,,,,,,,2,0,2,0,6,0,6,0,,,,,,,,,,,,,,,,,,,,,,,,,,,,,,,,,,,,,,,,,,,,,,,,,,,,,,,,,,,,,,,,,,,,,,0.349397506,,,,,,,,,,,,,,,,,,,,,,,,,,,,left,1,10,-30,-20,1,1632.522504,1632.522504,1632.522504,None,None,1,1,0.679276,,,,,,,,,,,,,,,,,,,10,14,1,2024-10-29_10h33.40.571,uWM_experiment,2022.2.3,59.999808
,,,,,,,,,,,,,,,,,,,,2,0,2,0,7,0,7,0,,,,,,,,,,,,,,,,,,,,,,,,,,,,,,,,,,,,,,,,,,,,,,,,,,,,,,,,,,,,,,,,,,,,,,0.359397506,,,,,,,,,,,,,,,,,,,,,,,,,,,,left,0,70,30,100,1,1641.372815,1641.372815,1641.372815,None,None,1,1,3.2928696,,,,,,,,,,,,,,,,,,,10,14,1,2024-10-29_10h33.40.571,uWM_experiment,2022.2.3,59.999808
,,,,,,,,,,,,,,,,,,,,2,0,2,0,8,0,8,0,,,,,,,,,,,,,,,,,,,,,,,,,,,,,,,,,,,,,,,,,,,,,,,,,,,,,,,,,,,,,,,,,,,,,,0.369397506,,,,,,,,,,,,,,,,,,,,,,,,,,,,right,0,10,-30,-20,1,1652.639939,1652.639939,1652.639939,None,None,2,0,1.529704,,,,,,,,,,,,,,,,,,,10,14,1,2024-10-29_10h33.40.571,uWM_experiment,2022.2.3,59.999808
,,,,,,,,,,,,,,,,,,,,2,0,2,0,9,0,9,0,,,,,,,,,,,,,,,,,,,,,,,,,,,,,,,,,,,,,,,,,,,,,,,,,,,,,,,,,,,,,,,,,,,,,,0.359397506,,,,,,,,,,,,,,,,,,,,,,,,,,,,right,0,100,-30,70,1,1663.440407,1663.440407,1663.440407,None,None,1,1,1.3932134,,,,,,,,,,,,,,,,,,,10,14,1,2024-10-29_10h33.40.571,uWM_experiment,2022.2.3,59.999808
,,,,,,,,,,,,,,,,,,,,2,0,2,0,10,0,10,0,,,,,,,,,,,,,,,,,,,,,,,,,,,,,,,,,,,,,,,,,,,,,,,,,,,,,,,,,,,,,,,,,,,,,,0,,,,,,,,,,,,,,,,,,,,,,,,,,,,left,1,10,-30,-20,0,1672.357373,1672.357373,1672.357373,None,None,2,0,0.7802495,,,,,,,,,,,,,,,,,,,10,14,1,2024-10-29_10h33.40.571,uWM_experiment,2022.2.3,59.999808
,,,,,,,,,,,,,,,,,,,,2,0,2,0,11,0,11,0,,,,,,,,,,,,,,,,,,,,,,,,,,,,,,,,,,,,,,,,,,,,,,,,,,,,,,,,,,,,,,,,,,,,,,0.369397506,,,,,,,,,,,,,,,,,,,,,,,,,,,,left,0,100,30,130,1,1679.007639,1679.007639,1679.007639,None,None,1,1,0.4259258,,,,,,,,,,,,,,,,,,,10,14,1,2024-10-29_10h33.40.571,uWM_experiment,2022.2.3,59.999808
,,,,,,,,,,,,,,,,,,,,2,0,2,0,12,0,12,0,,,,,,,,,,,,,,,,,,,,,,,,,,,,,,,,,,,,,,,,,,,,,,,,,,,,,,,,,,,,,,,,,,,,,,0.379397506,,,,,,,,,,,,,,,,,,,,,,,,,,,,left,0,100,30,130,1,1688.291336,1688.291336,1688.291336,None,None,3,0,1.734075,,,,,,,,,,,,,,,,,,,10,14,1,2024-10-29_10h33.40.571,uWM_experiment,2022.2.3,59.999808
,,,,,,,,,,,,,,,,,,,,2,0,2,0,13,0,13,0,,,,,,,,,,,,,,,,,,,,,,,,,,,,,,,,,,,,,,,,,,,,,,,,,,,,,,,,,,,,,,,,,,,,,,0.369397506,,,,,,,,,,,,,,,,,,,,,,,,,,,,left,1,100,-30,70,1,1696.124978,1696.124978,1696.124978,None,None,2,0,0.9005664,,,,,,,,,,,,,,,,,,,10,14,1,2024-10-29_10h33.40.571,uWM_experiment,2022.2.3,59.999808
,,,,,,,,,,,,,,,,,,,,2,0,2,0,14,0,14,0,,,,,,,,,,,,,,,,,,,,,,,,,,,,,,,,,,,,,,,,,,,,,,,,,,,,,,,,,,,,,,,,,,,,,,0.359397506,,,,,,,,,,,,,,,,,,,,,,,,,,,,left,0,100,30,130,1,1703.158664,1703.158664,1703.158664,None,None,2,0,0.6747896,,,,,,,,,,,,,,,,,,,10,14,1,2024-10-29_10h33.40.571,uWM_experiment,2022.2.3,59.999808
,,,,,,,,,,,,,,,,,,,,2,0,2,0,15,0,15,0,,,,,,,,,,,,,,,,,,,,,,,,,,,,,,,,,,,,,,,,,,,,,,,,,,,,,,,,,,,,,,,,,,,,,,0.349397506,,,,,,,,,,,,,,,,,,,,,,,,,,,,right,0,10,-30,-20,1,1710.275622,1710.275622,1710.275622,None,None,1,1,0.5098236,,,,,,,,,,,,,,,,,,,10,14,1,2024-10-29_10h33.40.571,uWM_experiment,2022.2.3,59.999808
,,,,,,,,,,,,,,,,,,,,2,0,2,0,16,0,16,0,,,,,,,,,,,,,,,,,,,,,,,,,,,,,,,,,,,,,,,,,,,,,,,,,,,,,,,,,,,,,,,,,,,,,,0.359397506,,,,,,,,,,,,,,,,,,,,,,,,,,,,left,0,10,30,40,1,1716.775802,1716.775802,1716.775802,None,None,1,1,0.4496242,,,,,,,,,,,,,,,,,,,10,14,1,2024-10-29_10h33.40.571,uWM_experiment,2022.2.3,59.999808
,,,,,,,,,,,,,,,,,,,,2,0,2,0,17,0,17,0,,,,,,,,,,,,,,,,,,,,,,,,,,,,,,,,,,,,,,,,,,,,,,,,,,,,,,,,,,,,,,,,,,,,,,0,,,,,,,,,,,,,,,,,,,,,,,,,,,,left,0,100,30,130,0,1722.909378,1722.909378,1722.909378,None,None,1,1,0.8679033,,,,,,,,,,,,,,,,,,,10,14,1,2024-10-29_10h33.40.571,uWM_experiment,2022.2.3,59.999808
,,,,,,,,,,,,,,,,,,,,2,0,2,0,18,0,18,0,,,,,,,,,,,,,,,,,,,,,,,,,,,,,,,,,,,,,,,,,,,,,,,,,,,,,,,,,,,,,,,,,,,,,,0.369397506,,,,,,,,,,,,,,,,,,,,,,,,,,,,left,0,160,30,190,1,1731.643061,1731.643061,1731.643061,None,None,2,0,1.3742443,,,,,,,,,,,,,,,,,,,10,14,1,2024-10-29_10h33.40.571,uWM_experiment,2022.2.3,59.999808
,,,,,,,,,,,,,,,,,,,,2,0,2,0,19,0,19,0,,,,,,,,,,,,,,,,,,,,,,,,,,,,,,,,,,,,,,,,,,,,,,,,,,,,,,,,,,,,,,,,,,,,,,0,,,,,,,,,,,,,,,,,,,,,,,,,,,,left,0,130,30,160,0,1739.593421,1739.593421,1739.593421,None,None,1,1,0.5919345,,,,,,,,,,,,,,,,,,,10,14,1,2024-10-29_10h33.40.571,uWM_experiment,2022.2.3,59.999808
,,,,,,,,,,,,,,,,,,,,2,0,2,0,20,0,20,0,,,,,,,,,,,,,,,,,,,,,,,,,,,,,,,,,,,,,,,,,,,,,,,,,,,,,,,,,,,,,,,,,,,,,,0,,,,,,,,,,,,,,,,,,,,,,,,,,,,right,0,100,-30,70,0,1748.777087,1748.777087,1748.777087,None,None,1,1,1.1840702,,,,,,,,,,,,,,,,,,,10,14,1,2024-10-29_10h33.40.571,uWM_experiment,2022.2.3,59.999808
,,,,,,,,,,,,,,,,,,,,2,0,2,0,21,0,21,0,,,,,,,,,,,,,,,,,,,,,,,,,,,,,,,,,,,,,,,,,,,,,,,,,,,,,,,,,,,,,,,,,,,,,,0.359397506,,,,,,,,,,,,,,,,,,,,,,,,,,,,right,1,70,30,100,1,1760.310873,1760.310873,1760.310873,None,None,3,0,2.9143519,,,,,,,,,,,,,,,,,,,10,14,1,2024-10-29_10h33.40.571,uWM_experiment,2022.2.3,59.999808
,,,,,,,,,,,,,,,,,,,,2,0,2,0,22,0,22,0,,,,,,,,,,,,,,,,,,,,,,,,,,,,,,,,,,,,,,,,,,,,,,,,,,,,,,,,,,,,,,,,,,,,,,0.349397506,,,,,,,,,,,,,,,,,,,,,,,,,,,,left,1,40,-30,10,1,1769.077889,1769.077889,1769.077889,None,None,1,1,0.4752714,,,,,,,,,,,,,,,,,,,10,14,1,2024-10-29_10h33.40.571,uWM_experiment,2022.2.3,59.999808
,,,,,,,,,,,,,,,,,,,,2,0,2,0,23,0,23,0,,,,,,,,,,,,,,,,,,,,,,,,,,,,,,,,,,,,,,,,,,,,,,,,,,,,,,,,,,,,,,,,,,,,,,0.359397506,,,,,,,,,,,,,,,,,,,,,,,,,,,,right,1,40,30,70,1,1777.461567,1777.461567,1777.461567,None,None,1,1,1.1714454,,,,,,,,,,,,,,,,,,,10,14,1,2024-10-29_10h33.40.571,uWM_experiment,2022.2.3,59.999808
,,,,,,,,,,,,,,,,,,,,2,0,2,0,,,,,0,0,0,0,,,,,,,,,,,,,,,,,,,,,,,,,,,,,,,,,,,,,,,,,,,,,,,,,,,,,,,,,,,,,,,,,,,,,,,,,,,,,,,,,,,,,,,,,,,,,,,,,,,,,,,,,,,,1778.661608,1778.661608,space,32.0913579,space,None,,1810.779605,1810.779605,15.333319,,,,,,,,,10,14,1,2024-10-29_10h33.40.571,uWM_experiment,2022.2.3,59.999808
,,,,,,,,,,,,,,,,,,,,2,0,2,0,,,,,1,0,1,0,,,,,,,,,,,,,,,,,,,,,,,,,,,,,,,,,,,,,,,,,,,,,,,,,,,,,,,,,,,,,,,,,,,,,,,,,,,,,,,,,,,,,,,,,,,,,,,,,,,,,,,,,,,,,,,,,,,,,,,,,,,,,,10,14,1,2024-10-29_10h33.40.571,uWM_experiment,2022.2.3,59.999808
,,,,,,,,,,,,,,,,,,,,2,0,2,0,,,,,2,0,2,0,,,,,,,,,,,,,,,,,,,,,,,,,,,,,,,,,,,,,,,,,,,,,,,,,,,,,,,,,,,,,,,,,,,,,,,,,,,,,,,,,,,,,,,,,,,,,,,,,,,,,,,,,,,,,,,,,,,,,,,,,,,,,,10,14,1,2024-10-29_10h33.40.571,uWM_experiment,2022.2.3,59.999808
,,,,,,,,,,,,,,,,,,,,3,0,3,0,0,0,0,0,,,,,,,,,,,,,,,,,,,,,,,,,,,,,,,,,,,,,,,,,,,,,,,,,,,,,,,,,,,,,,,,,,,,,,0,,,,,,,,,,,,,,,,,,,,1826.130167,1826.830185,1827.13021,1827.83021,1828.13023,1828.830322,1828.830322,1829.146988,right,0,40,-30,10,0,1837.213943,1837.213943,1837.213943,None,None,1,1,1.0348593,,,,,,,None,,,,,,,,,,,,10,14,1,2024-10-29_10h33.40.571,uWM_experiment,2022.2.3,59.999808
,,,,,,,,,,,,,,,,,,,,3,0,3,0,1,0,1,0,,,,,,,,,,,,,,,,,,,,,,,,,,,,,,,,,,,,,,,,,,,,,,,,,,,,,,,,,,,,,,,,,,,,,,0.369397506,,,,,,,,,,,,,,,,,,,,,,,,,,,,right,1,160,30,190,1,1847.114341,1847.114341,1847.114341,None,None,2,0,1.5265058,,,,,,,,,,,,,,,,,,,10,14,1,2024-10-29_10h33.40.571,uWM_experiment,2022.2.3,59.999808
,,,,,,,,,,,,,,,,,,,,3,0,3,0,2,0,2,0,,,,,,,,,,,,,,,,,,,,,,,,,,,,,,,,,,,,,,,,,,,,,,,,,,,,,,,,,,,,,,,,,,,,,,0.359397506,,,,,,,,,,,,,,,,,,,,,,,,,,,,right,0,100,-30,70,1,1855.148011,1855.148011,1855.148011,None,None,1,1,0.2927385,,,,,,,,,,,,,,,,,,,10,14,1,2024-10-29_10h33.40.571,uWM_experiment,2022.2.3,59.999808
,,,,,,,,,,,,,,,,,,,,3,0,3,0,3,0,3,0,,,,,,,,,,,,,,,,,,,,,,,,,,,,,,,,,,,,,,,,,,,,,,,,,,,,,,,,,,,,,,,,,,,,,,0.369397506,,,,,,,,,,,,,,,,,,,,,,,,,,,,right,1,40,30,70,1,1863.564987,1863.564987,1863.564987,None,None,1,1,1.3477439,,,,,,,,,,,,,,,,,,,10,14,1,2024-10-29_10h33.40.571,uWM_experiment,2022.2.3,59.999808
,,,,,,,,,,,,,,,,,,,,3,0,3,0,4,0,4,0,,,,,,,,,,,,,,,,,,,,,,,,,,,,,,,,,,,,,,,,,,,,,,,,,,,,,,,,,,,,,,,,,,,,,,0.379397506,,,,,,,,,,,,,,,,,,,,,,,,,,,,left,1,70,-30,40,1,1872.932037,1872.932037,1872.932037,None,None,1,1,0.9646403,,,,,,,,,,,,,,,,,,,10,14,1,2024-10-29_10h33.40.571,uWM_experiment,2022.2.3,59.999808
,,,,,,,,,,,,,,,,,,,,3,0,3,0,5,0,5,0,,,,,,,,,,,,,,,,,,,,,,,,,,,,,,,,,,,,,,,,,,,,,,,,,,,,,,,,,,,,,,,,,,,,,,0.389397506,,,,,,,,,,,,,,,,,,,,,,,,,,,,right,1,160,30,190,1,1881.682374,1881.682374,1881.682374,None,None,1,1,0.2702164,,,,,,,,,,,,,,,,,,,10,14,1,2024-10-29_10h33.40.571,uWM_experiment,2022.2.3,59.999808
,,,,,,,,,,,,,,,,,,,,3,0,3,0,6,0,6,0,,,,,,,,,,,,,,,,,,,,,,,,,,,,,,,,,,,,,,,,,,,,,,,,,,,,,,,,,,,,,,,,,,,,,,0.399397506,,,,,,,,,,,,,,,,,,,,,,,,,,,,right,0,100,-30,70,1,1889.416028,1889.416028,1889.416028,None,None,2,0,0.9766142,,,,,,,,,,,,,,,,,,,10,14,1,2024-10-29_10h33.40.571,uWM_experiment,2022.2.3,59.999808
,,,,,,,,,,,,,,,,,,,,3,0,3,0,7,0,7,0,,,,,,,,,,,,,,,,,,,,,,,,,,,,,,,,,,,,,,,,,,,,,,,,,,,,,,,,,,,,,,,,,,,,,,0.389397506,,,,,,,,,,,,,,,,,,,,,,,,,,,,left,0,100,30,130,1,1896.382956,1896.382956,1896.382956,None,None,1,1,0.3456912,,,,,,,,,,,,,,,,,,,10,14,1,2024-10-29_10h33.40.571,uWM_experiment,2022.2.3,59.999808
,,,,,,,,,,,,,,,,,,,,3,0,3,0,8,0,8,0,,,,,,,,,,,,,,,,,,,,,,,,,,,,,,,,,,,,,,,,,,,,,,,,,,,,,,,,,,,,,,,,,,,,,,0,,,,,,,,,,,,,,,,,,,,,,,,,,,,right,1,10,30,40,0,1903.09989,1903.09989,1903.09989,None,None,1,1,1.0365894,,,,,,,,,,,,,,,,,,,10,14,1,2024-10-29_10h33.40.571,uWM_experiment,2022.2.3,59.999808
,,,,,,,,,,,,,,,,,,,,3,0,3,0,9,0,9,0,,,,,,,,,,,,,,,,,,,,,,,,,,,,,,,,,,,,,,,,,,,,,,,,,,,,,,,,,,,,,,,,,,,,,,0.399397506,,,,,,,,,,,,,,,,,,,,,,,,,,,,right,0,70,-30,40,1,1910.800285,1910.800285,1910.800285,None,None,1,1,1.7682106,,,,,,,,,,,,,,,,,,,10,14,1,2024-10-29_10h33.40.571,uWM_experiment,2022.2.3,59.999808
,,,,,,,,,,,,,,,,,,,,3,0,3,0,10,0,10,0,,,,,,,,,,,,,,,,,,,,,,,,,,,,,,,,,,,,,,,,,,,,,,,,,,,,,,,,,,,,,,,,,,,,,,0.409397506,,,,,,,,,,,,,,,,,,,,,,,,,,,,left,0,70,30,100,1,1918.667181,1918.667181,1918.667181,None,None,1,1,1.7172596,,,,,,,,,,,,,,,,,,,10,14,1,2024-10-29_10h33.40.571,uWM_experiment,2022.2.3,59.999808
,,,,,,,,,,,,,,,,,,,,3,0,3,0,11,0,11,0,,,,,,,,,,,,,,,,,,,,,,,,,,,,,,,,,,,,,,,,,,,,,,,,,,,,,,,,,,,,,,,,,,,,,,0.419397506,,,,,,,,,,,,,,,,,,,,,,,,,,,,left,0,160,30,190,1,1927.734209,1927.734209,1927.734209,None,None,2,0,0.9861591,,,,,,,,,,,,,,,,,,,10,14,1,2024-10-29_10h33.40.571,uWM_experiment,2022.2.3,59.999808
,,,,,,,,,,,,,,,,,,,,3,0,3,0,12,0,12,0,,,,,,,,,,,,,,,,,,,,,,,,,,,,,,,,,,,,,,,,,,,,,,,,,,,,,,,,,,,,,,,,,,,,,,0.409397506,,,,,,,,,,,,,,,,,,,,,,,,,,,,left,1,10,-30,-20,1,1934.617851,1934.617851,1934.617851,None,None,1,1,0.3585583,,,,,,,,,,,,,,,,,,,10,14,1,2024-10-29_10h33.40.571,uWM_experiment,2022.2.3,59.999808
,,,,,,,,,,,,,,,,,,,,3,0,3,0,13,0,13,0,,,,,,,,,,,,,,,,,,,,,,,,,,,,,,,,,,,,,,,,,,,,,,,,,,,,,,,,,,,,,,,,,,,,,,0.419397506,,,,,,,,,,,,,,,,,,,,,,,,,,,,left,0,70,30,100,1,1941.068082,1941.068082,1941.068082,None,None,1,1,0.5722623,,,,,,,,,,,,,,,,,,,10,14,1,2024-10-29_10h33.40.571,uWM_experiment,2022.2.3,59.999808
,,,,,,,,,,,,,,,,,,,,3,0,3,0,14,0,14,0,,,,,,,,,,,,,,,,,,,,,,,,,,,,,,,,,,,,,,,,,,,,,,,,,,,,,,,,,,,,,,,,,,,,,,0,,,,,,,,,,,,,,,,,,,,,,,,,,,,left,0,130,30,160,0,1949.385106,1949.385106,1949.385106,None,None,2,0,3.6871567,,,,,,,,,,,,,,,,,,,10,14,1,2024-10-29_10h33.40.571,uWM_experiment,2022.2.3,59.999808
,,,,,,,,,,,,,,,,,,,,3,0,3,0,15,0,15,0,,,,,,,,,,,,,,,,,,,,,,,,,,,,,,,,,,,,,,,,,,,,,,,,,,,,,,,,,,,,,,,,,,,,,,0.429397506,,,,,,,,,,,,,,,,,,,,,,,,,,,,left,1,10,-30,-20,1,1959.418804,1959.418804,1959.418804,None,None,1,1,0.477531,,,,,,,,,,,,,,,,,,,10,14,1,2024-10-29_10h33.40.571,uWM_experiment,2022.2.3,59.999808
,,,,,,,,,,,,,,,,,,,,3,0,3,0,16,0,16,0,,,,,,,,,,,,,,,,,,,,,,,,,,,,,,,,,,,,,,,,,,,,,,,,,,,,,,,,,,,,,,,,,,,,,,0.439397506,,,,,,,,,,,,,,,,,,,,,,,,,,,,left,0,160,30,190,1,1967.069129,1967.069129,1967.069129,None,None,2,0,1.6751726,,,,,,,,,,,,,,,,,,,10,14,1,2024-10-29_10h33.40.571,uWM_experiment,2022.2.3,59.999808
,,,,,,,,,,,,,,,,,,,,3,0,3,0,17,0,17,0,,,,,,,,,,,,,,,,,,,,,,,,,,,,,,,,,,,,,,,,,,,,,,,,,,,,,,,,,,,,,,,,,,,,,,0.429397506,,,,,,,,,,,,,,,,,,,,,,,,,,,,right,0,40,-30,10,1,1975.569471,1975.569471,1975.569471,None,None,1,1,0.4307725,,,,,,,,,,,,,,,,,,,10,14,1,2024-10-29_10h33.40.571,uWM_experiment,2022.2.3,59.999808
,,,,,,,,,,,,,,,,,,,,3,0,3,0,18,0,18,0,,,,,,,,,,,,,,,,,,,,,,,,,,,,,,,,,,,,,,,,,,,,,,,,,,,,,,,,,,,,,,,,,,,,,,0.439397506,,,,,,,,,,,,,,,,,,,,,,,,,,,,right,1,70,30,100,1,1981.986381,1981.986381,1981.986381,None,None,2,0,0.6778803,,,,,,,,,,,,,,,,,,,10,14,1,2024-10-29_10h33.40.571,uWM_experiment,2022.2.3,59.999808
,,,,,,,,,,,,,,,,,,,,3,0,3,0,19,0,19,0,,,,,,,,,,,,,,,,,,,,,,,,,,,,,,,,,,,,,,,,,,,,,,,,,,,,,,,,,,,,,,,,,,,,,,0.429397506,,,,,,,,,,,,,,,,,,,,,,,,,,,,right,1,40,30,70,1,1988.503322,1988.503322,1988.503322,None,None,1,1,3.3367951,,,,,,,,,,,,,,,,,,,10,14,1,2024-10-29_10h33.40.571,uWM_experiment,2022.2.3,59.999808
,,,,,,,,,,,,,,,,,,,,3,0,3,0,20,0,20,0,,,,,,,,,,,,,,,,,,,,,,,,,,,,,,,,,,,,,,,,,,,,,,,,,,,,,,,,,,,,,,,,,,,,,,0.439397506,,,,,,,,,,,,,,,,,,,,,,,,,,,,right,1,70,30,100,1,1998.0037,1998.0037,1998.0037,None,None,2,0,0.6523835,,,,,,,,,,,,,,,,,,,10,14,1,2024-10-29_10h33.40.571,uWM_experiment,2022.2.3,59.999808
,,,,,,,,,,,,,,,,,,,,3,0,3,0,21,0,21,0,,,,,,,,,,,,,,,,,,,,,,,,,,,,,,,,,,,,,,,,,,,,,,,,,,,,,,,,,,,,,,,,,,,,,,0.1,,,,,,,,,,,,,,,,,,,,,,,,,,,,left,0,100,30,130,2,2015.171064,2015.171064,2015.171064,None,None,1,1,1.2369207,,,,,,,,,,,,,,,,,,,10,14,1,2024-10-29_10h33.40.571,uWM_experiment,2022.2.3,59.999808
,,,,,,,,,,,,,,,,,,,,3,0,3,0,22,0,22,0,,,,,,,,,,,,,,,,,,,,,,,,,,,,,,,,,,,,,,,,,,,,,,,,,,,,,,,,,,,,,,,,,,,,,,0,,,,,,,,,,,,,,,,,,,,,,,,,,,,left,1,100,-30,70,0,2025.971483,2025.971483,2025.971483,None,None,1,1,1.452476,,,,,,,,,,,,,,,,,,,10,14,1,2024-10-29_10h33.40.571,uWM_experiment,2022.2.3,59.999808
,,,,,,,,,,,,,,,,,,,,3,0,3,0,23,0,23,0,,,,,,,,,,,,,,,,,,,,,,,,,,,,,,,,,,,,,,,,,,,,,,,,,,,,,,,,,,,,,,,,,,,,,,0.429397506,,,,,,,,,,,,,,,,,,,,,,,,,,,,left,0,70,30,100,1,2035.105189,2035.105189,2035.105189,None,None,1,1,0.4148054,,,,,,,,,,,,,,,,,,,10,14,1,2024-10-29_10h33.40.571,uWM_experiment,2022.2.3,59.999808
,,,,,,,,,,,,,,,,,,,,3,0,3,0,,,,,0,0,0,0,,,,,,,,,,,,,,,,,,,,,,,,,,,,,,,,,,,,,,,,,,,,,,,,,,,,,,,,,,,,,,,,,,,,,,,,,,,,,,,,,,,,,,,,,,,,,,,,,,,,,,,,,,,,2035.538514,2035.538514,space,29.9573653,None,None,,,,,,,,,,,,,10,14,1,2024-10-29_10h33.40.571,uWM_experiment,2022.2.3,59.999808
,,,,,,,,,,,,,,,,,,,,3,0,3,0,,,,,1,0,1,0,,,,,,,,,,,,,,,,,,,,,,,,,,,,,,,,,,,,,,,,,,,,,,,,,,,,,,,,,,,,,,,,,,,,,,,,,,,,,,,,,,,,,,,,,,,,,,,,,,,,,,,,,,,,,,,,,,,,,,,,,,,,,,10,14,1,2024-10-29_10h33.40.571,uWM_experiment,2022.2.3,59.999808
,,,,,,,,,,,,,,,,,,,,3,0,3,0,,,,,2,0,2,0,,,,,,,,,,,,,,,,,,,,,,,,,,,,,,,,,,,,,,,,,,,,,,,,,,,,,,,,,,,,,,,,,,,,,,,,,,,,,,,,,,,,,,,,,,,,,,,,,,,,,,,,,,,,,,,,,,,,,,,,,,,,,,10,14,1,2024-10-29_10h33.40.571,uWM_experiment,2022.2.3,59.999808
,,,,,,,,,,,,,,,,,,,,4,0,4,0,0,0,0,0,,,,,,,,,,,,,,,,,,,,,,,,,,,,,,,,,,,,,,,,,,,,,,,,,,,,,,,,,,,,,,,,,,,,,,0.439397506,,,,,,,,,,,,,,,,,,,,2065.523059,2066.223089,2066.523119,2067.223122,2067.523149,2068.223162,2068.223162,2068.539849,right,1,40,30,70,1,2073.64004,2073.64004,2073.64004,None,None,1,1,0.5036853,,,,,,,None,,,,,,,,,,,,10,14,1,2024-10-29_10h33.40.571,uWM_experiment,2022.2.3,59.999808
,,,,,,,,,,,,,,,,,,,,4,0,4,0,1,0,1,0,,,,,,,,,,,,,,,,,,,,,,,,,,,,,,,,,,,,,,,,,,,,,,,,,,,,,,,,,,,,,,,,,,,,,,0,,,,,,,,,,,,,,,,,,,,,,,,,,,,right,0,10,-30,-20,0,2080.823684,2080.823684,2080.823684,None,None,2,0,0.7121044,,,,,,,,,,,,,,,,,,,10,14,1,2024-10-29_10h33.40.571,uWM_experiment,2022.2.3,59.999808
,,,,,,,,,,,,,,,,,,,,4,0,4,0,2,0,2,0,,,,,,,,,,,,,,,,,,,,,,,,,,,,,,,,,,,,,,,,,,,,,,,,,,,,,,,,,,,,,,,,,,,,,,0,,,,,,,,,,,,,,,,,,,,,,,,,,,,left,0,70,30,100,0,2087.873947,2087.873947,2087.873947,None,None,1,1,1.1418113,,,,,,,,,,,,,,,,,,,10,14,1,2024-10-29_10h33.40.571,uWM_experiment,2022.2.3,59.999808
,,,,,,,,,,,,,,,,,,,,4,0,4,0,3,0,3,0,,,,,,,,,,,,,,,,,,,,,,,,,,,,,,,,,,,,,,,,,,,,,,,,,,,,,,,,,,,,,,,,,,,,,,0.449397506,,,,,,,,,,,,,,,,,,,,,,,,,,,,left,1,10,-30,-20,1,2095.207556,2095.207556,2095.207556,None,None,2,0,0.8641594,,,,,,,,,,,,,,,,,,,10,14,1,2024-10-29_10h33.40.571,uWM_experiment,2022.2.3,59.999808
,,,,,,,,,,,,,,,,,,,,4,0,4,0,4,0,4,0,,,,,,,,,,,,,,,,,,,,,,,,,,,,,,,,,,,,,,,,,,,,,,,,,,,,,,,,,,,,,,,,,,,,,,0,,,,,,,,,,,,,,,,,,,,,,,,,,,,right,1,70,30,100,0,2102.941219,2102.941219,2102.941219,None,None,1,1,0.9465202,,,,,,,,,,,,,,,,,,,10,14,1,2024-10-29_10h33.40.571,uWM_experiment,2022.2.3,59.999808
,,,,,,,,,,,,,,,,,,,,4,0,4,0,5,0,5,0,,,,,,,,,,,,,,,,,,,,,,,,,,,,,,,,,,,,,,,,,,,,,,,,,,,,,,,,,,,,,,,,,,,,,,0.439397506,,,,,,,,,,,,,,,,,,,,,,,,,,,,left,1,130,-30,100,1,2110.108169,2110.108169,2110.108169,None,None,1,1,0.4514335,,,,,,,,,,,,,,,,,,,10,14,1,2024-10-29_10h33.40.571,uWM_experiment,2022.2.3,59.999808
,,,,,,,,,,,,,,,,,,,,4,0,4,0,6,0,6,0,,,,,,,,,,,,,,,,,,,,,,,,,,,,,,,,,,,,,,,,,,,,,,,,,,,,,,,,,,,,,,,,,,,,,,0.449397506,,,,,,,,,,,,,,,,,,,,,,,,,,,,left,0,160,30,190,1,2116.541764,2116.541764,2116.541764,None,None,2,0,1.7378019,,,,,,,,,,,,,,,,,,,10,14,1,2024-10-29_10h33.40.571,uWM_experiment,2022.2.3,59.999808
,,,,,,,,,,,,,,,,,,,,4,0,4,0,7,0,7,0,,,,,,,,,,,,,,,,,,,,,,,,,,,,,,,,,,,,,,,,,,,,,,,,,,,,,,,,,,,,,,,,,,,,,,0,,,,,,,,,,,,,,,,,,,,,,,,,,,,left,0,40,30,70,0,2124.275461,2124.275461,2124.275461,None,None,1,1,1.1642362,,,,,,,,,,,,,,,,,,,10,14,1,2024-10-29_10h33.40.571,uWM_experiment,2022.2.3,59.999808
,,,,,,,,,,,,,,,,,,,,4,0,4,0,8,0,8,0,,,,,,,,,,,,,,,,,,,,,,,,,,,,,,,,,,,,,,,,,,,,,,,,,,,,,,,,,,,,,,,,,,,,,,0.439397506,,,,,,,,,,,,,,,,,,,,,,,,,,,,left,1,70,-30,40,1,2131.89237,2131.89237,2131.89237,None,None,2,0,0.3551107,,,,,,,,,,,,,,,,,,,10,14,1,2024-10-29_10h33.40.571,uWM_experiment,2022.2.3,59.999808
,,,,,,,,,,,,,,,,,,,,4,0,4,0,9,0,9,0,,,,,,,,,,,,,,,,,,,,,,,,,,,,,,,,,,,,,,,,,,,,,,,,,,,,,,,,,,,,,,,,,,,,,,0.429397506,,,,,,,,,,,,,,,,,,,,,,,,,,,,left,0,10,30,40,1,2138.2926,2138.2926,2138.2926,None,None,1,1,0.5309472,,,,,,,,,,,,,,,,,,,10,14,1,2024-10-29_10h33.40.571,uWM_experiment,2022.2.3,59.999808
,,,,,,,,,,,,,,,,,,,,4,0,4,0,10,0,10,0,,,,,,,,,,,,,,,,,,,,,,,,,,,,,,,,,,,,,,,,,,,,,,,,,,,,,,,,,,,,,,,,,,,,,,0.439397506,,,,,,,,,,,,,,,,,,,,,,,,,,,,right,0,40,-30,10,1,2145.909585,2145.909585,2145.909585,None,None,1,1,1.3378525,,,,,,,,,,,,,,,,,,,10,14,1,2024-10-29_10h33.40.571,uWM_experiment,2022.2.3,59.999808
,,,,,,,,,,,,,,,,,,,,4,0,4,0,11,0,11,0,,,,,,,,,,,,,,,,,,,,,,,,,,,,,,,,,,,,,,,,,,,,,,,,,,,,,,,,,,,,,,,,,,,,,,0,,,,,,,,,,,,,,,,,,,,,,,,,,,,left,0,130,30,160,0,2154.143251,2154.143251,2154.143251,None,None,1,1,1.2321934,,,,,,,,,,,,,,,,,,,10,14,1,2024-10-29_10h33.40.571,uWM_experiment,2022.2.3,59.999808
,,,,,,,,,,,,,,,,,,,,4,0,4,0,12,0,12,0,,,,,,,,,,,,,,,,,,,,,,,,,,,,,,,,,,,,,,,,,,,,,,,,,,,,,,,,,,,,,,,,,,,,,,0.449397506,,,,,,,,,,,,,,,,,,,,,,,,,,,,left,0,40,30,70,1,2164.010371,2164.010371,2164.010371,None,None,1,1,0.4689421,,,,,,,,,,,,,,,,,,,10,14,1,2024-10-29_10h33.40.571,uWM_experiment,2022.2.3,59.999808
,,,,,,,,,,,,,,,,,,,,4,0,4,0,13,0,13,0,,,,,,,,,,,,,,,,,,,,,,,,,,,,,,,,,,,,,,,,,,,,,,,,,,,,,,,,,,,,,,,,,,,,,,0,,,,,,,,,,,,,,,,,,,,,,,,,,,,right,0,70,-30,40,0,2170.960652,2170.960652,2170.960652,None,None,1,1,0.5106763,,,,,,,,,,,,,,,,,,,10,14,1,2024-10-29_10h33.40.571,uWM_experiment,2022.2.3,59.999808
,,,,,,,,,,,,,,,,,,,,4,0,4,0,14,0,14,0,,,,,,,,,,,,,,,,,,,,,,,,,,,,,,,,,,,,,,,,,,,,,,,,,,,,,,,,,,,,,,,,,,,,,,0.459397506,,,,,,,,,,,,,,,,,,,,,,,,,,,,right,0,40,-30,10,1,2178.044218,2178.044218,2178.044218,None,None,2,0,0.9471473,,,,,,,,,,,,,,,,,,,10,14,1,2024-10-29_10h33.40.571,uWM_experiment,2022.2.3,59.999808
,,,,,,,,,,,,,,,,,,,,4,0,4,0,15,0,15,0,,,,,,,,,,,,,,,,,,,,,,,,,,,,,,,,,,,,,,,,,,,,,,,,,,,,,,,,,,,,,,,,,,,,,,0.449397506,,,,,,,,,,,,,,,,,,,,,,,,,,,,right,0,40,-30,10,1,2186.794602,2186.794602,2186.794602,None,None,3,0,0.9646881,,,,,,,,,,,,,,,,,,,10,14,1,2024-10-29_10h33.40.571,uWM_experiment,2022.2.3,59.999808
,,,,,,,,,,,,,,,,,,,,4,0,4,0,16,0,16,0,,,,,,,,,,,,,,,,,,,,,,,,,,,,,,,,,,,,,,,,,,,,,,,,,,,,,,,,,,,,,,,,,,,,,,0.439397506,,,,,,,,,,,,,,,,,,,,,,,,,,,,left,0,70,30,100,1,2194.811551,2194.811551,2194.811551,None,None,1,1,0.5716515,,,,,,,,,,,,,,,,,,,10,14,1,2024-10-29_10h33.40.571,uWM_experiment,2022.2.3,59.999808
,,,,,,,,,,,,,,,,,,,,4,0,4,0,17,0,17,0,,,,,,,,,,,,,,,,,,,,,,,,,,,,,,,,,,,,,,,,,,,,,,,,,,,,,,,,,,,,,,,,,,,,,,0.449397506,,,,,,,,,,,,,,,,,,,,,,,,,,,,right,1,40,30,70,1,2200.945105,2200.945105,2200.945105,None,None,1,1,1.9422001,,,,,,,,,,,,,,,,,,,10,14,1,2024-10-29_10h33.40.571,uWM_experiment,2022.2.3,59.999808
,,,,,,,,,,,,,,,,,,,,4,0,4,0,18,0,18,0,,,,,,,,,,,,,,,,,,,,,,,,,,,,,,,,,,,,,,,,,,,,,,,,,,,,,,,,,,,,,,,,,,,,,,0.459397506,,,,,,,,,,,,,,,,,,,,,,,,,,,,right,1,10,30,40,1,2212.145568,2212.145568,2212.145568,None,None,2,0,0.7336398,,,,,,,,,,,,,,,,,,,10,14,1,2024-10-29_10h33.40.571,uWM_experiment,2022.2.3,59.999808
,,,,,,,,,,,,,,,,,,,,4,0,4,0,19,0,19,0,,,,,,,,,,,,,,,,,,,,,,,,,,,,,,,,,,,,,,,,,,,,,,,,,,,,,,,,,,,,,,,,,,,,,,0.449397506,,,,,,,,,,,,,,,,,,,,,,,,,,,,right,1,40,30,70,1,2218.362476,2218.362476,2218.362476,None,None,1,1,0.3967185,,,,,,,,,,,,,,,,,,,10,14,1,2024-10-29_10h33.40.571,uWM_experiment,2022.2.3,59.999808
,,,,,,,,,,,,,,,,,,,,4,0,4,0,20,0,20,0,,,,,,,,,,,,,,,,,,,,,,,,,,,,,,,,,,,,,,,,,,,,,,,,,,,,,,,,,,,,,,,,,,,,,,0,,,,,,,,,,,,,,,,,,,,,,,,,,,,left,1,130,-30,100,0,2224.396114,2224.396114,2224.396114,None,None,1,1,0.3471084,,,,,,,,,,,,,,,,,,,10,14,1,2024-10-29_10h33.40.571,uWM_experiment,2022.2.3,59.999808
,,,,,,,,,,,,,,,,,,,,4,0,4,0,21,0,21,0,,,,,,,,,,,,,,,,,,,,,,,,,,,,,,,,,,,,,,,,,,,,,,,,,,,,,,,,,,,,,,,,,,,,,,0,,,,,,,,,,,,,,,,,,,,,,,,,,,,left,1,160,-30,130,0,2230.212967,2230.212967,2230.212967,None,None,2,0,0.5860822,,,,,,,,,,,,,,,,,,,10,14,1,2024-10-29_10h33.40.571,uWM_experiment,2022.2.3,59.999808
,,,,,,,,,,,,,,,,,,,,4,0,4,0,22,0,22,0,,,,,,,,,,,,,,,,,,,,,,,,,,,,,,,,,,,,,,,,,,,,,,,,,,,,,,,,,,,,,,,,,,,,,,0.459397506,,,,,,,,,,,,,,,,,,,,,,,,,,,,left,1,100,-30,70,1,2239.730071,2239.730071,2239.730071,None,None,2,0,1.4849198,,,,,,,,,,,,,,,,,,,10,14,1,2024-10-29_10h33.40.571,uWM_experiment,2022.2.3,59.999808
,,,,,,,,,,,,,,,,,,,,4,0,4,0,23,0,23,0,,,,,,,,,,,,,,,,,,,,,,,,,,,,,,,,,,,,,,,,,,,,,,,,,,,,,,,,,,,,,,,,,,,,,,0.449397506,,,,,,,,,,,,,,,,,,,,,,,,,,,,left,1,40,-30,10,1,2247.69699,2247.69699,2247.69699,None,None,1,1,0.333967,,,,,,,,,,,,,,,,,,,10,14,1,2024-10-29_10h33.40.571,uWM_experiment,2022.2.3,59.999808
,,,,,,,,,,,,,,,,,,,,4,0,4,0,,,,,0,0,0,0,,,,,,,,,,,,,,,,,,,,,,,,,,,,,,,,,,,,,,,,,,,,,,,,,,,,,,,,,,,,,,,,,,,,,,,,,,,,,,,,,,,,,,,,,,,,,,,,,,,,,,,,,,,,2248.063735,2248.063735,space,31.8951658,None,None,,,,,,,,,,,,,10,14,1,2024-10-29_10h33.40.571,uWM_experiment,2022.2.3,59.999808
,,,,,,,,,,,,,,,,,,,,4,0,4,0,,,,,1,0,1,0,,,,,,,,,,,,,,,,,,,,,,,,,,,,,,,,,,,,,,,,,,,,,,,,,,,,,,,,,,,,,,,,,,,,,,,,,,,,,,,,,,,,,,,,,,,,,,,,,,,,,,,,,,,,,,,,,,,,,,,,,,,,,,10,14,1,2024-10-29_10h33.40.571,uWM_experiment,2022.2.3,59.999808
,,,,,,,,,,,,,,,,,,,,4,0,4,0,,,,,2,0,2,0,,,,,,,,,,,,,,,,,,,,,,,,,,,,,,,,,,,,,,,,,,,,,,,,,,,,,,,,,,,,,,,,,,,,,,,,,,,,,,,,,,,,,,,,,,,,,,,,,,,,,,,,,,,,,,,,,,,,,,,,,,,,,,10,14,1,2024-10-29_10h33.40.571,uWM_experiment,2022.2.3,59.999808
,,,,,,,,,,,,,,,,,,,,5,0,5,0,0,0,0,0,,,,,,,,,,,,,,,,,,,,,,,,,,,,,,,,,,,,,,,,,,,,,,,,,,,,,,,,,,,,,,,,,,,,,,0.459397506,,,,,,,,,,,,,,,,,,,,2279.981613,2280.68168,2280.98165,2281.681723,2281.981685,2282.681747,2282.681747,2282.998469,left,1,10,-30,-20,1,2287.865264,2287.865264,2287.865264,None,None,1,1,0.4215691,,,,,,,None,,,,,,,,,,,,10,14,1,2024-10-29_10h33.40.571,uWM_experiment,2022.2.3,59.999808
,,,,,,,,,,,,,,,,,,,,5,0,5,0,1,0,1,0,,,,,,,,,,,,,,,,,,,,,,,,,,,,,,,,,,,,,,,,,,,,,,,,,,,,,,,,,,,,,,,,,,,,,,0.469397506,,,,,,,,,,,,,,,,,,,,,,,,,,,,left,1,70,-30,40,1,2293.515557,2293.515557,2293.515557,None,None,2,0,0.4273049,,,,,,,,,,,,,,,,,,,10,14,1,2024-10-29_10h33.40.571,uWM_experiment,2022.2.3,59.999808
,,,,,,,,,,,,,,,,,,,,5,0,5,0,2,0,2,0,,,,,,,,,,,,,,,,,,,,,,,,,,,,,,,,,,,,,,,,,,,,,,,,,,,,,,,,,,,,,,,,,,,,,,0,,,,,,,,,,,,,,,,,,,,,,,,,,,,right,0,100,-30,70,0,2300.215735,2300.215735,2300.215735,None,None,1,1,0.6791342,,,,,,,,,,,,,,,,,,,10,14,1,2024-10-29_10h33.40.571,uWM_experiment,2022.2.3,59.999808
,,,,,,,,,,,,,,,,,,,,5,0,5,0,3,0,3,0,,,,,,,,,,,,,,,,,,,,,,,,,,,,,,,,,,,,,,,,,,,,,,,,,,,,,,,,,,,,,,,,,,,,,,0,,,,,,,,,,,,,,,,,,,,,,,,,,,,left,0,130,30,160,0,2306.499341,2306.499341,2306.499341,None,None,1,1,0.2914319,,,,,,,,,,,,,,,,,,,10,14,1,2024-10-29_10h33.40.571,uWM_experiment,2022.2.3,59.999808
,,,,,,,,,,,,,,,,,,,,5,0,5,0,4,0,4,0,,,,,,,,,,,,,,,,,,,,,,,,,,,,,,,,,,,,,,,,,,,,,,,,,,,,,,,,,,,,,,,,,,,,,,0.459397506,,,,,,,,,,,,,,,,,,,,,,,,,,,,right,0,100,-30,70,1,2312.549571,2312.549571,2312.549571,None,None,1,1,0.2811216,,,,,,,,,,,,,,,,,,,10,14,1,2024-10-29_10h33.40.571,uWM_experiment,2022.2.3,59.999808
,,,,,,,,,,,,,,,,,,,,5,0,5,0,5,0,5,0,,,,,,,,,,,,,,,,,,,,,,,,,,,,,,,,,,,,,,,,,,,,,,,,,,,,,,,,,,,,,,,,,,,,,,0.469397506,,,,,,,,,,,,,,,,,,,,,,,,,,,,right,0,70,-30,40,1,2318.749824,2318.749824,2318.749824,None,None,1,1,0.432962,,,,,,,,,,,,,,,,,,,10,14,1,2024-10-29_10h33.40.571,uWM_experiment,2022.2.3,59.999808
,,,,,,,,,,,,,,,,,,,,5,0,5,0,6,0,6,0,,,,,,,,,,,,,,,,,,,,,,,,,,,,,,,,,,,,,,,,,,,,,,,,,,,,,,,,,,,,,,,,,,,,,,0,,,,,,,,,,,,,,,,,,,,,,,,,,,,left,1,10,-30,-20,0,2326.216787,2326.216787,2326.216787,None,None,2,0,2.2139265,,,,,,,,,,,,,,,,,,,10,14,1,2024-10-29_10h33.40.571,uWM_experiment,2022.2.3,59.999808
,,,,,,,,,,,,,,,,,,,,5,0,5,0,7,0,7,0,,,,,,,,,,,,,,,,,,,,,,,,,,,,,,,,,,,,,,,,,,,,,,,,,,,,,,,,,,,,,,,,,,,,,,0,,,,,,,,,,,,,,,,,,,,,,,,,,,,left,0,130,30,160,0,2334.833802,2334.833802,2334.833802,None,None,1,1,0.3328881,,,,,,,,,,,,,,,,,,,10,14,1,2024-10-29_10h33.40.571,uWM_experiment,2022.2.3,59.999808
,,,,,,,,,,,,,,,,,,,,5,0,5,0,8,0,8,0,,,,,,,,,,,,,,,,,,,,,,,,,,,,,,,,,,,,,,,,,,,,,,,,,,,,,,,,,,,,,,,,,,,,,,0.479397506,,,,,,,,,,,,,,,,,,,,,,,,,,,,left,1,10,-30,-20,1,2341.100719,2341.100719,2341.100719,None,None,1,1,0.3858305,,,,,,,,,,,,,,,,,,,10,14,1,2024-10-29_10h33.40.571,uWM_experiment,2022.2.3,59.999808
,,,,,,,,,,,,,,,,,,,,5,0,5,0,9,0,9,0,,,,,,,,,,,,,,,,,,,,,,,,,,,,,,,,,,,,,,,,,,,,,,,,,,,,,,,,,,,,,,,,,,,,,,0.489397506,,,,,,,,,,,,,,,,,,,,,,,,,,,,left,1,10,-30,-20,1,2347.584291,2347.584291,2347.584291,None,None,2,0,0.7743664,,,,,,,,,,,,,,,,,,,10,14,1,2024-10-29_10h33.40.571,uWM_experiment,2022.2.3,59.999808
,,,,,,,,,,,,,,,,,,,,5,0,5,0,10,0,10,0,,,,,,,,,,,,,,,,,,,,,,,,,,,,,,,,,,,,,,,,,,,,,,,,,,,,,,,,,,,,,,,,,,,,,,0,,,,,,,,,,,,,,,,,,,,,,,,,,,,right,1,10,30,40,0,2354.384559,2354.384559,2354.384559,None,None,1,1,0.326071,,,,,,,,,,,,,,,,,,,10,14,1,2024-10-29_10h33.40.571,uWM_experiment,2022.2.3,59.999808
,,,,,,,,,,,,,,,,,,,,5,0,5,0,11,0,11,0,,,,,,,,,,,,,,,,,,,,,,,,,,,,,,,,,,,,,,,,,,,,,,,,,,,,,,,,,,,,,,,,,,,,,,0,,,,,,,,,,,,,,,,,,,,,,,,,,,,left,1,10,-30,-20,0,2360.968178,2360.968178,2360.968178,None,None,1,1,0.3823388,,,,,,,,,,,,,,,,,,,10,14,1,2024-10-29_10h33.40.571,uWM_experiment,2022.2.3,59.999808
,,,,,,,,,,,,,,,,,,,,5,0,5,0,12,0,12,0,,,,,,,,,,,,,,,,,,,,,,,,,,,,,,,,,,,,,,,,,,,,,,,,,,,,,,,,,,,,,,,,,,,,,,0.479397506,,,,,,,,,,,,,,,,,,,,,,,,,,,,right,0,40,-30,10,1,2368.768505,2368.768505,2368.768505,None,None,1,1,1.5982053,,,,,,,,,,,,,,,,,,,10,14,1,2024-10-29_10h33.40.571,uWM_experiment,2022.2.3,59.999808
,,,,,,,,,,,,,,,,,,,,5,0,5,0,13,0,13,0,,,,,,,,,,,,,,,,,,,,,,,,,,,,,,,,,,,,,,,,,,,,,,,,,,,,,,,,,,,,,,,,,,,,,,0.489397506,,,,,,,,,,,,,,,,,,,,,,,,,,,,left,0,130,30,160,1,2376.952202,2376.952202,2376.952202,None,None,1,1,0.646312,,,,,,,,,,,,,,,,,,,10,14,1,2024-10-29_10h33.40.571,uWM_experiment,2022.2.3,59.999808
,,,,,,,,,,,,,,,,,,,,5,0,5,0,14,0,14,0,,,,,,,,,,,,,,,,,,,,,,,,,,,,,,,,,,,,,,,,,,,,,,,,,,,,,,,,,,,,,,,,,,,,,,0,,,,,,,,,,,,,,,,,,,,,,,,,,,,right,0,130,-30,100,0,2387.585931,2387.585931,2387.585931,None,None,1,1,1.3805104,,,,,,,,,,,,,,,,,,,10,14,1,2024-10-29_10h33.40.571,uWM_experiment,2022.2.3,59.999808
,,,,,,,,,,,,,,,,,,,,5,0,5,0,15,0,15,0,,,,,,,,,,,,,,,,,,,,,,,,,,,,,,,,,,,,,,,,,,,,,,,,,,,,,,,,,,,,,,,,,,,,,,0.499397506,,,,,,,,,,,,,,,,,,,,,,,,,,,,left,1,130,-30,100,1,2398.102978,2398.102978,2398.102978,None,None,2,0,1.807457,,,,,,,,,,,,,,,,,,,10,14,1,2024-10-29_10h33.40.571,uWM_experiment,2022.2.3,59.999808
,,,,,,,,,,,,,,,,,,,,5,0,5,0,16,0,16,0,,,,,,,,,,,,,,,,,,,,,,,,,,,,,,,,,,,,,,,,,,,,,,,,,,,,,,,,,,,,,,,,,,,,,,0.489397506,,,,,,,,,,,,,,,,,,,,,,,,,,,,right,0,160,-30,130,1,2406.720027,2406.720027,2406.720027,None,None,1,1,0.7423418,,,,,,,,,,,,,,,,,,,10,14,1,2024-10-29_10h33.40.571,uWM_experiment,2022.2.3,59.999808
,,,,,,,,,,,,,,,,,,,,5,0,5,0,17,0,17,0,,,,,,,,,,,,,,,,,,,,,,,,,,,,,,,,,,,,,,,,,,,,,,,,,,,,,,,,,,,,,,,,,,,,,,0.499397506,,,,,,,,,,,,,,,,,,,,,,,,,,,,right,0,10,-30,-20,1,2415.47035,2415.47035,2415.47035,None,None,1,1,1.599965,,,,,,,,,,,,,,,,,,,10,14,1,2024-10-29_10h33.40.571,uWM_experiment,2022.2.3,59.999808
,,,,,,,,,,,,,,,,,,,,5,0,5,0,18,0,18,0,,,,,,,,,,,,,,,,,,,,,,,,,,,,,,,,,,,,,,,,,,,,,,,,,,,,,,,,,,,,,,,,,,,,,,0,,,,,,,,,,,,,,,,,,,,,,,,,,,,right,0,130,-30,100,0,2426.637537,2426.637537,2426.637537,None,None,1,1,1.0006508,,,,,,,,,,,,,,,,,,,10,14,1,2024-10-29_10h33.40.571,uWM_experiment,2022.2.3,59.999808
,,,,,,,,,,,,,,,,,,,,5,0,5,0,19,0,19,0,,,,,,,,,,,,,,,,,,,,,,,,,,,,,,,,,,,,,,,,,,,,,,,,,,,,,,,,,,,,,,,,,,,,,,0,,,,,,,,,,,,,,,,,,,,,,,,,,,,left,1,100,-30,70,0,2435.171197,2435.171197,2435.171197,None,None,1,1,0.8270278,,,,,,,,,,,,,,,,,,,10,14,1,2024-10-29_10h33.40.571,uWM_experiment,2022.2.3,59.999808
,,,,,,,,,,,,,,,,,,,,5,0,5,0,20,0,20,0,,,,,,,,,,,,,,,,,,,,,,,,,,,,,,,,,,,,,,,,,,,,,,,,,,,,,,,,,,,,,,,,,,,,,,0.509397506,,,,,,,,,,,,,,,,,,,,,,,,,,,,left,0,40,30,70,1,2442.021427,2442.021427,2442.021427,None,None,2,0,0.8006587,,,,,,,,,,,,,,,,,,,10,14,1,2024-10-29_10h33.40.571,uWM_experiment,2022.2.3,59.999808
,,,,,,,,,,,,,,,,,,,,5,0,5,0,21,0,21,0,,,,,,,,,,,,,,,,,,,,,,,,,,,,,,,,,,,,,,,,,,,,,,,,,,,,,,,,,,,,,,,,,,,,,,0.499397506,,,,,,,,,,,,,,,,,,,,,,,,,,,,right,1,40,30,70,1,2451.938475,2451.938475,2451.938475,None,None,3,0,5.5476526,,,,,,,,,,,,,,,,,,,10,14,1,2024-10-29_10h33.40.571,uWM_experiment,2022.2.3,59.999808
,,,,,,,,,,,,,,,,,,,,5,0,5,0,22,0,22,0,,,,,,,,,,,,,,,,,,,,,,,,,,,,,,,,,,,,,,,,,,,,,,,,,,,,,,,,,,,,,,,,,,,,,,0.489397506,,,,,,,,,,,,,,,,,,,,,,,,,,,,left,1,40,-30,10,1,2465.97237,2465.97237,2465.97237,None,None,1,1,2.7778078,,,,,,,,,,,,,,,,,,,10,14,1,2024-10-29_10h33.40.571,uWM_experiment,2022.2.3,59.999808
,,,,,,,,,,,,,,,,,,,,5,0,5,0,23,0,23,0,,,,,,,,,,,,,,,,,,,,,,,,,,,,,,,,,,,,,,,,,,,,,,,,,,,,,,,,,,,,,,,,,,,,,,0.499397506,,,,,,,,,,,,,,,,,,,,,,,,,,,,left,1,160,-30,130,1,2474.206038,2474.206038,2474.206038,None,None,1,1,1.4719196,,,,,,,,,,,,,,,,,,,10,14,1,2024-10-29_10h33.40.571,uWM_experiment,2022.2.3,59.999808
,,,,,,,,,,,,,,,,,,,,5,0,5,0,,,,,0,0,0,0,,,,,,,,,,,,,,,,,,,,,,,,,,,,,,,,,,,,,,,,,,,,,,,,,,,,,,,,,,,,,,,,,,,,,,,,,,,,,,,,,,,,,,,,,,,,,,,,,,,,,,,,,,,,2475.706089,2475.706089,space,382.410395,space,None,,2858.138042,2858.138042,4.7463288,,,,,,,,,10,14,1,2024-10-29_10h33.40.571,uWM_experiment,2022.2.3,59.999808
,,,,,,,,,,,,,,,,,,,,5,0,5,0,,,,,1,0,1,0,,,,,,,,,,,,,,,,,,,,,,,,,,,,,,,,,,,,,,,,,,,,,,,,,,,,,,,,,,,,,,,,,,,,,,,,,,,,,,,,,,,,,,,,,,,,,,,,,,,,,,,,,,,,,,,,,,,,,,,,,,,,,,10,14,1,2024-10-29_10h33.40.571,uWM_experiment,2022.2.3,59.999808
,,,,,,,,,,,,,,,,,,,,5,0,5,0,,,,,2,0,2,0,,,,,,,,,,,,,,,,,,,,,,,,,,,,,,,,,,,,,,,,,,,,,,,,,,,,,,,,,,,,,,,,,,,,,,,,,,,,,,,,,,,,,,,,,,,,,,,,,,,,,,,,,,,,,,,,,,,,,,,,,,,,,,10,14,1,2024-10-29_10h33.40.571,uWM_experiment,2022.2.3,59.999808
,,,,,,,,,,,,,,,,,,,,6,0,6,0,0,0,0,0,,,,,,,,,,,,,,,,,,,,,,,,,,,,,,,,,,,,,,,,,,,,,,,,,,,,,,,,,,,,,,,,,,,,,,0,,,,,,,,,,,,,,,,,,,,2862.904896,2863.604923,2863.904934,2864.605026,2864.904982,2865.605052,2865.605052,2865.921862,left,0,100,30,130,0,2870.071951,2870.071951,2870.071951,None,None,1,1,0.1882682,,,,,,,None,,,,,,,,,,,,10,14,1,2024-10-29_10h33.40.571,uWM_experiment,2022.2.3,59.999808
,,,,,,,,,,,,,,,,,,,,6,0,6,0,1,0,1,0,,,,,,,,,,,,,,,,,,,,,,,,,,,,,,,,,,,,,,,,,,,,,,,,,,,,,,,,,,,,,,,,,,,,,,0.509397506,,,,,,,,,,,,,,,,,,,,,,,,,,,,left,0,100,30,130,1,2876.372092,2876.372092,2876.372092,None,None,2,0,0.8482441,,,,,,,,,,,,,,,,,,,10,14,1,2024-10-29_10h33.40.571,uWM_experiment,2022.2.3,59.999808
,,,,,,,,,,,,,,,,,,,,6,0,6,0,2,0,2,0,,,,,,,,,,,,,,,,,,,,,,,,,,,,,,,,,,,,,,,,,,,,,,,,,,,,,,,,,,,,,,,,,,,,,,0,,,,,,,,,,,,,,,,,,,,,,,,,,,,right,0,130,-30,100,0,2883.205765,2883.205765,2883.205765,None,None,1,1,0.5024114,,,,,,,,,,,,,,,,,,,10,14,1,2024-10-29_10h33.40.571,uWM_experiment,2022.2.3,59.999808
,,,,,,,,,,,,,,,,,,,,6,0,6,0,3,0,3,0,,,,,,,,,,,,,,,,,,,,,,,,,,,,,,,,,,,,,,,,,,,,,,,,,,,,,,,,,,,,,,,,,,,,,,0.499397506,,,,,,,,,,,,,,,,,,,,,,,,,,,,left,0,10,30,40,1,2891.339352,2891.339352,2891.339352,None,None,1,1,0.4088661,,,,,,,,,,,,,,,,,,,10,14,1,2024-10-29_10h33.40.571,uWM_experiment,2022.2.3,59.999808
,,,,,,,,,,,,,,,,,,,,6,0,6,0,4,0,4,0,,,,,,,,,,,,,,,,,,,,,,,,,,,,,,,,,,,,,,,,,,,,,,,,,,,,,,,,,,,,,,,,,,,,,,0.509397506,,,,,,,,,,,,,,,,,,,,,,,,,,,,right,1,40,30,70,1,2896.922915,2896.922915,2896.922915,None,None,1,1,1.2653249,,,,,,,,,,,,,,,,,,,10,14,1,2024-10-29_10h33.40.571,uWM_experiment,2022.2.3,59.999808
,,,,,,,,,,,,,,,,,,,,6,0,6,0,5,0,5,0,,,,,,,,,,,,,,,,,,,,,,,,,,,,,,,,,,,,,,,,,,,,,,,,,,,,,,,,,,,,,,,,,,,,,,0.519397506,,,,,,,,,,,,,,,,,,,,,,,,,,,,left,1,160,-30,130,1,2903.389855,2903.389855,2903.389855,None,None,1,1,0.4942949,,,,,,,,,,,,,,,,,,,10,14,1,2024-10-29_10h33.40.571,uWM_experiment,2022.2.3,59.999808
,,,,,,,,,,,,,,,,,,,,6,0,6,0,6,0,6,0,,,,,,,,,,,,,,,,,,,,,,,,,,,,,,,,,,,,,,,,,,,,,,,,,,,,,,,,,,,,,,,,,,,,,,0.529397506,,,,,,,,,,,,,,,,,,,,,,,,,,,,right,0,40,-30,10,1,2909.006782,2909.006782,2909.006782,None,None,1,1,0.5334697,,,,,,,,,,,,,,,,,,,10,14,1,2024-10-29_10h33.40.571,uWM_experiment,2022.2.3,59.999808
,,,,,,,,,,,,,,,,,,,,6,0,6,0,7,0,7,0,,,,,,,,,,,,,,,,,,,,,,,,,,,,,,,,,,,,,,,,,,,,,,,,,,,,,,,,,,,,,,,,,,,,,,0.539397506,,,,,,,,,,,,,,,,,,,,,,,,,,,,left,1,40,-30,10,1,2916.207109,2916.207109,2916.207109,None,None,1,1,0.717053,,,,,,,,,,,,,,,,,,,10,14,1,2024-10-29_10h33.40.571,uWM_experiment,2022.2.3,59.999808
,,,,,,,,,,,,,,,,,,,,6,0,6,0,8,0,8,0,,,,,,,,,,,,,,,,,,,,,,,,,,,,,,,,,,,,,,,,,,,,,,,,,,,,,,,,,,,,,,,,,,,,,,0.549397506,,,,,,,,,,,,,,,,,,,,,,,,,,,,right,0,100,-30,70,1,2923.74067,2923.74067,2923.74067,None,None,1,1,0.4473986,,,,,,,,,,,,,,,,,,,10,14,1,2024-10-29_10h33.40.571,uWM_experiment,2022.2.3,59.999808
,,,,,,,,,,,,,,,,,,,,6,0,6,0,9,0,9,0,,,,,,,,,,,,,,,,,,,,,,,,,,,,,,,,,,,,,,,,,,,,,,,,,,,,,,,,,,,,,,,,,,,,,,0.559397506,,,,,,,,,,,,,,,,,,,,,,,,,,,,right,1,160,30,190,1,2929.974235,2929.974235,2929.974235,None,None,1,1,0.4377391,,,,,,,,,,,,,,,,,,,10,14,1,2024-10-29_10h33.40.571,uWM_experiment,2022.2.3,59.999808
,,,,,,,,,,,,,,,,,,,,6,0,6,0,10,0,10,0,,,,,,,,,,,,,,,,,,,,,,,,,,,,,,,,,,,,,,,,,,,,,,,,,,,,,,,,,,,,,,,,,,,,,,0.1,,,,,,,,,,,,,,,,,,,,,,,,,,,,left,0,10,30,40,2,2935.824475,2935.824475,2935.824475,None,None,1,1,0.3235794,,,,,,,,,,,,,,,,,,,10,14,1,2024-10-29_10h33.40.571,uWM_experiment,2022.2.3,59.999808
,,,,,,,,,,,,,,,,,,,,6,0,6,0,11,0,11,0,,,,,,,,,,,,,,,,,,,,,,,,,,,,,,,,,,,,,,,,,,,,,,,,,,,,,,,,,,,,,,,,,,,,,,0.569397506,,,,,,,,,,,,,,,,,,,,,,,,,,,,left,0,100,30,130,1,2941.758107,2941.758107,2941.758107,None,None,2,0,0.6218302,,,,,,,,,,,,,,,,,,,10,14,1,2024-10-29_10h33.40.571,uWM_experiment,2022.2.3,59.999808
,,,,,,,,,,,,,,,,,,,,6,0,6,0,12,0,12,0,,,,,,,,,,,,,,,,,,,,,,,,,,,,,,,,,,,,,,,,,,,,,,,,,,,,,,,,,,,,,,,,,,,,,,0.559397506,,,,,,,,,,,,,,,,,,,,,,,,,,,,left,1,10,-30,-20,1,2947.574953,2947.574953,2947.574953,None,None,1,1,0.2130526,,,,,,,,,,,,,,,,,,,10,14,1,2024-10-29_10h33.40.571,uWM_experiment,2022.2.3,59.999808
,,,,,,,,,,,,,,,,,,,,6,0,6,0,13,0,13,0,,,,,,,,,,,,,,,,,,,,,,,,,,,,,,,,,,,,,,,,,,,,,,,,,,,,,,,,,,,,,,,,,,,,,,0,,,,,,,,,,,,,,,,,,,,,,,,,,,,left,1,160,-30,130,0,2954.425208,2954.425208,2954.425208,None,None,1,1,0.5308458,,,,,,,,,,,,,,,,,,,10,14,1,2024-10-29_10h33.40.571,uWM_experiment,2022.2.3,59.999808
,,,,,,,,,,,,,,,,,,,,6,0,6,0,14,0,14,0,,,,,,,,,,,,,,,,,,,,,,,,,,,,,,,,,,,,,,,,,,,,,,,,,,,,,,,,,,,,,,,,,,,,,,0.569397506,,,,,,,,,,,,,,,,,,,,,,,,,,,,left,1,160,-30,130,1,2961.475562,2961.475562,2961.475562,None,None,1,1,0.6164097,,,,,,,,,,,,,,,,,,,10,14,1,2024-10-29_10h33.40.571,uWM_experiment,2022.2.3,59.999808
,,,,,,,,,,,,,,,,,,,,6,0,6,0,15,0,15,0,,,,,,,,,,,,,,,,,,,,,,,,,,,,,,,,,,,,,,,,,,,,,,,,,,,,,,,,,,,,,,,,,,,,,,0.579397506,,,,,,,,,,,,,,,,,,,,,,,,,,,,left,0,100,30,130,1,2970.592607,2970.592607,2970.592607,None,None,1,1,0.3871859,,,,,,,,,,,,,,,,,,,10,14,1,2024-10-29_10h33.40.571,uWM_experiment,2022.2.3,59.999808
,,,,,,,,,,,,,,,,,,,,6,0,6,0,16,0,16,0,,,,,,,,,,,,,,,,,,,,,,,,,,,,,,,,,,,,,,,,,,,,,,,,,,,,,,,,,,,,,,,,,,,,,,0.589397506,,,,,,,,,,,,,,,,,,,,,,,,,,,,right,1,40,30,70,1,2977.309512,2977.309512,2977.309512,None,None,2,0,0.9823383,,,,,,,,,,,,,,,,,,,10,14,1,2024-10-29_10h33.40.571,uWM_experiment,2022.2.3,59.999808
,,,,,,,,,,,,,,,,,,,,6,0,6,0,17,0,17,0,,,,,,,,,,,,,,,,,,,,,,,,,,,,,,,,,,,,,,,,,,,,,,,,,,,,,,,,,,,,,,,,,,,,,,0.579397506,,,,,,,,,,,,,,,,,,,,,,,,,,,,right,1,70,30,100,1,2984.543082,2984.543082,2984.543082,None,None,1,1,0.3647541,,,,,,,,,,,,,,,,,,,10,14,1,2024-10-29_10h33.40.571,uWM_experiment,2022.2.3,59.999808
,,,,,,,,,,,,,,,,,,,,6,0,6,0,18,0,18,0,,,,,,,,,,,,,,,,,,,,,,,,,,,,,,,,,,,,,,,,,,,,,,,,,,,,,,,,,,,,,,,,,,,,,,0.589397506,,,,,,,,,,,,,,,,,,,,,,,,,,,,right,1,10,30,40,1,2991.310038,2991.310038,2991.310038,None,None,1,1,0.8376481,,,,,,,,,,,,,,,,,,,10,14,1,2024-10-29_10h33.40.571,uWM_experiment,2022.2.3,59.999808
,,,,,,,,,,,,,,,,,,,,6,0,6,0,19,0,19,0,,,,,,,,,,,,,,,,,,,,,,,,,,,,,,,,,,,,,,,,,,,,,,,,,,,,,,,,,,,,,,,,,,,,,,0,,,,,,,,,,,,,,,,,,,,,,,,,,,,left,1,160,-30,130,0,2998.243646,2998.243646,2998.243646,None,None,1,1,0.4001023,,,,,,,,,,,,,,,,,,,10,14,1,2024-10-29_10h33.40.571,uWM_experiment,2022.2.3,59.999808
,,,,,,,,,,,,,,,,,,,,6,0,6,0,20,0,20,0,,,,,,,,,,,,,,,,,,,,,,,,,,,,,,,,,,,,,,,,,,,,,,,,,,,,,,,,,,,,,,,,,,,,,,0,,,,,,,,,,,,,,,,,,,,,,,,,,,,right,1,40,30,70,0,3006.060613,3006.060613,3006.060613,None,None,1,1,0.4070684,,,,,,,,,,,,,,,,,,,10,14,1,2024-10-29_10h33.40.571,uWM_experiment,2022.2.3,59.999808
,,,,,,,,,,,,,,,,,,,,6,0,6,0,21,0,21,0,,,,,,,,,,,,,,,,,,,,,,,,,,,,,,,,,,,,,,,,,,,,,,,,,,,,,,,,,,,,,,,,,,,,,,0.599397506,,,,,,,,,,,,,,,,,,,,,,,,,,,,left,0,70,30,100,1,3012.527547,3012.527547,3012.527547,None,None,1,1,1.2921635,,,,,,,,,,,,,,,,,,,10,14,1,2024-10-29_10h33.40.571,uWM_experiment,2022.2.3,59.999808
,,,,,,,,,,,,,,,,,,,,6,0,6,0,22,0,22,0,,,,,,,,,,,,,,,,,,,,,,,,,,,,,,,,,,,,,,,,,,,,,,,,,,,,,,,,,,,,,,,,,,,,,,0.1,,,,,,,,,,,,,,,,,,,,,,,,,,,,left,0,160,30,190,2,3020.811208,3020.811208,3020.811208,None,None,1,1,0.2884935,,,,,,,,,,,,,,,,,,,10,14,1,2024-10-29_10h33.40.571,uWM_experiment,2022.2.3,59.999808
,,,,,,,,,,,,,,,,,,,,6,0,6,0,23,0,23,0,,,,,,,,,,,,,,,,,,,,,,,,,,,,,,,,,,,,,,,,,,,,,,,,,,,,,,,,,,,,,,,,,,,,,,0.609397506,,,,,,,,,,,,,,,,,,,,,,,,,,,,right,0,100,-30,70,1,3027.328123,3027.328123,3027.328123,None,None,2,0,0.5075417,,,,,,,,,,,,,,,,,,,10,14,1,2024-10-29_10h33.40.571,uWM_experiment,2022.2.3,59.999808
,,,,,,,,,,,,,,,,,,,,6,0,6,0,,,,,0,0,0,0,,,,,,,,,,,,,,,,,,,,,,,,,,,,,,,,,,,,,,,,,,,,,,,,,,,,,,,,,,,,,,,,,,,,,,,,,,,,,,,,,,,,,,,,,,,,,,,,,,,,,,,,,,,,3027.861482,3027.861482,space,64.7899055,None,space,,,,,3092.680724,3092.680724,1.3625982,,,,,,10,14,1,2024-10-29_10h33.40.571,uWM_experiment,2022.2.3,59.999808
,,,,,,,,,,,,,,,,,,,,6,0,6,0,,,,,1,0,1,0,,,,,,,,,,,,,,,,,,,,,,,,,,,,,,,,,,,,,,,,,,,,,,,,,,,,,,,,,,,,,,,,,,,,,,,,,,,,,,,,,,,,,,,,,,,,,,,,,,,,,,,,,,,,,,,,,,,,,,,,,,,,,,10,14,1,2024-10-29_10h33.40.571,uWM_experiment,2022.2.3,59.999808
,,,,,,,,,,,,,,,,,,,,6,0,6,0,,,,,2,0,2,0,,,,,,,,,,,,,,,,,,,,,,,,,,,,,,,,,,,,,,,,,,,,,,,,,,,,,,,,,,,,,,,,,,,,,,,,,,,,,,,,,,,,,,,,,,,,,,,,,,,,,,,,,,,,,,,,,,,,,,,,,,,,,,10,14,1,2024-10-29_10h33.40.571,uWM_experiment,2022.2.3,59.999808
,,,,,,,,,,,,,,,,,,,,7,0,7,0,0,0,0,0,,,,,,,,,,,,,,,,,,,,,,,,,,,,,,,,,,,,,,,,,,,,,,,,,,,,,,,,,,,,,,,,,,,,,,0,,,,,,,,,,,,,,,,,,,,3126.148744,3126.848764,3127.132109,3127.832164,3128.132143,3128.83217,3128.83217,3129.148867,right,1,160,30,190,0,3134.382387,3134.382387,3134.382387,None,None,1,1,0.5087951,,,,,,,space,,,,,,,3114.398261,3114.398261,11.7329334,,,10,14,1,2024-10-29_10h33.40.571,uWM_experiment,2022.2.3,59.999808
,,,,,,,,,,,,,,,,,,,,7,0,7,0,1,0,1,0,,,,,,,,,,,,,,,,,,,,,,,,,,,,,,,,,,,,,,,,,,,,,,,,,,,,,,,,,,,,,,,,,,,,,,0.599397506,,,,,,,,,,,,,,,,,,,,,,,,,,,,left,0,160,30,190,1,3141.549356,3141.549356,3141.549356,None,None,1,1,0.293767,,,,,,,,,,,,,,,,,,,10,14,1,2024-10-29_10h33.40.571,uWM_experiment,2022.2.3,59.999808
,,,,,,,,,,,,,,,,,,,,7,0,7,0,2,0,2,0,,,,,,,,,,,,,,,,,,,,,,,,,,,,,,,,,,,,,,,,,,,,,,,,,,,,,,,,,,,,,,,,,,,,,,0,,,,,,,,,,,,,,,,,,,,,,,,,,,,left,0,130,30,160,0,3148.466293,3148.466293,3148.466293,None,None,1,1,0.4248295,,,,,,,,,,,,,,,,,,,10,14,1,2024-10-29_10h33.40.571,uWM_experiment,2022.2.3,59.999808
,,,,,,,,,,,,,,,,,,,,7,0,7,0,3,0,3,0,,,,,,,,,,,,,,,,,,,,,,,,,,,,,,,,,,,,,,,,,,,,,,,,,,,,,,,,,,,,,,,,,,,,,,0.609397506,,,,,,,,,,,,,,,,,,,,,,,,,,,,left,0,130,30,160,1,3155.399919,3155.399919,3155.399919,None,None,1,1,0.5871352,,,,,,,,,,,,,,,,,,,10,14,1,2024-10-29_10h33.40.571,uWM_experiment,2022.2.3,59.999808
,,,,,,,,,,,,,,,,,,,,7,0,7,0,4,0,4,0,,,,,,,,,,,,,,,,,,,,,,,,,,,,,,,,,,,,,,,,,,,,,,,,,,,,,,,,,,,,,,,,,,,,,,0.619397506,,,,,,,,,,,,,,,,,,,,,,,,,,,,right,1,10,30,40,1,3161.816818,3161.816818,3161.816818,None,None,1,1,0.5541357,,,,,,,,,,,,,,,,,,,10,14,1,2024-10-29_10h33.40.571,uWM_experiment,2022.2.3,59.999808
,,,,,,,,,,,,,,,,,,,,7,0,7,0,5,0,5,0,,,,,,,,,,,,,,,,,,,,,,,,,,,,,,,,,,,,,,,,,,,,,,,,,,,,,,,,,,,,,,,,,,,,,,0,,,,,,,,,,,,,,,,,,,,,,,,,,,,right,1,10,30,40,0,3167.917077,3167.917077,3167.917077,None,None,1,1,0.7899788,,,,,,,,,,,,,,,,,,,10,14,1,2024-10-29_10h33.40.571,uWM_experiment,2022.2.3,59.999808
,,,,,,,,,,,,,,,,,,,,7,0,7,0,6,0,6,0,,,,,,,,,,,,,,,,,,,,,,,,,,,,,,,,,,,,,,,,,,,,,,,,,,,,,,,,,,,,,,,,,,,,,,0,,,,,,,,,,,,,,,,,,,,,,,,,,,,left,0,130,30,160,0,3174.417341,3174.417341,3174.417341,None,None,2,0,1.0096158,,,,,,,,,,,,,,,,,,,10,14,1,2024-10-29_10h33.40.571,uWM_experiment,2022.2.3,59.999808
,,,,,,,,,,,,,,,,,,,,7,0,7,0,7,0,7,0,,,,,,,,,,,,,,,,,,,,,,,,,,,,,,,,,,,,,,,,,,,,,,,,,,,,,,,,,,,,,,,,,,,,,,0.629397506,,,,,,,,,,,,,,,,,,,,,,,,,,,,left,0,130,30,160,1,3181.401015,3181.401015,3181.401015,None,None,1,1,0.4739394,,,,,,,,,,,,,,,,,,,10,14,1,2024-10-29_10h33.40.571,uWM_experiment,2022.2.3,59.999808
,,,,,,,,,,,,,,,,,,,,7,0,7,0,8,0,8,0,,,,,,,,,,,,,,,,,,,,,,,,,,,,,,,,,,,,,,,,,,,,,,,,,,,,,,,,,,,,,,,,,,,,,,0,,,,,,,,,,,,,,,,,,,,,,,,,,,,left,1,100,-30,70,0,3189.4846,3189.4846,3189.4846,None,None,1,1,0.350377,,,,,,,,,,,,,,,,,,,10,14,1,2024-10-29_10h33.40.571,uWM_experiment,2022.2.3,59.999808
,,,,,,,,,,,,,,,,,,,,7,0,7,0,9,0,9,0,,,,,,,,,,,,,,,,,,,,,,,,,,,,,,,,,,,,,,,,,,,,,,,,,,,,,,,,,,,,,,,,,,,,,,0.639397506,,,,,,,,,,,,,,,,,,,,,,,,,,,,left,1,40,-30,10,1,3196.751567,3196.751567,3196.751567,None,None,1,1,1.7633607,,,,,,,,,,,,,,,,,,,10,14,1,2024-10-29_10h33.40.571,uWM_experiment,2022.2.3,59.999808
,,,,,,,,,,,,,,,,,,,,7,0,7,0,10,0,10,0,,,,,,,,,,,,,,,,,,,,,,,,,,,,,,,,,,,,,,,,,,,,,,,,,,,,,,,,,,,,,,,,,,,,,,0.649397506,,,,,,,,,,,,,,,,,,,,,,,,,,,,right,1,40,30,70,1,3207.56866,3207.56866,3207.56866,None,None,1,1,1.3302292,,,,,,,,,,,,,,,,,,,10,14,1,2024-10-29_10h33.40.571,uWM_experiment,2022.2.3,59.999808
,,,,,,,,,,,,,,,,,,,,7,0,7,0,11,0,11,0,,,,,,,,,,,,,,,,,,,,,,,,,,,,,,,,,,,,,,,,,,,,,,,,,,,,,,,,,,,,,,,,,,,,,,0.659397506,,,,,,,,,,,,,,,,,,,,,,,,,,,,right,0,100,-30,70,1,3216.80236,3216.80236,3216.80236,None,None,2,0,1.4644931,,,,,,,,,,,,,,,,,,,10,14,1,2024-10-29_10h33.40.571,uWM_experiment,2022.2.3,59.999808
,,,,,,,,,,,,,,,,,,,,7,0,7,0,12,0,12,0,,,,,,,,,,,,,,,,,,,,,,,,,,,,,,,,,,,,,,,,,,,,,,,,,,,,,,,,,,,,,,,,,,,,,,0,,,,,,,,,,,,,,,,,,,,,,,,,,,,left,1,10,-30,-20,0,3225.56939,3225.56939,3225.56939,None,None,1,1,0.8093883,,,,,,,,,,,,,,,,,,,10,14,1,2024-10-29_10h33.40.571,uWM_experiment,2022.2.3,59.999808
,,,,,,,,,,,,,,,,,,,,7,0,7,0,13,0,13,0,,,,,,,,,,,,,,,,,,,,,,,,,,,,,,,,,,,,,,,,,,,,,,,,,,,,,,,,,,,,,,,,,,,,,,0,,,,,,,,,,,,,,,,,,,,,,,,,,,,right,0,130,-30,100,0,3236.619817,3236.619817,3236.619817,None,None,2,0,1.1348413,,,,,,,,,,,,,,,,,,,10,14,1,2024-10-29_10h33.40.571,uWM_experiment,2022.2.3,59.999808
,,,,,,,,,,,,,,,,,,,,7,0,7,0,14,0,14,0,,,,,,,,,,,,,,,,,,,,,,,,,,,,,,,,,,,,,,,,,,,,,,,,,,,,,,,,,,,,,,,,,,,,,,0,,,,,,,,,,,,,,,,,,,,,,,,,,,,left,0,130,30,160,0,3244.90348,3244.90348,3244.90348,None,None,1,1,0.2511499,,,,,,,,,,,,,,,,,,,10,14,1,2024-10-29_10h33.40.571,uWM_experiment,2022.2.3,59.999808
,,,,,,,,,,,,,,,,,,,,7,0,7,0,15,0,15,0,,,,,,,,,,,,,,,,,,,,,,,,,,,,,,,,,,,,,,,,,,,,,,,,,,,,,,,,,,,,,,,,,,,,,,0,,,,,,,,,,,,,,,,,,,,,,,,,,,,left,0,130,30,160,0,3253.287189,3253.287189,3253.287189,None,None,1,1,1.3314666,,,,,,,,,,,,,,,,,,,10,14,1,2024-10-29_10h33.40.571,uWM_experiment,2022.2.3,59.999808
,,,,,,,,,,,,,,,,,,,,7,0,7,0,16,0,16,0,,,,,,,,,,,,,,,,,,,,,,,,,,,,,,,,,,,,,,,,,,,,,,,,,,,,,,,,,,,,,,,,,,,,,,0.649397506,,,,,,,,,,,,,,,,,,,,,,,,,,,,left,1,130,-30,100,1,3263.070893,3263.070893,3263.070893,None,None,1,1,0.4196234,,,,,,,,,,,,,,,,,,,10,14,1,2024-10-29_10h33.40.571,uWM_experiment,2022.2.3,59.999808
,,,,,,,,,,,,,,,,,,,,7,0,7,0,17,0,17,0,,,,,,,,,,,,,,,,,,,,,,,,,,,,,,,,,,,,,,,,,,,,,,,,,,,,,,,,,,,,,,,,,,,,,,0,,,,,,,,,,,,,,,,,,,,,,,,,,,,left,1,10,-30,-20,0,3270.971177,3270.971177,3270.971177,None,None,1,1,1.5994091,,,,,,,,,,,,,,,,,,,10,14,1,2024-10-29_10h33.40.571,uWM_experiment,2022.2.3,59.999808
,,,,,,,,,,,,,,,,,,,,7,0,7,0,18,0,18,0,,,,,,,,,,,,,,,,,,,,,,,,,,,,,,,,,,,,,,,,,,,,,,,,,,,,,,,,,,,,,,,,,,,,,,0.659397506,,,,,,,,,,,,,,,,,,,,,,,,,,,,right,0,40,-30,10,1,3281.771604,3281.771604,3281.771604,None,None,2,0,1.367055,,,,,,,,,,,,,,,,,,,10,14,1,2024-10-29_10h33.40.571,uWM_experiment,2022.2.3,59.999808
,,,,,,,,,,,,,,,,,,,,7,0,7,0,19,0,19,0,,,,,,,,,,,,,,,,,,,,,,,,,,,,,,,,,,,,,,,,,,,,,,,,,,,,,,,,,,,,,,,,,,,,,,0.649397506,,,,,,,,,,,,,,,,,,,,,,,,,,,,left,0,130,30,160,1,3290.955328,3290.955328,3290.955328,None,None,2,0,1.2710982,,,,,,,,,,,,,,,,,,,10,14,1,2024-10-29_10h33.40.571,uWM_experiment,2022.2.3,59.999808
,,,,,,,,,,,,,,,,,,,,7,0,7,0,20,0,20,0,,,,,,,,,,,,,,,,,,,,,,,,,,,,,,,,,,,,,,,,,,,,,,,,,,,,,,,,,,,,,,,,,,,,,,0.639397506,,,,,,,,,,,,,,,,,,,,,,,,,,,,right,0,160,-30,130,1,3299.239017,3299.239017,3299.239017,None,None,1,1,2.0033441,,,,,,,,,,,,,,,,,,,10,14,1,2024-10-29_10h33.40.571,uWM_experiment,2022.2.3,59.999808
,,,,,,,,,,,,,,,,,,,,7,0,7,0,21,0,21,0,,,,,,,,,,,,,,,,,,,,,,,,,,,,,,,,,,,,,,,,,,,,,,,,,,,,,,,,,,,,,,,,,,,,,,0.649397506,,,,,,,,,,,,,,,,,,,,,,,,,,,,right,1,160,30,190,1,3307.922674,3307.922674,3307.922674,None,None,1,1,0.663676,,,,,,,,,,,,,,,,,,,10,14,1,2024-10-29_10h33.40.571,uWM_experiment,2022.2.3,59.999808
,,,,,,,,,,,,,,,,,,,,7,0,7,0,22,0,22,0,,,,,,,,,,,,,,,,,,,,,,,,,,,,,,,,,,,,,,,,,,,,,,,,,,,,,,,,,,,,,,,,,,,,,,0.1,,,,,,,,,,,,,,,,,,,,,,,,,,,,left,0,100,30,130,2,3315.372943,3315.372943,3315.372943,None,None,1,1,0.941407,,,,,,,,,,,,,,,,,,,10,14,1,2024-10-29_10h33.40.571,uWM_experiment,2022.2.3,59.999808
,,,,,,,,,,,,,,,,,,,,7,0,7,0,23,0,23,0,,,,,,,,,,,,,,,,,,,,,,,,,,,,,,,,,,,,,,,,,,,,,,,,,,,,,,,,,,,,,,,,,,,,,,0,,,,,,,,,,,,,,,,,,,,,,,,,,,,left,0,70,30,100,0,3323.373299,3323.373299,3323.373299,None,None,3,0,0.9970826,,,,,,,,,,,,,,,,,,,10,14,1,2024-10-29_10h33.40.571,uWM_experiment,2022.2.3,59.999808
,,,,,,,,,,,,,,,,,,,,7,0,7,0,,,,,0,0,0,0,,,,,,,,,,,,,,,,,,,,,,,,,,,,,,,,,,,,,,,,,,,,,,,,,,,,,,,,,,,,,,,,,,,,,,,,,,,,,,,,,,,,,,,,,,,,,,,,,,,,,,,,,,,,3324.389985,3324.389985,space,58.6761118,None,None,,,,,,,,,,,,,10,14,1,2024-10-29_10h33.40.571,uWM_experiment,2022.2.3,59.999808
,,,,,,,,,,,,,,,,,,,,7,0,7,0,,,,,1,0,1,0,,,,,,,,,,,,,,,,,,,,,,,,,,,,,,,,,,,,,,,,,,,,,,,,,,,,,,,,,,,,,,,,,,,,,,,,,,,,,,,,,,,,,,,,,,,,,,,,,,,,,,,,,,,,,,,,,,,,,,,,,,,,,,10,14,1,2024-10-29_10h33.40.571,uWM_experiment,2022.2.3,59.999808
,,,,,,,,,,,,,,,,,,,,7,0,7,0,,,,,2,0,2,0,,,,,,,,,,,,,,,,,,,,,,,,,,,,,,,,,,,,,,,,,,,,,,,,,,,,,,,,,,,,,,,,,,,,,,,,,,,,,,,,,,,,,,,,,,,,,,,,,,,,,,,,,,,,,,,,,,,,,,,,,,,,,,10,14,1,2024-10-29_10h33.40.571,uWM_experiment,2022.2.3,59.999808
,,,,,,,,,,,,,,,,,,,,8,0,8,0,0,0,0,0,,,,,,,,,,,,,,,,,,,,,,,,,,,,,,,,,,,,,,,,,,,,,,,,,,,,,,,,,,,,,,,,,,,,,,0.659397506,,,,,,,,,,,,,,,,,,,,3383.092332,3383.792411,3384.092366,3384.792425,3385.092409,3385.792445,3385.792445,3386.109144,right,0,100,-30,70,1,3390.85931,3390.85931,3390.85931,None,None,1,1,0.4947116,,,,,,,None,,,,,,,,,,,,10,14,1,2024-10-29_10h33.40.571,uWM_experiment,2022.2.3,59.999808
,,,,,,,,,,,,,,,,,,,,8,0,8,0,1,0,1,0,,,,,,,,,,,,,,,,,,,,,,,,,,,,,,,,,,,,,,,,,,,,,,,,,,,,,,,,,,,,,,,,,,,,,,0,,,,,,,,,,,,,,,,,,,,,,,,,,,,left,1,40,-30,10,0,3398.542962,3398.542962,3398.542962,None,None,2,0,0.8029759,,,,,,,,,,,,,,,,,,,10,14,1,2024-10-29_10h33.40.571,uWM_experiment,2022.2.3,59.999808
,,,,,,,,,,,,,,,,,,,,8,0,8,0,2,0,2,0,,,,,,,,,,,,,,,,,,,,,,,,,,,,,,,,,,,,,,,,,,,,,,,,,,,,,,,,,,,,,,,,,,,,,,0.669397506,,,,,,,,,,,,,,,,,,,,,,,,,,,,left,1,70,-30,40,1,3405.626557,3405.626557,3405.626557,None,None,1,1,0.391398,,,,,,,,,,,,,,,,,,,10,14,1,2024-10-29_10h33.40.571,uWM_experiment,2022.2.3,59.999808
,,,,,,,,,,,,,,,,,,,,8,0,8,0,3,0,3,0,,,,,,,,,,,,,,,,,,,,,,,,,,,,,,,,,,,,,,,,,,,,,,,,,,,,,,,,,,,,,,,,,,,,,,0.679397506,,,,,,,,,,,,,,,,,,,,,,,,,,,,left,1,160,-30,130,1,3412.560161,3412.560161,3412.560161,None,None,1,1,0.4016982,,,,,,,,,,,,,,,,,,,10,14,1,2024-10-29_10h33.40.571,uWM_experiment,2022.2.3,59.999808
,,,,,,,,,,,,,,,,,,,,8,0,8,0,4,0,4,0,,,,,,,,,,,,,,,,,,,,,,,,,,,,,,,,,,,,,,,,,,,,,,,,,,,,,,,,,,,,,,,,,,,,,,0,,,,,,,,,,,,,,,,,,,,,,,,,,,,right,0,40,-30,10,0,3419.110439,3419.110439,3419.110439,None,None,1,1,0.8434862,,,,,,,,,,,,,,,,,,,10,14,1,2024-10-29_10h33.40.571,uWM_experiment,2022.2.3,59.999808
,,,,,,,,,,,,,,,,,,,,8,0,8,0,5,0,5,0,,,,,,,,,,,,,,,,,,,,,,,,,,,,,,,,,,,,,,,,,,,,,,,,,,,,,,,,,,,,,,,,,,,,,,0.689397506,,,,,,,,,,,,,,,,,,,,,,,,,,,,left,1,160,-30,130,1,3426.194106,3426.194106,3426.194106,None,None,1,1,1.9356676,,,,,,,,,,,,,,,,,,,10,14,1,2024-10-29_10h33.40.571,uWM_experiment,2022.2.3,59.999808
,,,,,,,,,,,,,,,,,,,,8,0,8,0,6,0,6,0,,,,,,,,,,,,,,,,,,,,,,,,,,,,,,,,,,,,,,,,,,,,,,,,,,,,,,,,,,,,,,,,,,,,,,0.699397506,,,,,,,,,,,,,,,,,,,,,,,,,,,,left,1,160,-30,130,1,3436.561118,3436.561118,3436.561118,None,None,3,0,1.9607074,,,,,,,,,,,,,,,,,,,10,14,1,2024-10-29_10h33.40.571,uWM_experiment,2022.2.3,59.999808
,,,,,,,,,,,,,,,,,,,,8,0,8,0,7,0,7,0,,,,,,,,,,,,,,,,,,,,,,,,,,,,,,,,,,,,,,,,,,,,,,,,,,,,,,,,,,,,,,,,,,,,,,0.689397506,,,,,,,,,,,,,,,,,,,,,,,,,,,,left,0,70,30,100,1,3454.211839,3454.211839,3454.211839,None,None,1,1,1.0459631,,,,,,,,,,,,,,,,,,,10,14,1,2024-10-29_10h33.40.571,uWM_experiment,2022.2.3,59.999808
,,,,,,,,,,,,,,,,,,,,8,0,8,0,8,0,8,0,,,,,,,,,,,,,,,,,,,,,,,,,,,,,,,,,,,,,,,,,,,,,,,,,,,,,,,,,,,,,,,,,,,,,,0.699397506,,,,,,,,,,,,,,,,,,,,,,,,,,,,left,0,160,30,190,1,3462.695505,3462.695505,3462.695505,None,None,3,0,2.7381187,,,,,,,,,,,,,,,,,,,10,14,1,2024-10-29_10h33.40.571,uWM_experiment,2022.2.3,59.999808
,,,,,,,,,,,,,,,,,,,,8,0,8,0,9,0,9,0,,,,,,,,,,,,,,,,,,,,,,,,,,,,,,,,,,,,,,,,,,,,,,,,,,,,,,,,,,,,,,,,,,,,,,0,,,,,,,,,,,,,,,,,,,,,,,,,,,,right,1,10,30,40,0,3473.996003,3473.996003,3473.996003,None,None,1,1,1.5017093,,,,,,,,,,,,,,,,,,,10,14,1,2024-10-29_10h33.40.571,uWM_experiment,2022.2.3,59.999808
,,,,,,,,,,,,,,,,,,,,8,0,8,0,10,0,10,0,,,,,,,,,,,,,,,,,,,,,,,,,,,,,,,,,,,,,,,,,,,,,,,,,,,,,,,,,,,,,,,,,,,,,,0.689397506,,,,,,,,,,,,,,,,,,,,,,,,,,,,right,0,70,-30,40,1,3482.212929,3482.212929,3482.212929,None,None,2,0,1.1087618,,,,,,,,,,,,,,,,,,,10,14,1,2024-10-29_10h33.40.571,uWM_experiment,2022.2.3,59.999808
,,,,,,,,,,,,,,,,,,,,8,0,8,0,11,0,11,0,,,,,,,,,,,,,,,,,,,,,,,,,,,,,,,,,,,,,,,,,,,,,,,,,,,,,,,,,,,,,,,,,,,,,,0.679397506,,,,,,,,,,,,,,,,,,,,,,,,,,,,left,1,70,-30,40,1,3488.529911,3488.529911,3488.529911,None,None,1,1,0.543748,,,,,,,,,,,,,,,,,,,10,14,1,2024-10-29_10h33.40.571,uWM_experiment,2022.2.3,59.999808
,,,,,,,,,,,,,,,,,,,,8,0,8,0,12,0,12,0,,,,,,,,,,,,,,,,,,,,,,,,,,,,,,,,,,,,,,,,,,,,,,,,,,,,,,,,,,,,,,,,,,,,,,0.689397506,,,,,,,,,,,,,,,,,,,,,,,,,,,,left,0,40,30,70,1,3495.530152,3495.530152,3495.530152,None,None,1,1,0.8473712,,,,,,,,,,,,,,,,,,,10,14,1,2024-10-29_10h33.40.571,uWM_experiment,2022.2.3,59.999808
,,,,,,,,,,,,,,,,,,,,8,0,8,0,13,0,13,0,,,,,,,,,,,,,,,,,,,,,,,,,,,,,,,,,,,,,,,,,,,,,,,,,,,,,,,,,,,,,,,,,,,,,,0.699397506,,,,,,,,,,,,,,,,,,,,,,,,,,,,right,0,160,-30,130,1,3503.647143,3503.647143,3503.647143,None,None,1,1,1.0343138,,,,,,,,,,,,,,,,,,,10,14,1,2024-10-29_10h33.40.571,uWM_experiment,2022.2.3,59.999808
,,,,,,,,,,,,,,,,,,,,8,0,8,0,14,0,14,0,,,,,,,,,,,,,,,,,,,,,,,,,,,,,,,,,,,,,,,,,,,,,,,,,,,,,,,,,,,,,,,,,,,,,,0,,,,,,,,,,,,,,,,,,,,,,,,,,,,right,1,100,30,130,0,3513.180837,3513.180837,3513.180837,None,None,1,1,0.9406572,,,,,,,,,,,,,,,,,,,10,14,1,2024-10-29_10h33.40.571,uWM_experiment,2022.2.3,59.999808
,,,,,,,,,,,,,,,,,,,,8,0,8,0,15,0,15,0,,,,,,,,,,,,,,,,,,,,,,,,,,,,,,,,,,,,,,,,,,,,,,,,,,,,,,,,,,,,,,,,,,,,,,0.709397506,,,,,,,,,,,,,,,,,,,,,,,,,,,,left,1,160,-30,130,1,3520.231123,3520.231123,3520.231123,None,None,1,1,0.9064011,,,,,,,,,,,,,,,,,,,10,14,1,2024-10-29_10h33.40.571,uWM_experiment,2022.2.3,59.999808
,,,,,,,,,,,,,,,,,,,,8,0,8,0,16,0,16,0,,,,,,,,,,,,,,,,,,,,,,,,,,,,,,,,,,,,,,,,,,,,,,,,,,,,,,,,,,,,,,,,,,,,,,0.719397506,,,,,,,,,,,,,,,,,,,,,,,,,,,,left,1,130,-30,100,1,3533.415012,3533.415012,3533.415012,None,None,1,1,0.4903619,,,,,,,,,,,,,,,,,,,10,14,1,2024-10-29_10h33.40.571,uWM_experiment,2022.2.3,59.999808
,,,,,,,,,,,,,,,,,,,,8,0,8,0,17,0,17,0,,,,,,,,,,,,,,,,,,,,,,,,,,,,,,,,,,,,,,,,,,,,,,,,,,,,,,,,,,,,,,,,,,,,,,0.729397506,,,,,,,,,,,,,,,,,,,,,,,,,,,,right,1,40,30,70,1,3541.098666,3541.098666,3541.098666,None,None,2,0,0.9506441,,,,,,,,,,,,,,,,,,,10,14,1,2024-10-29_10h33.40.571,uWM_experiment,2022.2.3,59.999808
,,,,,,,,,,,,,,,,,,,,8,0,8,0,18,0,18,0,,,,,,,,,,,,,,,,,,,,,,,,,,,,,,,,,,,,,,,,,,,,,,,,,,,,,,,,,,,,,,,,,,,,,,0.719397506,,,,,,,,,,,,,,,,,,,,,,,,,,,,right,0,10,-30,-20,1,3547.915562,3547.915562,3547.915562,None,None,3,0,1.8938623,,,,,,,,,,,,,,,,,,,10,14,1,2024-10-29_10h33.40.571,uWM_experiment,2022.2.3,59.999808
,,,,,,,,,,,,,,,,,,,,8,0,8,0,19,0,19,0,,,,,,,,,,,,,,,,,,,,,,,,,,,,,,,,,,,,,,,,,,,,,,,,,,,,,,,,,,,,,,,,,,,,,,0.709397506,,,,,,,,,,,,,,,,,,,,,,,,,,,,left,0,130,30,160,1,3556.149203,3556.149203,3556.149203,None,None,3,0,0.7560841,,,,,,,,,,,,,,,,,,,10,14,1,2024-10-29_10h33.40.571,uWM_experiment,2022.2.3,59.999808
,,,,,,,,,,,,,,,,,,,,8,0,8,0,20,0,20,0,,,,,,,,,,,,,,,,,,,,,,,,,,,,,,,,,,,,,,,,,,,,,,,,,,,,,,,,,,,,,,,,,,,,,,0.1,,,,,,,,,,,,,,,,,,,,,,,,,,,,right,0,10,-30,-20,2,3566.466313,3566.466313,3566.466313,None,None,4,0,1.9750391,,,,,,,,,,,,,,,,,,,10,14,1,2024-10-29_10h33.40.571,uWM_experiment,2022.2.3,59.999808
,,,,,,,,,,,,,,,,,,,,8,0,8,0,21,0,21,0,,,,,,,,,,,,,,,,,,,,,,,,,,,,,,,,,,,,,,,,,,,,,,,,,,,,,,,,,,,,,,,,,,,,,,0.699397506,,,,,,,,,,,,,,,,,,,,,,,,,,,,left,1,130,-30,100,1,3578.000124,3578.000124,3578.000124,None,None,2,0,3.4811324,,,,,,,,,,,,,,,,,,,10,14,1,2024-10-29_10h33.40.571,uWM_experiment,2022.2.3,59.999808
,,,,,,,,,,,,,,,,,,,,8,0,8,0,22,0,22,0,,,,,,,,,,,,,,,,,,,,,,,,,,,,,,,,,,,,,,,,,,,,,,,,,,,,,,,,,,,,,,,,,,,,,,0.689397506,,,,,,,,,,,,,,,,,,,,,,,,,,,,right,1,160,30,190,1,3589.10055,3589.10055,3589.10055,None,None,1,1,0.3485515,,,,,,,,,,,,,,,,,,,10,14,1,2024-10-29_10h33.40.571,uWM_experiment,2022.2.3,59.999808
,,,,,,,,,,,,,,,,,,,,8,0,8,0,23,0,23,0,,,,,,,,,,,,,,,,,,,,,,,,,,,,,,,,,,,,,,,,,,,,,,,,,,,,,,,,,,,,,,,,,,,,,,0.699397506,,,,,,,,,,,,,,,,,,,,,,,,,,,,left,0,70,30,100,1,3596.434232,3596.434232,3596.434232,None,None,2,0,0.3669005,,,,,,,,,,,,,,,,,,,10,14,1,2024-10-29_10h33.40.571,uWM_experiment,2022.2.3,59.999808
,,,,,,,,,,,,,,,,,,,,8,0,8,0,,,,,0,0,0,0,,,,,,,,,,,,,,,,,,,,,,,,,,,,,,,,,,,,,,,,,,,,,,,,,,,,,,,,,,,,,,,,,,,,,,,,,,,,,,,,,,,,,,,,,,,,,,,,,,,,,,,,,,,,3596.834171,3596.834171,space,22.0309013,space,None,,3618.885056,3618.885056,5.4279677,,,,,,,,,10,14,1,2024-10-29_10h33.40.571,uWM_experiment,2022.2.3,59.999808
,,,,,,,,,,,,,,,,,,,,8,0,8,0,,,,,1,0,1,0,,,,,,,,,,,,,,,,,,,,,,,,,,,,,,,,,,,,,,,,,,,,,,,,,,,,,,,,,,,,,,,,,,,,,,,,,,,,,,,,,,,,,,,,,,,,,,,,,,,,,,,,,,,,,,,,,,,,,,,,,,,,,,10,14,1,2024-10-29_10h33.40.571,uWM_experiment,2022.2.3,59.999808
,,,,,,,,,,,,,,,,,,,,8,0,8,0,,,,,2,0,2,0,,,,,,,,,,,,,,,,,,,,,,,,,,,,,,,,,,,,,,,,,,,,,,,,,,,,,,,,,,,,,,,,,,,,,,,,,,,,,,,,,,,,,,,,,,,,,,,,,,,,,,,,,,,,,,,,,,,,,,,,,,,,,,10,14,1,2024-10-29_10h33.40.571,uWM_experiment,2022.2.3,59.999808
,,,,,,,,,,,,,,,,,,,,9,0,9,0,0,0,0,0,,,,,,,,,,,,,,,,,,,,,,,,,,,,,,,,,,,,,,,,,,,,,,,,,,,,,,,,,,,,,,,,,,,,,,0,,,,,,,,,,,,,,,,,,,,3624.335289,3625.035367,3625.335331,3626.035363,3626.335374,3627.035447,3627.035447,3627.352138,right,0,70,-30,40,0,3632.402352,3632.402352,3632.402352,None,None,1,1,0.278655,,,,,,,None,,,,,,,,,,,,10,14,1,2024-10-29_10h33.40.571,uWM_experiment,2022.2.3,59.999808
,,,,,,,,,,,,,,,,,,,,9,0,9,0,1,0,1,0,,,,,,,,,,,,,,,,,,,,,,,,,,,,,,,,,,,,,,,,,,,,,,,,,,,,,,,,,,,,,,,,,,,,,,0.689397506,,,,,,,,,,,,,,,,,,,,,,,,,,,,right,1,10,30,40,1,3639.452546,3639.452546,3639.452546,None,None,1,1,0.4444063,,,,,,,,,,,,,,,,,,,10,14,1,2024-10-29_10h33.40.571,uWM_experiment,2022.2.3,59.999808
,,,,,,,,,,,,,,,,,,,,9,0,9,0,2,0,2,0,,,,,,,,,,,,,,,,,,,,,,,,,,,,,,,,,,,,,,,,,,,,,,,,,,,,,,,,,,,,,,,,,,,,,,0,,,,,,,,,,,,,,,,,,,,,,,,,,,,left,1,10,-30,-20,0,3646.48617,3646.48617,3646.48617,None,None,1,1,0.4267592,,,,,,,,,,,,,,,,,,,10,14,1,2024-10-29_10h33.40.571,uWM_experiment,2022.2.3,59.999808
,,,,,,,,,,,,,,,,,,,,9,0,9,0,3,0,3,0,,,,,,,,,,,,,,,,,,,,,,,,,,,,,,,,,,,,,,,,,,,,,,,,,,,,,,,,,,,,,,,,,,,,,,0.699397506,,,,,,,,,,,,,,,,,,,,,,,,,,,,left,1,160,-30,130,1,3654.386477,3654.386477,3654.386477,None,None,2,0,0.6784752,,,,,,,,,,,,,,,,,,,10,14,1,2024-10-29_10h33.40.571,uWM_experiment,2022.2.3,59.999808
,,,,,,,,,,,,,,,,,,,,9,0,9,0,4,0,4,0,,,,,,,,,,,,,,,,,,,,,,,,,,,,,,,,,,,,,,,,,,,,,,,,,,,,,,,,,,,,,,,,,,,,,,0,,,,,,,,,,,,,,,,,,,,,,,,,,,,left,1,100,-30,70,0,3662.653476,3662.653476,3662.653476,None,None,1,1,0.4434179,,,,,,,,,,,,,,,,,,,10,14,1,2024-10-29_10h33.40.571,uWM_experiment,2022.2.3,59.999808
,,,,,,,,,,,,,,,,,,,,9,0,9,0,5,0,5,0,,,,,,,,,,,,,,,,,,,,,,,,,,,,,,,,,,,,,,,,,,,,,,,,,,,,,,,,,,,,,,,,,,,,,,0.689397506,,,,,,,,,,,,,,,,,,,,,,,,,,,,right,0,70,-30,40,1,3668.937062,3668.937062,3668.937062,None,None,1,1,0.3516996,,,,,,,,,,,,,,,,,,,10,14,1,2024-10-29_10h33.40.571,uWM_experiment,2022.2.3,59.999808
,,,,,,,,,,,,,,,,,,,,9,0,9,0,6,0,6,0,,,,,,,,,,,,,,,,,,,,,,,,,,,,,,,,,,,,,,,,,,,,,,,,,,,,,,,,,,,,,,,,,,,,,,0,,,,,,,,,,,,,,,,,,,,,,,,,,,,left,1,100,-30,70,0,3678.387449,3678.387449,3678.387449,None,None,1,1,0.4852978,,,,,,,,,,,,,,,,,,,10,14,1,2024-10-29_10h33.40.571,uWM_experiment,2022.2.3,59.999808
,,,,,,,,,,,,,,,,,,,,9,0,9,0,7,0,7,0,,,,,,,,,,,,,,,,,,,,,,,,,,,,,,,,,,,,,,,,,,,,,,,,,,,,,,,,,,,,,,,,,,,,,,0,,,,,,,,,,,,,,,,,,,,,,,,,,,,left,1,160,-30,130,0,3686.021082,3686.021082,3686.021082,None,None,1,1,0.9476323,,,,,,,,,,,,,,,,,,,10,14,1,2024-10-29_10h33.40.571,uWM_experiment,2022.2.3,59.999808
,,,,,,,,,,,,,,,,,,,,9,0,9,0,8,0,8,0,,,,,,,,,,,,,,,,,,,,,,,,,,,,,,,,,,,,,,,,,,,,,,,,,,,,,,,,,,,,,,,,,,,,,,0.699397506,,,,,,,,,,,,,,,,,,,,,,,,,,,,left,0,10,30,40,1,3695.288122,3695.288122,3695.288122,None,None,1,1,0.7684951,,,,,,,,,,,,,,,,,,,10,14,1,2024-10-29_10h33.40.571,uWM_experiment,2022.2.3,59.999808
,,,,,,,,,,,,,,,,,,,,9,0,9,0,9,0,9,0,,,,,,,,,,,,,,,,,,,,,,,,,,,,,,,,,,,,,,,,,,,,,,,,,,,,,,,,,,,,,,,,,,,,,,0.709397506,,,,,,,,,,,,,,,,,,,,,,,,,,,,right,0,160,-30,130,1,3702.271798,3702.271798,3702.271798,None,None,1,1,1.0248102,,,,,,,,,,,,,,,,,,,10,14,1,2024-10-29_10h33.40.571,uWM_experiment,2022.2.3,59.999808
,,,,,,,,,,,,,,,,,,,,9,0,9,0,10,0,10,0,,,,,,,,,,,,,,,,,,,,,,,,,,,,,,,,,,,,,,,,,,,,,,,,,,,,,,,,,,,,,,,,,,,,,,0.719397506,,,,,,,,,,,,,,,,,,,,,,,,,,,,right,1,10,30,40,1,3709.00534,3709.00534,3709.00534,None,None,2,0,0.8752961,,,,,,,,,,,,,,,,,,,10,14,1,2024-10-29_10h33.40.571,uWM_experiment,2022.2.3,59.999808
,,,,,,,,,,,,,,,,,,,,9,0,9,0,11,0,11,0,,,,,,,,,,,,,,,,,,,,,,,,,,,,,,,,,,,,,,,,,,,,,,,,,,,,,,,,,,,,,,,,,,,,,,0.709397506,,,,,,,,,,,,,,,,,,,,,,,,,,,,left,0,100,30,130,1,3715.955617,3715.955617,3715.955617,None,None,1,1,1.8849545,,,,,,,,,,,,,,,,,,,10,14,1,2024-10-29_10h33.40.571,uWM_experiment,2022.2.3,59.999808
,,,,,,,,,,,,,,,,,,,,9,0,9,0,12,0,12,0,,,,,,,,,,,,,,,,,,,,,,,,,,,,,,,,,,,,,,,,,,,,,,,,,,,,,,,,,,,,,,,,,,,,,,0.719397506,,,,,,,,,,,,,,,,,,,,,,,,,,,,right,0,100,-30,70,1,3725.589336,3725.589336,3725.589336,None,None,2,0,0.931202,,,,,,,,,,,,,,,,,,,10,14,1,2024-10-29_10h33.40.571,uWM_experiment,2022.2.3,59.999808
,,,,,,,,,,,,,,,,,,,,9,0,9,0,13,0,13,0,,,,,,,,,,,,,,,,,,,,,,,,,,,,,,,,,,,,,,,,,,,,,,,,,,,,,,,,,,,,,,,,,,,,,,0.709397506,,,,,,,,,,,,,,,,,,,,,,,,,,,,right,0,70,-30,40,1,3733.039644,3733.039644,3733.039644,None,None,2,0,0.872887,,,,,,,,,,,,,,,,,,,10,14,1,2024-10-29_10h33.40.571,uWM_experiment,2022.2.3,59.999808
,,,,,,,,,,,,,,,,,,,,9,0,9,0,14,0,14,0,,,,,,,,,,,,,,,,,,,,,,,,,,,,,,,,,,,,,,,,,,,,,,,,,,,,,,,,,,,,,,,,,,,,,,0.699397506,,,,,,,,,,,,,,,,,,,,,,,,,,,,right,1,40,30,70,1,3741.87331,3741.87331,3741.87331,None,None,1,1,0.5752253,,,,,,,,,,,,,,,,,,,10,14,1,2024-10-29_10h33.40.571,uWM_experiment,2022.2.3,59.999808
,,,,,,,,,,,,,,,,,,,,9,0,9,0,15,0,15,0,,,,,,,,,,,,,,,,,,,,,,,,,,,,,,,,,,,,,,,,,,,,,,,,,,,,,,,,,,,,,,,,,,,,,,0.709397506,,,,,,,,,,,,,,,,,,,,,,,,,,,,left,0,10,30,40,1,3748.506968,3748.506968,3748.506968,None,None,3,0,1.2294916,,,,,,,,,,,,,,,,,,,10,14,1,2024-10-29_10h33.40.571,uWM_experiment,2022.2.3,59.999808
,,,,,,,,,,,,,,,,,,,,9,0,9,0,16,0,16,0,,,,,,,,,,,,,,,,,,,,,,,,,,,,,,,,,,,,,,,,,,,,,,,,,,,,,,,,,,,,,,,,,,,,,,0.699397506,,,,,,,,,,,,,,,,,,,,,,,,,,,,right,1,70,30,100,1,3757.673994,3757.673994,3757.673994,None,None,1,1,0.5183436,,,,,,,,,,,,,,,,,,,10,14,1,2024-10-29_10h33.40.571,uWM_experiment,2022.2.3,59.999808
,,,,,,,,,,,,,,,,,,,,9,0,9,0,17,0,17,0,,,,,,,,,,,,,,,,,,,,,,,,,,,,,,,,,,,,,,,,,,,,,,,,,,,,,,,,,,,,,,,,,,,,,,0.709397506,,,,,,,,,,,,,,,,,,,,,,,,,,,,right,0,100,-30,70,1,3765.457599,3765.457599,3765.457599,None,None,1,1,2.2227537,,,,,,,,,,,,,,,,,,,10,14,1,2024-10-29_10h33.40.571,uWM_experiment,2022.2.3,59.999808
,,,,,,,,,,,,,,,,,,,,9,0,9,0,18,0,18,0,,,,,,,,,,,,,,,,,,,,,,,,,,,,,,,,,,,,,,,,,,,,,,,,,,,,,,,,,,,,,,,,,,,,,,0,,,,,,,,,,,,,,,,,,,,,,,,,,,,right,0,70,-30,40,0,3774.291257,3774.291257,3774.291257,None,None,1,1,0.2931123,,,,,,,,,,,,,,,,,,,10,14,1,2024-10-29_10h33.40.571,uWM_experiment,2022.2.3,59.999808
,,,,,,,,,,,,,,,,,,,,9,0,9,0,19,0,19,0,,,,,,,,,,,,,,,,,,,,,,,,,,,,,,,,,,,,,,,,,,,,,,,,,,,,,,,,,,,,,,,,,,,,,,0.719397506,,,,,,,,,,,,,,,,,,,,,,,,,,,,right,0,130,-30,100,1,3781.108203,3781.108203,3781.108203,None,None,1,1,0.4360828,,,,,,,,,,,,,,,,,,,10,14,1,2024-10-29_10h33.40.571,uWM_experiment,2022.2.3,59.999808
,,,,,,,,,,,,,,,,,,,,9,0,9,0,20,0,20,0,,,,,,,,,,,,,,,,,,,,,,,,,,,,,,,,,,,,,,,,,,,,,,,,,,,,,,,,,,,,,,,,,,,,,,0.729397506,,,,,,,,,,,,,,,,,,,,,,,,,,,,left,0,130,30,160,1,3787.791855,3787.791855,3787.791855,None,None,2,0,1.7684688,,,,,,,,,,,,,,,,,,,10,14,1,2024-10-29_10h33.40.571,uWM_experiment,2022.2.3,59.999808
,,,,,,,,,,,,,,,,,,,,9,0,9,0,21,0,21,0,,,,,,,,,,,,,,,,,,,,,,,,,,,,,,,,,,,,,,,,,,,,,,,,,,,,,,,,,,,,,,,,,,,,,,0,,,,,,,,,,,,,,,,,,,,,,,,,,,,left,1,40,-30,10,0,3796.658824,3796.658824,3796.658824,None,None,1,1,0.8053717,,,,,,,,,,,,,,,,,,,10,14,1,2024-10-29_10h33.40.571,uWM_experiment,2022.2.3,59.999808
