PreTrainingPAS4_loop.thisRepN,PreTrainingPAS4_loop.thisTrialN,PreTrainingPAS4_loop.thisN,PreTrainingPAS4_loop.thisIndex,PreTrainingPAS1_loop.thisRepN,PreTrainingPAS1_loop.thisTrialN,PreTrainingPAS1_loop.thisN,PreTrainingPAS1_loop.thisIndex,RepeatCV_loop.thisRepN,RepeatCV_loop.thisTrialN,RepeatCV_loop.thisN,RepeatCV_loop.thisIndex,TrainingCV_loop.thisRepN,TrainingCV_loop.thisTrialN,TrainingCV_loop.thisN,TrainingCV_loop.thisIndex,TrainingCAL_loop.thisRepN,TrainingCAL_loop.thisTrialN,TrainingCAL_loop.thisN,TrainingCAL_loop.thisIndex,blocks_loop.thisRepN,blocks_loop.thisTrialN,blocks_loop.thisN,blocks_loop.thisIndex,trials_loop.thisRepN,trials_loop.thisTrialN,trials_loop.thisN,trials_loop.thisIndex,TrainingPAS1_loop.thisRepN,TrainingPAS1_loop.thisTrialN,TrainingPAS1_loop.thisN,TrainingPAS1_loop.thisIndex,spacebarWelcome0.started,spacebarWelcome0.keys,spacebarWelcome0.rt,spacebarWelcome1.started,gaborWelcome1.started,maskWelcome1.started,textMaskWelcome1.started,spacebarWelcome1.keys,spacebarWelcome1.rt,spacebarWelcome2.started,spacebarWelcome2.keys,spacebarWelcome2.rt,textInst_PreTrainingPAS4.started,spacebarPreTrainingPAS4.started,spacebarPreTrainingPAS4.keys,spacebarPreTrainingPAS4.rt,textPreTrainingPAS1.started,spacebarPreTrainingPAS1.started,spacebarPreTrainingPAS1.keys,spacebarPreTrainingPAS1.rt,textQUEST0.started,spacebarQUEST0.started,spacebarQUEST0.keys,spacebarQUEST0.rt,spacebar0.started,spacebar0.keys,spacebar0.rt,spacebar1.started,spacebar1.keys,spacebar1.rt,textInstructions2.started,spacebar2.started,Gabor1Inst2.started,Gabor2Inst2.started,Gabor3Inst2.started,Gabor4Inst2.started,spacebar2.keys,spacebar2.rt,textInstructionsPAS.started,spacebarInstPAS.started,spacebarInstPAS.keys,spacebarInstPAS.rt,textInstructions3.started,spacebar3.started,spacebar3.keys,spacebar3.rt,WMresp_CV,WMresp_CV_acc,oriMemo_CV,gyre_CV,oriTest_CV,feedbackText.started,feedbackText.stopped,sliderCV.started,PAStextCV.started,PASkeyCV.started,sliderCV.response,sliderCV.rt,PASkeyCV.keys,PASkeyCV.corr,PASkeyCV.rt,TextInstructionsCAL.started,spacebarCAL.started,spacebarCAL.keys,spacebarCAL.rt,contrast,WMresp_CAL,WMresp_CAL_acc,oriMemo_CAL,gyre_CAL,oriTest_CAL,cue_CAL,sliderCAL.started,PAStextCAL.started,PASkeyCAL.started,sliderCAL.response,sliderCAL.rt,PASkeyCAL.keys,PASkeyCAL.corr,PASkeyCAL.rt,propUnseen_CAL,textStart.started,spacebar4.started,spacebar4.keys,spacebar4.rt,three.started,three.stopped,two.started,two.stopped,one.started,one.stopped,blank_countdown.started,blank_countdown.stopped,WMresp,WMresp_acc,oriMemo,gyre,oriTest,cue,slider.started,textPAS_firstGabor.started,PASkey.started,slider.response,slider.rt,PASkey.keys,PASkey.corr,PASkey.rt,spacebarContinue.started,textBreak.started,spacebarContinue.keys,spacebarContinue.rt,spacebar_reminder.keys,spacebar_TrainingPAS1.keys,spacebar_endpractice.keys,spacebar_reminder.started,textReminder.started,spacebar_reminder.rt,textInst_TrainingPAS1.started,spacebar_TrainingPAS1.started,spacebar_TrainingPAS1.rt,textend_practicePAS1.started,spacebar_endpractice.started,spacebar_endpractice.rt,textThanks.started,buttonURL.started,buttonURL.numClicks,buttonURL.timesOn,buttonURL.timesOff,laboratory,participant,session,date,expName,psychopyVersion,frameRate
,,,,,,,,,,,,,,,,,,,,,,,,,,,,,,,,35.9961826,space,20.179116,,,,,,,,,,,,,,,,,,,,,,,,,,,,,,,,,,,,,,,,,,,,,,,,,,,,,,,,,,,,,,,,,,,,,,,,,,,,,,,,,,,,,,,,,,,,,,,,,,,,,,,,,,,,,,,,,,,,,,,,,,,,,,10,15,2,2024-10-31_12h31.05.850,uWM_experiment,2022.2.3,59.99678417
,,,,,,,,,,,,,,,,,,,,,,,,,,,,,,,,,,,56.2134796,56.2134796,56.2134796,56.2134796,space,15.953932,,,,,,,,,,,,,,,,,,,,,,,,,,,,,,,,,,,,,,,,,,,,,,,,,,,,,,,,,,,,,,,,,,,,,,,,,,,,,,,,,,,,,,,,,,,,,,,,,,,,,,,,,,,,,,,,,,,,,,,,10,15,2,2024-10-31_12h31.05.850,uWM_experiment,2022.2.3,59.99678417
,,,,,,,,,,,,,,,,,,,,,,,,,,,,,,,,,,,,,,,,,72.1975346,space,15.7537261,,,,,,,,,,,,,,,,,,,,,,,,,,,,,,,,,,,,,,,,,,,,,,,,,,,,,,,,,,,,,,,,,,,,,,,,,,,,,,,,,,,,,,,,,,,,,,,,,,,,,,,,,,,,,,,,,,,,,10,15,2,2024-10-31_12h31.05.850,uWM_experiment,2022.2.3,59.99678417
,,,,,,,,,,,,,,,,,,,,,,,,,,,,,,,,,,,,,,,,,,,,87.9815665,87.9815665,space,6.4738038,,,,,,,,,,,,,,,,,,,,,,,,,,,,,,,,,,,,,,,,,,,,,,,,,,,,,,,,,,,,,,,,,,,,,,,,,,,,,,,,,,,,,,,,,,,,,,,,,,,,,,,,,,,,,,,,,10,15,2,2024-10-31_12h31.05.850,uWM_experiment,2022.2.3,59.99678417
0,0,0,0,,,,,,,,,,,,,,,,,,,,,,,,,,,,,,,,,,,,,,,,,,,,,,,,,,,,,,,,,,,,,,,,,,,,,,,,,,,,,,,,,,,,,,,,,,,,,,,,,,,,,,,,,,,,,,,,,,,,,,,,,,,,,,,,,,,,,,,,,,,,,,,,,,,,,,,,,,,,,10,15,2,2024-10-31_12h31.05.850,uWM_experiment,2022.2.3,59.99678417
1,0,1,0,,,,,,,,,,,,,,,,,,,,,,,,,,,,,,,,,,,,,,,,,,,,,,,,,,,,,,,,,,,,,,,,,,,,,,,,,,,,,,,,,,,,,,,,,,,,,,,,,,,,,,,,,,,,,,,,,,,,,,,,,,,,,,,,,,,,,,,,,,,,,,,,,,,,,,,,,,,,,10,15,2,2024-10-31_12h31.05.850,uWM_experiment,2022.2.3,59.99678417
2,0,2,0,,,,,,,,,,,,,,,,,,,,,,,,,,,,,,,,,,,,,,,,,,,,,,,,,,,,,,,,,,,,,,,,,,,,,,,,,,,,,,,,,,,,,,,,,,,,,,,,,,,,,,,,,,,,,,,,,,,,,,,,,,,,,,,,,,,,,,,,,,,,,,,,,,,,,,,,,,,,,10,15,2,2024-10-31_12h31.05.850,uWM_experiment,2022.2.3,59.99678417
,,,,,,,,,,,,,,,,,,,,,,,,,,,,,,,,,,,,,,,,,,,,,,,,102.6322154,102.6322154,space,8.615086,,,,,,,,,,,,,,,,,,,,,,,,,,,,,,,,,,,,,,,,,,,,,,,,,,,,,,,,,,,,,,,,,,,,,,,,,,,,,,,,,,,,,,,,,,,,,,,,,,,,,,,,,,,,,10,15,2,2024-10-31_12h31.05.850,uWM_experiment,2022.2.3,59.99678417
,,,,0,0,0,0,,,,,,,,,,,,,,,,,,,,,,,,,,,,,,,,,,,,,,,,,,,,,,,,,,,,,,,,,,,,,,,,,,,,,,,,,,,,,,,,,,,,,,,,,,,,,,,,,,,,,,,,,,,,,,,,,,,,,,,,,,,,,,,,,,,,,,,,,,,,,,,,,,,,,,,,,10,15,2,2024-10-31_12h31.05.850,uWM_experiment,2022.2.3,59.99678417
,,,,1,0,1,0,,,,,,,,,,,,,,,,,,,,,,,,,,,,,,,,,,,,,,,,,,,,,,,,,,,,,,,,,,,,,,,,,,,,,,,,,,,,,,,,,,,,,,,,,,,,,,,,,,,,,,,,,,,,,,,,,,,,,,,,,,,,,,,,,,,,,,,,,,,,,,,,,,,,,,,,,10,15,2,2024-10-31_12h31.05.850,uWM_experiment,2022.2.3,59.99678417
,,,,2,0,2,0,,,,,,,,,,,,,,,,,,,,,,,,,,,,,,,,,,,,,,,,,,,,,,,,,,,,,,,,,,,,,,,,,,,,,,,,,,,,,,,,,,,,,,,,,,,,,,,,,,,,,,,,,,,,,,,,,,,,,,,,,,,,,,,,,,,,,,,,,,,,,,,,,,,,,,,,,10,15,2,2024-10-31_12h31.05.850,uWM_experiment,2022.2.3,59.99678417
,,,,,,,,,,,,,,,,,,,,,,,,,,,,,,,,,,,,,,,,,,,,,,,,,,,,118.8496107,118.8496107,space,4.0137301,,,,,,,,,,,,,,,,,,,,,,,,,,,,,,,,,,,,,,,,,,,,,,,,,,,,,,,,,,,,,,,,,,,,,,,,,,,,,,,,,,,,,,,,,,,,,,,,,,,,,,,,,10,15,2,2024-10-31_12h31.05.850,uWM_experiment,2022.2.3,59.99678417
,,,,,,,,,,,,,,,,,,,,,,,,,,,,,,,,,,,,,,,,,,,,,,,,,,,,,,,,252.1388892,space,3.1085374,,,,,,,,,,,,,,,,,,,,,,,,,,,,,,,,,,,,,,,,,,,,,,,,,,,,,,,,,,,,,,,,,,,,,,,,,,,,,,,,,,,,,,,,,,,,,,,,,,,,,,10,15,2,2024-10-31_12h31.05.850,uWM_experiment,2022.2.3,59.99678417
,,,,,,,,,,,,,,,,,,,,,,,,,,,,,,,,,,,,,,,,,,,,,,,,,,,,,,,,,,,255.2723583,space,23.6230954,,,,,,,,,,,,,,,,,,,,,,,,,,,,,,,,,,,,,,,,,,,,,,,,,,,,,,,,,,,,,,,,,,,,,,,,,,,,,,,,,,,,,,,,,,,,,,,,,,,10,15,2,2024-10-31_12h31.05.850,uWM_experiment,2022.2.3,59.99678417
,,,,,,,,,,,,,,,,,,,,,,,,,,,,,,,,,,,,,,,,,,,,,,,,,,,,,,,,,,,,,,278.9234137,278.9234137,278.9234137,278.9234137,278.9234137,278.9234137,space,16.7879356,,,,,,,,,,,,,,,,,,,,,,,,,,,,,,,,,,,,,,,,,,,,,,,,,,,,,,,,,,,,,,,,,,,,,,,,,,,,,,,,,,,,,,,,,,,10,15,2,2024-10-31_12h31.05.850,uWM_experiment,2022.2.3,59.99678417
,,,,,,,,,,,,,,,,,,,,,,,,,,,,,,,,,,,,,,,,,,,,,,,,,,,,,,,,,,,,,,,,,,,,,,295.7408502,295.7408502,space,7.0345307,,,,,,,,,,,,,,,,,,,,,,,,,,,,,,,,,,,,,,,,,,,,,,,,,,,,,,,,,,,,,,,,,,,,,,,,,,,,,,,,,,,,,,,10,15,2,2024-10-31_12h31.05.850,uWM_experiment,2022.2.3,59.99678417
,,,,,,,,,,,,,,,,,,,,,,,,,,,,,,,,,,,,,,,,,,,,,,,,,,,,,,,,,,,,,,,,,,,,,,,,,,302.8078116,302.8078116,space,9.0235665,,,,,,,,,,,,,,,,,,,,,,,,,,,,,,,,,,,,,,,,,,,,,,,,,,,,,,,,,,,,,,,,,,,,,,,,,,,,,,,,,,,10,15,2,2024-10-31_12h31.05.850,uWM_experiment,2022.2.3,59.99678417
,,,,,,,,0,0,0,0,0,0,0,0,,,,,,,,,,,,,,,,,,,,,,,,,,,,,,,,,,,,,,,,,,,,,,,,,,,,,,,,,,,,,,,right,1,10,30,40,318.8752293,319.8752494,319.8752494,319.8752494,319.8752494,None,None,4,0,1.3321966,,,,,,,,,,,,,,,,,,,,,,,,,,,,,,,,,,,,,,,,,,,,,,,,,,,,,,,,,,,,,,,,,,,,10,15,2,2024-10-31_12h31.05.850,uWM_experiment,2022.2.3,59.99678417
,,,,,,,,0,0,0,0,1,0,1,0,,,,,,,,,,,,,,,,,,,,,,,,,,,,,,,,,,,,,,,,,,,,,,,,,,,,,,,,,,,,,,,left,0,70,30,100,327.4255991,,328.4256616,328.4256616,328.4256616,None,None,4,0,0.8697167,,,,,,,,,,,,,,,,,,,,,,,,,,,,,,,,,,,,,,,,,,,,,,,,,,,,,,,,,,,,,,,,,,,,10,15,2,2024-10-31_12h31.05.850,uWM_experiment,2022.2.3,59.99678417
,,,,,,,,0,0,0,0,2,0,2,0,,,,,,,,,,,,,,,,,,,,,,,,,,,,,,,,,,,,,,,,,,,,,,,,,,,,,,,,,,,,,,,right,0,160,-30,130,335.4759754,336.4759826,336.4759826,336.4759826,336.4759826,None,None,4,0,1.2594718,,,,,,,,,,,,,,,,,,,,,,,,,,,,,,,,,,,,,,,,,,,,,,,,,,,,,,,,,,,,,,,,,,,,10,15,2,2024-10-31_12h31.05.850,uWM_experiment,2022.2.3,59.99678417
,,,,,,,,0,0,0,0,3,0,3,0,,,,,,,,,,,,,,,,,,,,,,,,,,,,,,,,,,,,,,,,,,,,,,,,,,,,,,,,,,,,,,,right,0,100,-30,70,343.7930074,344.793036,344.793036,344.793036,344.793036,None,None,4,0,0.6144653,,,,,,,,,,,,,,,,,,,,,,,,,,,,,,,,,,,,,,,,,,,,,,,,,,,,,,,,,,,,,,,,,,,,10,15,2,2024-10-31_12h31.05.850,uWM_experiment,2022.2.3,59.99678417
,,,,,,,,0,0,0,0,4,0,4,0,,,,,,,,,,,,,,,,,,,,,,,,,,,,,,,,,,,,,,,,,,,,,,,,,,,,,,,,,,,,,,,right,0,70,-30,40,351.7266989,352.7267257,352.7267257,352.7267257,352.7267257,None,None,4,0,0.6487879,,,,,,,,,,,,,,,,,,,,,,,,,,,,,,,,,,,,,,,,,,,,,,,,,,,,,,,,,,,,,,,,,,,,10,15,2,2024-10-31_12h31.05.850,uWM_experiment,2022.2.3,59.99678417
,,,,,,,,0,0,0,0,5,0,5,0,,,,,,,,,,,,,,,,,,,,,,,,,,,,,,,,,,,,,,,,,,,,,,,,,,,,,,,,,,,,,,,left,0,40,30,70,359.427029,360.4270605,360.4270605,360.4270605,360.4270605,None,None,4,0,1.0763843,,,,,,,,,,,,,,,,,,,,,,,,,,,,,,,,,,,,,,,,,,,,,,,,,,,,,,,,,,,,,,,,,,,,10,15,2,2024-10-31_12h31.05.850,uWM_experiment,2022.2.3,59.99678417
,,,,,,,,0,0,0,0,,,,,,,,,,,,,,,,,,,,,,,,,,,,,,,,,,,,,,,,,,,,,,,,,,,,,,,,,,,,,,,,,,,,,,,,,,,,,,,,,,,,,,,,,,,,,,,,,,,,,,,,,,,,,,,,,,,,,,,,,,,,,,,,,,,,,,,,,,,,,,,,,,,,,10,15,2,2024-10-31_12h31.05.850,uWM_experiment,2022.2.3,59.99678417
,,,,,,,,1,0,1,0,0,0,0,0,,,,,,,,,,,,,,,,,,,,,,,,,,,,,,,,,,,,,,,,,,,,,,,,,,,,,,,,,,,,,,,left,1,40,-30,10,370.5108864,371.5108926,371.5108926,371.5108926,371.5108926,None,None,4,0,1.1364521,,,,,,,,,,,,,,,,,,,,,,,,,,,,,,,,,,,,,,,,,,,,,,,,,,,,,,,,,,,,,,,,,,,,10,15,2,2024-10-31_12h31.05.850,uWM_experiment,2022.2.3,59.99678417
,,,,,,,,1,0,1,0,1,0,1,0,,,,,,,,,,,,,,,,,,,,,,,,,,,,,,,,,,,,,,,,,,,,,,,,,,,,,,,,,,,,,,,right,1,130,30,160,378.59455,,379.5945918,379.5945918,379.5945918,None,None,4,0,0.4449185,,,,,,,,,,,,,,,,,,,,,,,,,,,,,,,,,,,,,,,,,,,,,,,,,,,,,,,,,,,,,,,,,,,,10,15,2,2024-10-31_12h31.05.850,uWM_experiment,2022.2.3,59.99678417
,,,,,,,,1,0,1,0,2,0,2,0,,,,,,,,,,,,,,,,,,,,,,,,,,,,,,,,,,,,,,,,,,,,,,,,,,,,,,,,,,,,,,,right,1,10,30,40,386.2782545,387.2782766,387.2782766,387.2782766,387.2782766,None,None,4,0,0.6011079,,,,,,,,,,,,,,,,,,,,,,,,,,,,,,,,,,,,,,,,,,,,,,,,,,,,,,,,,,,,,,,,,,,,10,15,2,2024-10-31_12h31.05.850,uWM_experiment,2022.2.3,59.99678417
,,,,,,,,1,0,1,0,3,0,3,0,,,,,,,,,,,,,,,,,,,,,,,,,,,,,,,,,,,,,,,,,,,,,,,,,,,,,,,,,,,,,,,right,0,100,-30,70,393.6785736,394.6786083,394.6786083,394.6786083,394.6786083,None,None,4,0,1.1207763,,,,,,,,,,,,,,,,,,,,,,,,,,,,,,,,,,,,,,,,,,,,,,,,,,,,,,,,,,,,,,,,,,,,10,15,2,2024-10-31_12h31.05.850,uWM_experiment,2022.2.3,59.99678417
,,,,,,,,1,0,1,0,4,0,4,0,,,,,,,,,,,,,,,,,,,,,,,,,,,,,,,,,,,,,,,,,,,,,,,,,,,,,,,,,,,,,,,right,1,160,30,190,401.6122405,402.6123131,402.6123131,402.6123131,402.6123131,None,None,4,0,0.5951518,,,,,,,,,,,,,,,,,,,,,,,,,,,,,,,,,,,,,,,,,,,,,,,,,,,,,,,,,,,,,,,,,,,,10,15,2,2024-10-31_12h31.05.850,uWM_experiment,2022.2.3,59.99678417
,,,,,,,,1,0,1,0,5,0,5,0,,,,,,,,,,,,,,,,,,,,,,,,,,,,,,,,,,,,,,,,,,,,,,,,,,,,,,,,,,,,,,,right,0,130,-30,100,409.7292822,,410.7293308,410.7293308,410.7293308,None,None,4,0,1.2461578,,,,,,,,,,,,,,,,,,,,,,,,,,,,,,,,,,,,,,,,,,,,,,,,,,,,,,,,,,,,,,,,,,,,10,15,2,2024-10-31_12h31.05.850,uWM_experiment,2022.2.3,59.99678417
,,,,,,,,1,0,1,0,,,,,,,,,,,,,,,,,,,,,,,,,,,,,,,,,,,,,,,,,,,,,,,,,,,,,,,,,,,,,,,,,,,,,,,,,,,,,,,,,,,,,,,,,,,,,,,,,,,,,,,,,,,,,,,,,,,,,,,,,,,,,,,,,,,,,,,,,,,,,,,,,,,,,10,15,2,2024-10-31_12h31.05.850,uWM_experiment,2022.2.3,59.99678417
,,,,,,,,,,,,,,,,,,,,,,,,,,,,,,,,,,,,,,,,,,,,,,,,,,,,,,,,,,,,,,,,,,,,,,,,,,,,,,,,,,,,,,,,,,,,,411.9960547,411.9960547,space,2.9074231,,,,,,,,,,,,,,,,,,,,,,,,,,,,,,,,,,,,,,,,,,,,,,,,,,,,,,,,,,,,,,,,10,15,2,2024-10-31_12h31.05.850,uWM_experiment,2022.2.3,59.99678417
,,,,,,,,,,,,,,,,0,0,0,0,,,,,,,,,,,,,,,,,,,,,,,,,,,,,,,,,,,,,,,,,,,,,,,,,,,,,,,,,,,,,,,,,,,,,,,,,,,,,,0.069348945,right,1,10,30,40,1,420.696439,420.696439,420.696439,None,None,4,0,0.9910513,,,,,,,,,,,,,,,,,,,,,,,,,,,,,,,,,,,,,,,,,,,,,,,,,10,15,2,2024-10-31_12h31.05.850,uWM_experiment,2022.2.3,59.99678417
,,,,,,,,,,,,,,,,1,0,1,0,,,,,,,,,,,,,,,,,,,,,,,,,,,,,,,,,,,,,,,,,,,,,,,,,,,,,,,,,,,,,,,,,,,,,,,,,,,,,,0.1,left,0,70,30,100,2,428.0134401,428.0134401,428.0134401,None,None,4,0,0.7620433,0,,,,,,,,,,,,,,,,,,,,,,,,,,,,,,,,,,,,,,,,,,,,,,,,10,15,2,2024-10-31_12h31.05.850,uWM_experiment,2022.2.3,59.99678417
,,,,,,,,,,,,,,,,2,0,2,0,,,,,,,,,,,,,,,,,,,,,,,,,,,,,,,,,,,,,,,,,,,,,,,,,,,,,,,,,,,,,,,,,,,,,,,,,,,,,,0.1,left,1,40,-30,10,2,435.3304529,435.3304529,435.3304529,None,None,4,0,0.7250954,0,,,,,,,,,,,,,,,,,,,,,,,,,,,,,,,,,,,,,,,,,,,,,,,,10,15,2,2024-10-31_12h31.05.850,uWM_experiment,2022.2.3,59.99678417
,,,,,,,,,,,,,,,,3,0,3,0,,,,,,,,,,,,,,,,,,,,,,,,,,,,,,,,,,,,,,,,,,,,,,,,,,,,,,,,,,,,,,,,,,,,,,,,,,,,,,0.059348945,left,1,160,-30,130,1,441.647372,441.647372,441.647372,None,None,1,1,0.5121527,0,,,,,,,,,,,,,,,,,,,,,,,,,,,,,,,,,,,,,,,,,,,,,,,,10,15,2,2024-10-31_12h31.05.850,uWM_experiment,2022.2.3,59.99678417
,,,,,,,,,,,,,,,,4,0,4,0,,,,,,,,,,,,,,,,,,,,,,,,,,,,,,,,,,,,,,,,,,,,,,,,,,,,,,,,,,,,,,,,,,,,,,,,,,,,,,0.069348945,left,1,130,-30,100,1,447.8143315,447.8143315,447.8143315,None,None,2,0,0.4731649,0.25,,,,,,,,,,,,,,,,,,,,,,,,,,,,,,,,,,,,,,,,,,,,,,,,10,15,2,2024-10-31_12h31.05.850,uWM_experiment,2022.2.3,59.99678417
,,,,,,,,,,,,,,,,5,0,5,0,,,,,,,,,,,,,,,,,,,,,,,,,,,,,,,,,,,,,,,,,,,,,,,,,,,,,,,,,,,,,,,,,,,,,,,,,,,,,,0.1,left,0,100,30,130,2,454.3312997,454.3312997,454.3312997,None,None,3,0,1.7003634,0.2,,,,,,,,,,,,,,,,,,,,,,,,,,,,,,,,,,,,,,,,,,,,,,,,10,15,2,2024-10-31_12h31.05.850,uWM_experiment,2022.2.3,59.99678417
,,,,,,,,,,,,,,,,,,,,,,,,,,,,,,,,,,,,,,,,,,,,,,,,,,,,,,,,,,,,,,,,,,,,,,,,,,,,,,,,,,,,,,,,,,,,,,,,,,,,,,,,,,,,,,,,,456.0647073,457.04808,space,4.04743,,,,,,,,,,,,,,,,,,,,,,,,,,,,,,,,,,,,,,,,,,,,10,15,2,2024-10-31_12h31.05.850,uWM_experiment,2022.2.3,59.99678417
,,,,,,,,,,,,,,,,,,,,0,0,0,0,0,0,0,0,,,,,,,,,,,,,,,,,,,,,,,,,,,,,,,,,,,,,,,,,,,,,,,,,,,,,,,,,,,,,,,,,,,,,,0.069348945,,,,,,,,,,,,,,,,,,,,461.1149199,461.8149531,462.0982983,462.7983271,463.0983589,463.7983734,463.7983734,464.1483821,left,1,160,-30,130,1,469.7986503,469.7986503,469.7986503,None,None,3,0,1.5448284,,,,,,,,,,,,,,,,,,,,,,10,15,2,2024-10-31_12h31.05.850,uWM_experiment,2022.2.3,59.99678417
,,,,,,,,,,,,,,,,,,,,0,0,0,0,1,0,1,0,,,,,,,,,,,,,,,,,,,,,,,,,,,,,,,,,,,,,,,,,,,,,,,,,,,,,,,,,,,,,,,,,,,,,,0,,,,,,,,,,,,,,,,,,,,,,,,,,,,left,0,100,30,130,0,477.2489979,477.2489979,477.2489979,None,None,1,1,0.5985071,,,,,,,,,,,,,,,,,,,,,,10,15,2,2024-10-31_12h31.05.850,uWM_experiment,2022.2.3,59.99678417
,,,,,,,,,,,,,,,,,,,,0,0,0,0,2,0,2,0,,,,,,,,,,,,,,,,,,,,,,,,,,,,,,,,,,,,,,,,,,,,,,,,,,,,,,,,,,,,,,,,,,,,,,0.059348945,,,,,,,,,,,,,,,,,,,,,,,,,,,,right,0,100,-30,70,1,483.565928,483.565928,483.565928,None,None,1,1,0.6895883,,,,,,,,,,,,,,,,,,,,,,10,15,2,2024-10-31_12h31.05.850,uWM_experiment,2022.2.3,59.99678417
,,,,,,,,,,,,,,,,,,,,0,0,0,0,3,0,3,0,,,,,,,,,,,,,,,,,,,,,,,,,,,,,,,,,,,,,,,,,,,,,,,,,,,,,,,,,,,,,,,,,,,,,,0.069348945,,,,,,,,,,,,,,,,,,,,,,,,,,,,left,0,100,30,130,1,489.966226,489.966226,489.966226,None,None,1,1,0.5692033,,,,,,,,,,,,,,,,,,,,,,10,15,2,2024-10-31_12h31.05.850,uWM_experiment,2022.2.3,59.99678417
,,,,,,,,,,,,,,,,,,,,0,0,0,0,4,0,4,0,,,,,,,,,,,,,,,,,,,,,,,,,,,,,,,,,,,,,,,,,,,,,,,,,,,,,,,,,,,,,,,,,,,,,,0.079348945,,,,,,,,,,,,,,,,,,,,,,,,,,,,right,0,100,-30,70,1,496.2831611,496.2831611,496.2831611,None,None,1,1,0.6604195,,,,,,,,,,,,,,,,,,,,,,10,15,2,2024-10-31_12h31.05.850,uWM_experiment,2022.2.3,59.99678417
,,,,,,,,,,,,,,,,,,,,0,0,0,0,5,0,5,0,,,,,,,,,,,,,,,,,,,,,,,,,,,,,,,,,,,,,,,,,,,,,,,,,,,,,,,,,,,,,,,,,,,,,,0.089348945,,,,,,,,,,,,,,,,,,,,,,,,,,,,left,0,70,30,100,1,502.7167963,502.7167963,502.7167963,None,None,1,1,0.5386902,,,,,,,,,,,,,,,,,,,,,,10,15,2,2024-10-31_12h31.05.850,uWM_experiment,2022.2.3,59.99678417
,,,,,,,,,,,,,,,,,,,,0,0,0,0,6,0,6,0,,,,,,,,,,,,,,,,,,,,,,,,,,,,,,,,,,,,,,,,,,,,,,,,,,,,,,,,,,,,,,,,,,,,,,0,,,,,,,,,,,,,,,,,,,,,,,,,,,,left,0,130,30,160,0,508.8170778,508.8170778,508.8170778,None,None,1,1,0.5265648,,,,,,,,,,,,,,,,,,,,,,10,15,2,2024-10-31_12h31.05.850,uWM_experiment,2022.2.3,59.99678417
,,,,,,,,,,,,,,,,,,,,0,0,0,0,7,0,7,0,,,,,,,,,,,,,,,,,,,,,,,,,,,,,,,,,,,,,,,,,,,,,,,,,,,,,,,,,,,,,,,,,,,,,,0.099348945,,,,,,,,,,,,,,,,,,,,,,,,,,,,left,1,130,-30,100,1,514.8173641,514.8173641,514.8173641,None,None,2,0,0.4860627,,,,,,,,,,,,,,,,,,,,,,10,15,2,2024-10-31_12h31.05.850,uWM_experiment,2022.2.3,59.99678417
,,,,,,,,,,,,,,,,,,,,0,0,0,0,8,0,8,0,,,,,,,,,,,,,,,,,,,,,,,,,,,,,,,,,,,,,,,,,,,,,,,,,,,,,,,,,,,,,,,,,,,,,,0.089348945,,,,,,,,,,,,,,,,,,,,,,,,,,,,left,1,130,-30,100,1,521.1176372,521.1176372,521.1176372,None,None,2,0,0.3538162,,,,,,,,,,,,,,,,,,,,,,10,15,2,2024-10-31_12h31.05.850,uWM_experiment,2022.2.3,59.99678417
,,,,,,,,,,,,,,,,,,,,0,0,0,0,9,0,9,0,,,,,,,,,,,,,,,,,,,,,,,,,,,,,,,,,,,,,,,,,,,,,,,,,,,,,,,,,,,,,,,,,,,,,,0.079348945,,,,,,,,,,,,,,,,,,,,,,,,,,,,left,0,100,30,130,1,527.0178929,527.0178929,527.0178929,None,None,1,1,0.2936445,,,,,,,,,,,,,,,,,,,,,,10,15,2,2024-10-31_12h31.05.850,uWM_experiment,2022.2.3,59.99678417
,,,,,,,,,,,,,,,,,,,,0,0,0,0,10,0,10,0,,,,,,,,,,,,,,,,,,,,,,,,,,,,,,,,,,,,,,,,,,,,,,,,,,,,,,,,,,,,,,,,,,,,,,0,,,,,,,,,,,,,,,,,,,,,,,,,,,,left,0,40,30,70,0,533.0515056,533.0515056,533.0515056,None,None,1,1,0.3960905,,,,,,,,,,,,,,,,,,,,,,10,15,2,2024-10-31_12h31.05.850,uWM_experiment,2022.2.3,59.99678417
,,,,,,,,,,,,,,,,,,,,0,0,0,0,11,0,11,0,,,,,,,,,,,,,,,,,,,,,,,,,,,,,,,,,,,,,,,,,,,,,,,,,,,,,,,,,,,,,,,,,,,,,,0.089348945,,,,,,,,,,,,,,,,,,,,,,,,,,,,left,0,100,30,130,1,538.9517503,538.9517503,538.9517503,None,None,1,1,0.3598045,,,,,,,,,,,,,,,,,,,,,,10,15,2,2024-10-31_12h31.05.850,uWM_experiment,2022.2.3,59.99678417
,,,,,,,,,,,,,,,,,,,,0,0,0,0,12,0,12,0,,,,,,,,,,,,,,,,,,,,,,,,,,,,,,,,,,,,,,,,,,,,,,,,,,,,,,,,,,,,,,,,,,,,,,0.099348945,,,,,,,,,,,,,,,,,,,,,,,,,,,,right,1,40,30,70,1,544.9186684,544.9186684,544.9186684,None,None,3,0,0.3367872,,,,,,,,,,,,,,,,,,,,,,10,15,2,2024-10-31_12h31.05.850,uWM_experiment,2022.2.3,59.99678417
,,,,,,,,,,,,,,,,,,,,0,0,0,0,13,0,13,0,,,,,,,,,,,,,,,,,,,,,,,,,,,,,,,,,,,,,,,,,,,,,,,,,,,,,,,,,,,,,,,,,,,,,,0.089348945,,,,,,,,,,,,,,,,,,,,,,,,,,,,right,1,10,30,40,1,550.7856413,550.7856413,550.7856413,None,None,1,1,0.4538021,,,,,,,,,,,,,,,,,,,,,,10,15,2,2024-10-31_12h31.05.850,uWM_experiment,2022.2.3,59.99678417
,,,,,,,,,,,,,,,,,,,,0,0,0,0,14,0,14,0,,,,,,,,,,,,,,,,,,,,,,,,,,,,,,,,,,,,,,,,,,,,,,,,,,,,,,,,,,,,,,,,,,,,,,0,,,,,,,,,,,,,,,,,,,,,,,,,,,,right,0,40,-30,10,0,556.9358847,556.9358847,556.9358847,None,None,4,0,0.3757122,,,,,,,,,,,,,,,,,,,,,,10,15,2,2024-10-31_12h31.05.850,uWM_experiment,2022.2.3,59.99678417
,,,,,,,,,,,,,,,,,,,,0,0,0,0,15,0,15,0,,,,,,,,,,,,,,,,,,,,,,,,,,,,,,,,,,,,,,,,,,,,,,,,,,,,,,,,,,,,,,,,,,,,,,0,,,,,,,,,,,,,,,,,,,,,,,,,,,,right,1,40,30,70,0,562.9194967,562.9194967,562.9194967,None,None,1,1,0.296066,,,,,,,,,,,,,,,,,,,,,,10,15,2,2024-10-31_12h31.05.850,uWM_experiment,2022.2.3,59.99678417
,,,,,,,,,,,,,,,,,,,,0,0,0,0,16,0,16,0,,,,,,,,,,,,,,,,,,,,,,,,,,,,,,,,,,,,,,,,,,,,,,,,,,,,,,,,,,,,,,,,,,,,,,0,,,,,,,,,,,,,,,,,,,,,,,,,,,,left,0,40,30,70,0,569.4697863,569.4697863,569.4697863,None,None,1,1,0.4657082,,,,,,,,,,,,,,,,,,,,,,10,15,2,2024-10-31_12h31.05.850,uWM_experiment,2022.2.3,59.99678417
,,,,,,,,,,,,,,,,,,,,0,0,0,0,17,0,17,0,,,,,,,,,,,,,,,,,,,,,,,,,,,,,,,,,,,,,,,,,,,,,,,,,,,,,,,,,,,,,,,,,,,,,,0.099348945,,,,,,,,,,,,,,,,,,,,,,,,,,,,left,0,130,30,160,1,575.4700568,575.4700568,575.4700568,None,None,2,0,0.5135111,,,,,,,,,,,,,,,,,,,,,,10,15,2,2024-10-31_12h31.05.850,uWM_experiment,2022.2.3,59.99678417
,,,,,,,,,,,,,,,,,,,,0,0,0,0,18,0,18,0,,,,,,,,,,,,,,,,,,,,,,,,,,,,,,,,,,,,,,,,,,,,,,,,,,,,,,,,,,,,,,,,,,,,,,0.089348945,,,,,,,,,,,,,,,,,,,,,,,,,,,,left,0,130,30,160,1,581.4369976,581.4369976,581.4369976,None,None,2,0,0.5065369,,,,,,,,,,,,,,,,,,,,,,10,15,2,2024-10-31_12h31.05.850,uWM_experiment,2022.2.3,59.99678417
,,,,,,,,,,,,,,,,,,,,0,0,0,0,19,0,19,0,,,,,,,,,,,,,,,,,,,,,,,,,,,,,,,,,,,,,,,,,,,,,,,,,,,,,,,,,,,,,,,,,,,,,,0.079348945,,,,,,,,,,,,,,,,,,,,,,,,,,,,left,1,10,-30,-20,1,587.4872891,587.4872891,587.4872891,None,None,1,1,0.4243172,,,,,,,,,,,,,,,,,,,,,,10,15,2,2024-10-31_12h31.05.850,uWM_experiment,2022.2.3,59.99678417
,,,,,,,,,,,,,,,,,,,,0,0,0,0,20,0,20,0,,,,,,,,,,,,,,,,,,,,,,,,,,,,,,,,,,,,,,,,,,,,,,,,,,,,,,,,,,,,,,,,,,,,,,0.089348945,,,,,,,,,,,,,,,,,,,,,,,,,,,,left,0,130,30,160,1,593.3708922,593.3708922,593.3708922,None,None,1,1,0.3646156,,,,,,,,,,,,,,,,,,,,,,10,15,2,2024-10-31_12h31.05.850,uWM_experiment,2022.2.3,59.99678417
,,,,,,,,,,,,,,,,,,,,0,0,0,0,21,0,21,0,,,,,,,,,,,,,,,,,,,,,,,,,,,,,,,,,,,,,,,,,,,,,,,,,,,,,,,,,,,,,,,,,,,,,,0.099348945,,,,,,,,,,,,,,,,,,,,,,,,,,,,left,0,130,30,160,1,599.2044544,599.2044544,599.2044544,None,None,2,0,0.4190323,,,,,,,,,,,,,,,,,,,,,,10,15,2,2024-10-31_12h31.05.850,uWM_experiment,2022.2.3,59.99678417
,,,,,,,,,,,,,,,,,,,,0,0,0,0,22,0,22,0,,,,,,,,,,,,,,,,,,,,,,,,,,,,,,,,,,,,,,,,,,,,,,,,,,,,,,,,,,,,,,,,,,,,,,0.089348945,,,,,,,,,,,,,,,,,,,,,,,,,,,,right,1,40,30,70,1,605.171415,605.171415,605.171415,None,None,2,0,0.4281491,,,,,,,,,,,,,,,,,,,,,,10,15,2,2024-10-31_12h31.05.850,uWM_experiment,2022.2.3,59.99678417
,,,,,,,,,,,,,,,,,,,,0,0,0,0,23,0,23,0,,,,,,,,,,,,,,,,,,,,,,,,,,,,,,,,,,,,,,,,,,,,,,,,,,,,,,,,,,,,,,,,,,,,,,0,,,,,,,,,,,,,,,,,,,,,,,,,,,,right,0,100,-30,70,0,611.2883453,611.2883453,611.2883453,None,None,1,1,1.4072559,,,,,,,,,,,,,,,,,,,,,,10,15,2,2024-10-31_12h31.05.850,uWM_experiment,2022.2.3,59.99678417
,,,,,,,,,,,,,,,,,,,,0,0,0,0,,,,,0,0,0,0,,,,,,,,,,,,,,,,,,,,,,,,,,,,,,,,,,,,,,,,,,,,,,,,,,,,,,,,,,,,,,,,,,,,,,,,,,,,,,,,,,,,,,,,,,,,,,,,,,,,,,,,,,,,612.7217213,612.7217213,space,20.0938927,None,None,,,,,,,,,,,,,,,,10,15,2,2024-10-31_12h31.05.850,uWM_experiment,2022.2.3,59.99678417
,,,,,,,,,,,,,,,,,,,,0,0,0,0,,,,,1,0,1,0,,,,,,,,,,,,,,,,,,,,,,,,,,,,,,,,,,,,,,,,,,,,,,,,,,,,,,,,,,,,,,,,,,,,,,,,,,,,,,,,,,,,,,,,,,,,,,,,,,,,,,,,,,,,,,,,,,,,,,,,,,,,,,,,,10,15,2,2024-10-31_12h31.05.850,uWM_experiment,2022.2.3,59.99678417
,,,,,,,,,,,,,,,,,,,,0,0,0,0,,,,,2,0,2,0,,,,,,,,,,,,,,,,,,,,,,,,,,,,,,,,,,,,,,,,,,,,,,,,,,,,,,,,,,,,,,,,,,,,,,,,,,,,,,,,,,,,,,,,,,,,,,,,,,,,,,,,,,,,,,,,,,,,,,,,,,,,,,,,,10,15,2,2024-10-31_12h31.05.850,uWM_experiment,2022.2.3,59.99678417
,,,,,,,,,,,,,,,,,,,,1,0,1,0,0,0,0,0,,,,,,,,,,,,,,,,,,,,,,,,,,,,,,,,,,,,,,,,,,,,,,,,,,,,,,,,,,,,,,,,,,,,,,0,,,,,,,,,,,,,,,,,,,,632.8393023,633.5393339,633.8393756,634.5393768,634.8393881,635.5394029,635.5394029,635.8561068,left,0,100,30,130,0,640.1896572,640.1896572,640.1896572,None,None,1,1,0.3538565,,,,,,,None,,,,,,,,,,,,,,,10,15,2,2024-10-31_12h31.05.850,uWM_experiment,2022.2.3,59.99678417
,,,,,,,,,,,,,,,,,,,,1,0,1,0,1,0,1,0,,,,,,,,,,,,,,,,,,,,,,,,,,,,,,,,,,,,,,,,,,,,,,,,,,,,,,,,,,,,,,,,,,,,,,0,,,,,,,,,,,,,,,,,,,,,,,,,,,,left,0,100,30,130,0,646.0232516,646.0232516,646.0232516,None,None,1,1,0.3683326,,,,,,,,,,,,,,,,,,,,,,10,15,2,2024-10-31_12h31.05.850,uWM_experiment,2022.2.3,59.99678417
,,,,,,,,,,,,,,,,,,,,1,0,1,0,2,0,2,0,,,,,,,,,,,,,,,,,,,,,,,,,,,,,,,,,,,,,,,,,,,,,,,,,,,,,,,,,,,,,,,,,,,,,,0.079348945,,,,,,,,,,,,,,,,,,,,,,,,,,,,right,1,40,30,70,1,651.9235093,651.9235093,651.9235093,None,None,2,0,0.3720069,,,,,,,,,,,,,,,,,,,,,,10,15,2,2024-10-31_12h31.05.850,uWM_experiment,2022.2.3,59.99678417
,,,,,,,,,,,,,,,,,,,,1,0,1,0,3,0,3,0,,,,,,,,,,,,,,,,,,,,,,,,,,,,,,,,,,,,,,,,,,,,,,,,,,,,,,,,,,,,,,,,,,,,,,0.069348945,,,,,,,,,,,,,,,,,,,,,,,,,,,,left,1,160,-30,130,1,657.6071197,657.6071197,657.6071197,None,None,1,1,0.3765395,,,,,,,,,,,,,,,,,,,,,,10,15,2,2024-10-31_12h31.05.850,uWM_experiment,2022.2.3,59.99678417
,,,,,,,,,,,,,,,,,,,,1,0,1,0,4,0,4,0,,,,,,,,,,,,,,,,,,,,,,,,,,,,,,,,,,,,,,,,,,,,,,,,,,,,,,,,,,,,,,,,,,,,,,0.079348945,,,,,,,,,,,,,,,,,,,,,,,,,,,,left,1,10,-30,-20,1,663.4740322,663.4740322,663.4740322,None,None,1,1,0.3174968,,,,,,,,,,,,,,,,,,,,,,10,15,2,2024-10-31_12h31.05.850,uWM_experiment,2022.2.3,59.99678417
,,,,,,,,,,,,,,,,,,,,1,0,1,0,5,0,5,0,,,,,,,,,,,,,,,,,,,,,,,,,,,,,,,,,,,,,,,,,,,,,,,,,,,,,,,,,,,,,,,,,,,,,,0.089348945,,,,,,,,,,,,,,,,,,,,,,,,,,,,left,1,130,-30,100,1,670.1409931,670.1409931,670.1409931,None,None,1,1,0.5545283,,,,,,,,,,,,,,,,,,,,,,10,15,2,2024-10-31_12h31.05.850,uWM_experiment,2022.2.3,59.99678417
,,,,,,,,,,,,,,,,,,,,1,0,1,0,6,0,6,0,,,,,,,,,,,,,,,,,,,,,,,,,,,,,,,,,,,,,,,,,,,,,,,,,,,,,,,,,,,,,,,,,,,,,,0.099348945,,,,,,,,,,,,,,,,,,,,,,,,,,,,right,0,40,-30,10,1,676.1079488,676.1079488,676.1079488,None,None,1,1,0.5396321,,,,,,,,,,,,,,,,,,,,,,10,15,2,2024-10-31_12h31.05.850,uWM_experiment,2022.2.3,59.99678417
,,,,,,,,,,,,,,,,,,,,1,0,1,0,7,0,7,0,,,,,,,,,,,,,,,,,,,,,,,,,,,,,,,,,,,,,,,,,,,,,,,,,,,,,,,,,,,,,,,,,,,,,,0.109348945,,,,,,,,,,,,,,,,,,,,,,,,,,,,right,1,100,30,130,1,682.7748999,682.7748999,682.7748999,None,None,3,0,1.4807416,,,,,,,,,,,,,,,,,,,,,,10,15,2,2024-10-31_12h31.05.850,uWM_experiment,2022.2.3,59.99678417
,,,,,,,,,,,,,,,,,,,,1,0,1,0,8,0,8,0,,,,,,,,,,,,,,,,,,,,,,,,,,,,,,,,,,,,,,,,,,,,,,,,,,,,,,,,,,,,,,,,,,,,,,0.099348945,,,,,,,,,,,,,,,,,,,,,,,,,,,,right,0,100,-30,70,1,689.8752414,689.8752414,689.8752414,None,None,1,1,0.4123866,,,,,,,,,,,,,,,,,,,,,,10,15,2,2024-10-31_12h31.05.850,uWM_experiment,2022.2.3,59.99678417
,,,,,,,,,,,,,,,,,,,,1,0,1,0,9,0,9,0,,,,,,,,,,,,,,,,,,,,,,,,,,,,,,,,,,,,,,,,,,,,,,,,,,,,,,,,,,,,,,,,,,,,,,0.109348945,,,,,,,,,,,,,,,,,,,,,,,,,,,,left,0,100,30,130,1,695.7921326,695.7921326,695.7921326,None,None,2,0,0.3674517,,,,,,,,,,,,,,,,,,,,,,10,15,2,2024-10-31_12h31.05.850,uWM_experiment,2022.2.3,59.99678417
,,,,,,,,,,,,,,,,,,,,1,0,1,0,10,0,10,0,,,,,,,,,,,,,,,,,,,,,,,,,,,,,,,,,,,,,,,,,,,,,,,,,,,,,,,,,,,,,,,,,,,,,,0.099348945,,,,,,,,,,,,,,,,,,,,,,,,,,,,left,0,70,30,100,1,702.1257721,702.1257721,702.1257721,None,None,2,0,0.4898156,,,,,,,,,,,,,,,,,,,,,,10,15,2,2024-10-31_12h31.05.850,uWM_experiment,2022.2.3,59.99678417
,,,,,,,,,,,,,,,,,,,,1,0,1,0,11,0,11,0,,,,,,,,,,,,,,,,,,,,,,,,,,,,,,,,,,,,,,,,,,,,,,,,,,,,,,,,,,,,,,,,,,,,,,0.089348945,,,,,,,,,,,,,,,,,,,,,,,,,,,,left,1,160,-30,130,1,708.3093693,708.3093693,708.3093693,None,None,1,1,0.4182131,,,,,,,,,,,,,,,,,,,,,,10,15,2,2024-10-31_12h31.05.850,uWM_experiment,2022.2.3,59.99678417
,,,,,,,,,,,,,,,,,,,,1,0,1,0,12,0,12,0,,,,,,,,,,,,,,,,,,,,,,,,,,,,,,,,,,,,,,,,,,,,,,,,,,,,,,,,,,,,,,,,,,,,,,0,,,,,,,,,,,,,,,,,,,,,,,,,,,,left,1,130,-30,100,0,714.3096232,714.3096232,714.3096232,None,None,1,1,0.457996,,,,,,,,,,,,,,,,,,,,,,10,15,2,2024-10-31_12h31.05.850,uWM_experiment,2022.2.3,59.99678417
,,,,,,,,,,,,,,,,,,,,1,0,1,0,13,0,13,0,,,,,,,,,,,,,,,,,,,,,,,,,,,,,,,,,,,,,,,,,,,,,,,,,,,,,,,,,,,,,,,,,,,,,,0.099348945,,,,,,,,,,,,,,,,,,,,,,,,,,,,right,1,70,30,100,1,720.4099064,720.4099064,720.4099064,None,None,2,0,0.4778001,,,,,,,,,,,,,,,,,,,,,,10,15,2,2024-10-31_12h31.05.850,uWM_experiment,2022.2.3,59.99678417
,,,,,,,,,,,,,,,,,,,,1,0,1,0,14,0,14,0,,,,,,,,,,,,,,,,,,,,,,,,,,,,,,,,,,,,,,,,,,,,,,,,,,,,,,,,,,,,,,,,,,,,,,0.089348945,,,,,,,,,,,,,,,,,,,,,,,,,,,,left,1,160,-30,130,1,726.8768747,726.8768747,726.8768747,None,None,3,0,1.0027217,,,,,,,,,,,,,,,,,,,,,,10,15,2,2024-10-31_12h31.05.850,uWM_experiment,2022.2.3,59.99678417
,,,,,,,,,,,,,,,,,,,,1,0,1,0,15,0,15,0,,,,,,,,,,,,,,,,,,,,,,,,,,,,,,,,,,,,,,,,,,,,,,,,,,,,,,,,,,,,,,,,,,,,,,0.079348945,,,,,,,,,,,,,,,,,,,,,,,,,,,,left,0,70,30,100,1,733.4771788,733.4771788,733.4771788,None,None,1,1,0.3944895,,,,,,,,,,,,,,,,,,,,,,10,15,2,2024-10-31_12h31.05.850,uWM_experiment,2022.2.3,59.99678417
,,,,,,,,,,,,,,,,,,,,1,0,1,0,16,0,16,0,,,,,,,,,,,,,,,,,,,,,,,,,,,,,,,,,,,,,,,,,,,,,,,,,,,,,,,,,,,,,,,,,,,,,,0.1,,,,,,,,,,,,,,,,,,,,,,,,,,,,left,1,40,-30,10,2,739.9774686,739.9774686,739.9774686,None,None,4,0,0.4142607,,,,,,,,,,,,,,,,,,,,,,10,15,2,2024-10-31_12h31.05.850,uWM_experiment,2022.2.3,59.99678417
,,,,,,,,,,,,,,,,,,,,1,0,1,0,17,0,17,0,,,,,,,,,,,,,,,,,,,,,,,,,,,,,,,,,,,,,,,,,,,,,,,,,,,,,,,,,,,,,,,,,,,,,,0.089348945,,,,,,,,,,,,,,,,,,,,,,,,,,,,left,0,70,30,100,1,745.8777323,745.8777323,745.8777323,None,None,1,1,0.5298797,,,,,,,,,,,,,,,,,,,,,,10,15,2,2024-10-31_12h31.05.850,uWM_experiment,2022.2.3,59.99678417
,,,,,,,,,,,,,,,,,,,,1,0,1,0,18,0,18,0,,,,,,,,,,,,,,,,,,,,,,,,,,,,,,,,,,,,,,,,,,,,,,,,,,,,,,,,,,,,,,,,,,,,,,0,,,,,,,,,,,,,,,,,,,,,,,,,,,,left,1,130,-30,100,0,752.3446833,752.3446833,752.3446833,None,None,1,1,1.0469386,,,,,,,,,,,,,,,,,,,,,,10,15,2,2024-10-31_12h31.05.850,uWM_experiment,2022.2.3,59.99678417
,,,,,,,,,,,,,,,,,,,,1,0,1,0,19,0,19,0,,,,,,,,,,,,,,,,,,,,,,,,,,,,,,,,,,,,,,,,,,,,,,,,,,,,,,,,,,,,,,,,,,,,,,0,,,,,,,,,,,,,,,,,,,,,,,,,,,,right,0,40,-30,10,0,758.8283028,758.8283028,758.8283028,None,None,1,1,0.5313781,,,,,,,,,,,,,,,,,,,,,,10,15,2,2024-10-31_12h31.05.850,uWM_experiment,2022.2.3,59.99678417
,,,,,,,,,,,,,,,,,,,,1,0,1,0,20,0,20,0,,,,,,,,,,,,,,,,,,,,,,,,,,,,,,,,,,,,,,,,,,,,,,,,,,,,,,,,,,,,,,,,,,,,,,0.099348945,,,,,,,,,,,,,,,,,,,,,,,,,,,,left,0,70,30,100,1,764.7618889,764.7618889,764.7618889,None,None,2,0,0.4376894,,,,,,,,,,,,,,,,,,,,,,10,15,2,2024-10-31_12h31.05.850,uWM_experiment,2022.2.3,59.99678417
,,,,,,,,,,,,,,,,,,,,1,0,1,0,21,0,21,0,,,,,,,,,,,,,,,,,,,,,,,,,,,,,,,,,,,,,,,,,,,,,,,,,,,,,,,,,,,,,,,,,,,,,,0.089348945,,,,,,,,,,,,,,,,,,,,,,,,,,,,right,0,70,-30,40,1,770.5455063,770.5455063,770.5455063,None,None,3,0,0.4301417,,,,,,,,,,,,,,,,,,,,,,10,15,2,2024-10-31_12h31.05.850,uWM_experiment,2022.2.3,59.99678417
,,,,,,,,,,,,,,,,,,,,1,0,1,0,22,0,22,0,,,,,,,,,,,,,,,,,,,,,,,,,,,,,,,,,,,,,,,,,,,,,,,,,,,,,,,,,,,,,,,,,,,,,,0.079348945,,,,,,,,,,,,,,,,,,,,,,,,,,,,left,1,160,-30,130,1,776.5624467,776.5624467,776.5624467,None,None,3,0,0.5171323,,,,,,,,,,,,,,,,,,,,,,10,15,2,2024-10-31_12h31.05.850,uWM_experiment,2022.2.3,59.99678417
,,,,,,,,,,,,,,,,,,,,1,0,1,0,23,0,23,0,,,,,,,,,,,,,,,,,,,,,,,,,,,,,,,,,,,,,,,,,,,,,,,,,,,,,,,,,,,,,,,,,,,,,,0,,,,,,,,,,,,,,,,,,,,,,,,,,,,right,0,40,-30,10,0,782.4626947,782.4626947,782.4626947,None,None,1,1,0.3529077,,,,,,,,,,,,,,,,,,,,,,10,15,2,2024-10-31_12h31.05.850,uWM_experiment,2022.2.3,59.99678417
,,,,,,,,,,,,,,,,,,,,1,0,1,0,,,,,0,0,0,0,,,,,,,,,,,,,,,,,,,,,,,,,,,,,,,,,,,,,,,,,,,,,,,,,,,,,,,,,,,,,,,,,,,,,,,,,,,,,,,,,,,,,,,,,,,,,,,,,,,,,,,,,,,,782.8460434,782.8460434,space,65.0177247,None,None,,,,,,,,,,,,,,,,10,15,2,2024-10-31_12h31.05.850,uWM_experiment,2022.2.3,59.99678417
,,,,,,,,,,,,,,,,,,,,1,0,1,0,,,,,1,0,1,0,,,,,,,,,,,,,,,,,,,,,,,,,,,,,,,,,,,,,,,,,,,,,,,,,,,,,,,,,,,,,,,,,,,,,,,,,,,,,,,,,,,,,,,,,,,,,,,,,,,,,,,,,,,,,,,,,,,,,,,,,,,,,,,,,10,15,2,2024-10-31_12h31.05.850,uWM_experiment,2022.2.3,59.99678417
,,,,,,,,,,,,,,,,,,,,1,0,1,0,,,,,2,0,2,0,,,,,,,,,,,,,,,,,,,,,,,,,,,,,,,,,,,,,,,,,,,,,,,,,,,,,,,,,,,,,,,,,,,,,,,,,,,,,,,,,,,,,,,,,,,,,,,,,,,,,,,,,,,,,,,,,,,,,,,,,,,,,,,,,10,15,2,2024-10-31_12h31.05.850,uWM_experiment,2022.2.3,59.99678417
,,,,,,,,,,,,,,,,,,,,2,0,2,0,0,0,0,0,,,,,,,,,,,,,,,,,,,,,,,,,,,,,,,,,,,,,,,,,,,,,,,,,,,,,,,,,,,,,,,,,,,,,,0,,,,,,,,,,,,,,,,,,,,847.882291,848.5823183,848.8823305,849.5823606,849.8823913,850.5824094,850.5824094,850.8990976,right,0,100,-30,70,0,855.38264,855.38264,855.38264,None,None,1,1,0.3370183,,,,,,,None,,,,,,,,,,,,,,,10,15,2,2024-10-31_12h31.05.850,uWM_experiment,2022.2.3,59.99678417
,,,,,,,,,,,,,,,,,,,,2,0,2,0,1,0,1,0,,,,,,,,,,,,,,,,,,,,,,,,,,,,,,,,,,,,,,,,,,,,,,,,,,,,,,,,,,,,,,,,,,,,,,0.069348945,,,,,,,,,,,,,,,,,,,,,,,,,,,,left,1,10,-30,-20,1,861.1162171,861.1162171,861.1162171,None,None,3,0,0.8034139,,,,,,,,,,,,,,,,,,,,,,10,15,2,2024-10-31_12h31.05.850,uWM_experiment,2022.2.3,59.99678417
,,,,,,,,,,,,,,,,,,,,2,0,2,0,2,0,2,0,,,,,,,,,,,,,,,,,,,,,,,,,,,,,,,,,,,,,,,,,,,,,,,,,,,,,,,,,,,,,,,,,,,,,,0,,,,,,,,,,,,,,,,,,,,,,,,,,,,right,0,40,-30,10,0,867.9332004,867.9332004,867.9332004,None,None,2,0,1.1305607,,,,,,,,,,,,,,,,,,,,,,10,15,2,2024-10-31_12h31.05.850,uWM_experiment,2022.2.3,59.99678417
,,,,,,,,,,,,,,,,,,,,2,0,2,0,3,0,3,0,,,,,,,,,,,,,,,,,,,,,,,,,,,,,,,,,,,,,,,,,,,,,,,,,,,,,,,,,,,,,,,,,,,,,,0.059348945,,,,,,,,,,,,,,,,,,,,,,,,,,,,left,1,130,-30,100,1,874.5335094,874.5335094,874.5335094,None,None,3,0,0.4102416,,,,,,,,,,,,,,,,,,,,,,10,15,2,2024-10-31_12h31.05.850,uWM_experiment,2022.2.3,59.99678417
,,,,,,,,,,,,,,,,,,,,2,0,2,0,4,0,4,0,,,,,,,,,,,,,,,,,,,,,,,,,,,,,,,,,,,,,,,,,,,,,,,,,,,,,,,,,,,,,,,,,,,,,,0.049348945,,,,,,,,,,,,,,,,,,,,,,,,,,,,left,1,130,-30,100,1,880.4337511,880.4337511,880.4337511,None,None,1,1,0.3259746,,,,,,,,,,,,,,,,,,,,,,10,15,2,2024-10-31_12h31.05.850,uWM_experiment,2022.2.3,59.99678417
,,,,,,,,,,,,,,,,,,,,2,0,2,0,5,0,5,0,,,,,,,,,,,,,,,,,,,,,,,,,,,,,,,,,,,,,,,,,,,,,,,,,,,,,,,,,,,,,,,,,,,,,,0.059348945,,,,,,,,,,,,,,,,,,,,,,,,,,,,left,1,10,-30,-20,1,886.23403,886.23403,886.23403,None,None,3,0,0.757738,,,,,,,,,,,,,,,,,,,,,,10,15,2,2024-10-31_12h31.05.850,uWM_experiment,2022.2.3,59.99678417
,,,,,,,,,,,,,,,,,,,,2,0,2,0,6,0,6,0,,,,,,,,,,,,,,,,,,,,,,,,,,,,,,,,,,,,,,,,,,,,,,,,,,,,,,,,,,,,,,,,,,,,,,0.049348945,,,,,,,,,,,,,,,,,,,,,,,,,,,,right,0,100,-30,70,1,892.8676616,892.8676616,892.8676616,None,None,1,1,0.4679771,,,,,,,,,,,,,,,,,,,,,,10,15,2,2024-10-31_12h31.05.850,uWM_experiment,2022.2.3,59.99678417
,,,,,,,,,,,,,,,,,,,,2,0,2,0,7,0,7,0,,,,,,,,,,,,,,,,,,,,,,,,,,,,,,,,,,,,,,,,,,,,,,,,,,,,,,,,,,,,,,,,,,,,,,0,,,,,,,,,,,,,,,,,,,,,,,,,,,,left,1,160,-30,130,0,898.8012589,898.8012589,898.8012589,None,None,1,1,0.6464891,,,,,,,,,,,,,,,,,,,,,,10,15,2,2024-10-31_12h31.05.850,uWM_experiment,2022.2.3,59.99678417
,,,,,,,,,,,,,,,,,,,,2,0,2,0,8,0,8,0,,,,,,,,,,,,,,,,,,,,,,,,,,,,,,,,,,,,,,,,,,,,,,,,,,,,,,,,,,,,,,,,,,,,,,0,,,,,,,,,,,,,,,,,,,,,,,,,,,,left,1,10,-30,-20,0,904.8348408,904.8348408,904.8348408,None,None,1,1,0.308915,,,,,,,,,,,,,,,,,,,,,,10,15,2,2024-10-31_12h31.05.850,uWM_experiment,2022.2.3,59.99678417
,,,,,,,,,,,,,,,,,,,,2,0,2,0,9,0,9,0,,,,,,,,,,,,,,,,,,,,,,,,,,,,,,,,,,,,,,,,,,,,,,,,,,,,,,,,,,,,,,,,,,,,,,0.059348945,,,,,,,,,,,,,,,,,,,,,,,,,,,,left,1,10,-30,-20,1,910.6684502,910.6684502,910.6684502,None,None,2,0,0.363328,,,,,,,,,,,,,,,,,,,,,,10,15,2,2024-10-31_12h31.05.850,uWM_experiment,2022.2.3,59.99678417
,,,,,,,,,,,,,,,,,,,,2,0,2,0,10,0,10,0,,,,,,,,,,,,,,,,,,,,,,,,,,,,,,,,,,,,,,,,,,,,,,,,,,,,,,,,,,,,,,,,,,,,,,0.049348945,,,,,,,,,,,,,,,,,,,,,,,,,,,,right,0,70,-30,40,1,916.552048,916.552048,916.552048,None,None,1,1,0.3516179,,,,,,,,,,,,,,,,,,,,,,10,15,2,2024-10-31_12h31.05.850,uWM_experiment,2022.2.3,59.99678417
,,,,,,,,,,,,,,,,,,,,2,0,2,0,11,0,11,0,,,,,,,,,,,,,,,,,,,,,,,,,,,,,,,,,,,,,,,,,,,,,,,,,,,,,,,,,,,,,,,,,,,,,,0.059348945,,,,,,,,,,,,,,,,,,,,,,,,,,,,right,0,40,-30,10,1,922.3856711,922.3856711,922.3856711,None,None,2,0,0.662079,,,,,,,,,,,,,,,,,,,,,,10,15,2,2024-10-31_12h31.05.850,uWM_experiment,2022.2.3,59.99678417
,,,,,,,,,,,,,,,,,,,,2,0,2,0,12,0,12,0,,,,,,,,,,,,,,,,,,,,,,,,,,,,,,,,,,,,,,,,,,,,,,,,,,,,,,,,,,,,,,,,,,,,,,0.049348945,,,,,,,,,,,,,,,,,,,,,,,,,,,,right,1,10,30,40,1,928.6026008,928.6026008,928.6026008,None,None,3,0,0.3571308,,,,,,,,,,,,,,,,,,,,,,10,15,2,2024-10-31_12h31.05.850,uWM_experiment,2022.2.3,59.99678417
,,,,,,,,,,,,,,,,,,,,2,0,2,0,13,0,13,0,,,,,,,,,,,,,,,,,,,,,,,,,,,,,,,,,,,,,,,,,,,,,,,,,,,,,,,,,,,,,,,,,,,,,,0,,,,,,,,,,,,,,,,,,,,,,,,,,,,left,0,130,30,160,0,934.3695235,934.3695235,934.3695235,None,None,1,1,0.3341618,,,,,,,,,,,,,,,,,,,,,,10,15,2,2024-10-31_12h31.05.850,uWM_experiment,2022.2.3,59.99678417
,,,,,,,,,,,,,,,,,,,,2,0,2,0,14,0,14,0,,,,,,,,,,,,,,,,,,,,,,,,,,,,,,,,,,,,,,,,,,,,,,,,,,,,,,,,,,,,,,,,,,,,,,0.039348945,,,,,,,,,,,,,,,,,,,,,,,,,,,,right,1,10,30,40,1,940.5531164,940.5531164,940.5531164,None,None,1,1,1.1505849,,,,,,,,,,,,,,,,,,,,,,10,15,2,2024-10-31_12h31.05.850,uWM_experiment,2022.2.3,59.99678417
,,,,,,,,,,,,,,,,,,,,2,0,2,0,15,0,15,0,,,,,,,,,,,,,,,,,,,,,,,,,,,,,,,,,,,,,,,,,,,,,,,,,,,,,,,,,,,,,,,,,,,,,,0.049348945,,,,,,,,,,,,,,,,,,,,,,,,,,,,left,0,70,30,100,1,947.0367518,947.0367518,947.0367518,None,None,1,1,0.4270496,,,,,,,,,,,,,,,,,,,,,,10,15,2,2024-10-31_12h31.05.850,uWM_experiment,2022.2.3,59.99678417
,,,,,,,,,,,,,,,,,,,,2,0,2,0,16,0,16,0,,,,,,,,,,,,,,,,,,,,,,,,,,,,,,,,,,,,,,,,,,,,,,,,,,,,,,,,,,,,,,,,,,,,,,0.1,,,,,,,,,,,,,,,,,,,,,,,,,,,,right,0,70,-30,40,2,953.0870229,953.0870229,953.0870229,None,None,4,0,0.376715,,,,,,,,,,,,,,,,,,,,,,10,15,2,2024-10-31_12h31.05.850,uWM_experiment,2022.2.3,59.99678417
,,,,,,,,,,,,,,,,,,,,2,0,2,0,17,0,17,0,,,,,,,,,,,,,,,,,,,,,,,,,,,,,,,,,,,,,,,,,,,,,,,,,,,,,,,,,,,,,,,,,,,,,,0.059348945,,,,,,,,,,,,,,,,,,,,,,,,,,,,right,1,160,30,190,1,958.853952,958.853952,958.853952,None,None,1,1,0.4257732,,,,,,,,,,,,,,,,,,,,,,10,15,2,2024-10-31_12h31.05.850,uWM_experiment,2022.2.3,59.99678417
,,,,,,,,,,,,,,,,,,,,2,0,2,0,18,0,18,0,,,,,,,,,,,,,,,,,,,,,,,,,,,,,,,,,,,,,,,,,,,,,,,,,,,,,,,,,,,,,,,,,,,,,,0.069348945,,,,,,,,,,,,,,,,,,,,,,,,,,,,left,1,10,-30,-20,1,964.7042014,964.7042014,964.7042014,None,None,3,0,0.3354952,,,,,,,,,,,,,,,,,,,,,,10,15,2,2024-10-31_12h31.05.850,uWM_experiment,2022.2.3,59.99678417
,,,,,,,,,,,,,,,,,,,,2,0,2,0,19,0,19,0,,,,,,,,,,,,,,,,,,,,,,,,,,,,,,,,,,,,,,,,,,,,,,,,,,,,,,,,,,,,,,,,,,,,,,0.059348945,,,,,,,,,,,,,,,,,,,,,,,,,,,,right,0,40,-30,10,1,970.4044459,970.4044459,970.4044459,None,None,1,1,0.3712896,,,,,,,,,,,,,,,,,,,,,,10,15,2,2024-10-31_12h31.05.850,uWM_experiment,2022.2.3,59.99678417
,,,,,,,,,,,,,,,,,,,,2,0,2,0,20,0,20,0,,,,,,,,,,,,,,,,,,,,,,,,,,,,,,,,,,,,,,,,,,,,,,,,,,,,,,,,,,,,,,,,,,,,,,0,,,,,,,,,,,,,,,,,,,,,,,,,,,,right,0,160,-30,130,0,976.5880723,976.5880723,976.5880723,None,None,1,1,1.2277096,,,,,,,,,,,,,,,,,,,,,,10,15,2,2024-10-31_12h31.05.850,uWM_experiment,2022.2.3,59.99678417
,,,,,,,,,,,,,,,,,,,,2,0,2,0,21,0,21,0,,,,,,,,,,,,,,,,,,,,,,,,,,,,,,,,,,,,,,,,,,,,,,,,,,,,,,,,,,,,,,,,,,,,,,0.069348945,,,,,,,,,,,,,,,,,,,,,,,,,,,,right,1,10,30,40,1,983.1717104,983.1717104,983.1717104,None,None,2,0,0.4840102,,,,,,,,,,,,,,,,,,,,,,10,15,2,2024-10-31_12h31.05.850,uWM_experiment,2022.2.3,59.99678417
,,,,,,,,,,,,,,,,,,,,2,0,2,0,22,0,22,0,,,,,,,,,,,,,,,,,,,,,,,,,,,,,,,,,,,,,,,,,,,,,,,,,,,,,,,,,,,,,,,,,,,,,,0.059348945,,,,,,,,,,,,,,,,,,,,,,,,,,,,right,1,10,30,40,1,989.0552903,989.0552903,989.0552903,None,None,2,0,0.4245028,,,,,,,,,,,,,,,,,,,,,,10,15,2,2024-10-31_12h31.05.850,uWM_experiment,2022.2.3,59.99678417
,,,,,,,,,,,,,,,,,,,,2,0,2,0,23,0,23,0,,,,,,,,,,,,,,,,,,,,,,,,,,,,,,,,,,,,,,,,,,,,,,,,,,,,,,,,,,,,,,,,,,,,,,0.049348945,,,,,,,,,,,,,,,,,,,,,,,,,,,,right,1,40,30,70,1,995.3222303,995.3222303,995.3222303,None,None,1,1,0.5255935,,,,,,,,,,,,,,,,,,,,,,10,15,2,2024-10-31_12h31.05.850,uWM_experiment,2022.2.3,59.99678417
,,,,,,,,,,,,,,,,,,,,2,0,2,0,,,,,0,0,0,0,,,,,,,,,,,,,,,,,,,,,,,,,,,,,,,,,,,,,,,,,,,,,,,,,,,,,,,,,,,,,,,,,,,,,,,,,,,,,,,,,,,,,,,,,,,,,,,,,,,,,,,,,,,,995.8722524,995.8722524,space,92.6956333,space,None,,1088.593081,1088.593081,8.0947869,,,,,,,,,,,,10,15,2,2024-10-31_12h31.05.850,uWM_experiment,2022.2.3,59.99678417
,,,,,,,,,,,,,,,,,,,,2,0,2,0,,,,,1,0,1,0,,,,,,,,,,,,,,,,,,,,,,,,,,,,,,,,,,,,,,,,,,,,,,,,,,,,,,,,,,,,,,,,,,,,,,,,,,,,,,,,,,,,,,,,,,,,,,,,,,,,,,,,,,,,,,,,,,,,,,,,,,,,,,,,,10,15,2,2024-10-31_12h31.05.850,uWM_experiment,2022.2.3,59.99678417
,,,,,,,,,,,,,,,,,,,,2,0,2,0,,,,,2,0,2,0,,,,,,,,,,,,,,,,,,,,,,,,,,,,,,,,,,,,,,,,,,,,,,,,,,,,,,,,,,,,,,,,,,,,,,,,,,,,,,,,,,,,,,,,,,,,,,,,,,,,,,,,,,,,,,,,,,,,,,,,,,,,,,,,,10,15,2,2024-10-31_12h31.05.850,uWM_experiment,2022.2.3,59.99678417
,,,,,,,,,,,,,,,,,,,,3,0,3,0,0,0,0,0,,,,,,,,,,,,,,,,,,,,,,,,,,,,,,,,,,,,,,,,,,,,,,,,,,,,,,,,,,,,,,,,,,,,,,0,,,,,,,,,,,,,,,,,,,,1096.710103,1097.410141,1097.710156,1098.410181,1098.710198,1099.410228,1099.410228,1099.726913,left,0,130,30,160,0,1104.24381,1104.24381,1104.24381,None,None,1,1,0.2840753,,,,,,,None,,,,,,,,,,,,,,,10,15,2,2024-10-31_12h31.05.850,uWM_experiment,2022.2.3,59.99678417
,,,,,,,,,,,,,,,,,,,,3,0,3,0,1,0,1,0,,,,,,,,,,,,,,,,,,,,,,,,,,,,,,,,,,,,,,,,,,,,,,,,,,,,,,,,,,,,,,,,,,,,,,0.1,,,,,,,,,,,,,,,,,,,,,,,,,,,,right,0,100,-30,70,2,1110.144076,1110.144076,1110.144076,None,None,4,0,0.8398437,,,,,,,,,,,,,,,,,,,,,,10,15,2,2024-10-31_12h31.05.850,uWM_experiment,2022.2.3,59.99678417
,,,,,,,,,,,,,,,,,,,,3,0,3,0,2,0,2,0,,,,,,,,,,,,,,,,,,,,,,,,,,,,,,,,,,,,,,,,,,,,,,,,,,,,,,,,,,,,,,,,,,,,,,0,,,,,,,,,,,,,,,,,,,,,,,,,,,,right,1,40,30,70,0,1116.377673,1116.377673,1116.377673,None,None,1,1,0.4462464,,,,,,,,,,,,,,,,,,,,,,10,15,2,2024-10-31_12h31.05.850,uWM_experiment,2022.2.3,59.99678417
,,,,,,,,,,,,,,,,,,,,3,0,3,0,3,0,3,0,,,,,,,,,,,,,,,,,,,,,,,,,,,,,,,,,,,,,,,,,,,,,,,,,,,,,,,,,,,,,,,,,,,,,,0.059348945,,,,,,,,,,,,,,,,,,,,,,,,,,,,left,0,130,30,160,1,1123.027953,1123.027953,1123.027953,None,None,1,1,0.8919938,,,,,,,,,,,,,,,,,,,,,,10,15,2,2024-10-31_12h31.05.850,uWM_experiment,2022.2.3,59.99678417
,,,,,,,,,,,,,,,,,,,,3,0,3,0,4,0,4,0,,,,,,,,,,,,,,,,,,,,,,,,,,,,,,,,,,,,,,,,,,,,,,,,,,,,,,,,,,,,,,,,,,,,,,0.069348945,,,,,,,,,,,,,,,,,,,,,,,,,,,,right,0,70,-30,40,1,1129.444938,1129.444938,1129.444938,None,None,1,1,7.9149365,,,,,,,,,,,,,,,,,,,,,,10,15,2,2024-10-31_12h31.05.850,uWM_experiment,2022.2.3,59.99678417
,,,,,,,,,,,,,,,,,,,,3,0,3,0,5,0,5,0,,,,,,,,,,,,,,,,,,,,,,,,,,,,,,,,,,,,,,,,,,,,,,,,,,,,,,,,,,,,,,,,,,,,,,0.079348945,,,,,,,,,,,,,,,,,,,,,,,,,,,,left,0,130,30,160,1,1143.028869,1143.028869,1143.028869,None,None,1,1,0.5069861,,,,,,,,,,,,,,,,,,,,,,10,15,2,2024-10-31_12h31.05.850,uWM_experiment,2022.2.3,59.99678417
,,,,,,,,,,,,,,,,,,,,3,0,3,0,6,0,6,0,,,,,,,,,,,,,,,,,,,,,,,,,,,,,,,,,,,,,,,,,,,,,,,,,,,,,,,,,,,,,,,,,,,,,,0,,,,,,,,,,,,,,,,,,,,,,,,,,,,left,1,130,-30,100,0,1149.462494,1149.462494,1149.462494,None,None,1,1,0.4413797,,,,,,,,,,,,,,,,,,,,,,10,15,2,2024-10-31_12h31.05.850,uWM_experiment,2022.2.3,59.99678417
,,,,,,,,,,,,,,,,,,,,3,0,3,0,7,0,7,0,,,,,,,,,,,,,,,,,,,,,,,,,,,,,,,,,,,,,,,,,,,,,,,,,,,,,,,,,,,,,,,,,,,,,,0.089348945,,,,,,,,,,,,,,,,,,,,,,,,,,,,left,1,130,-30,100,1,1156.062797,1156.062797,1156.062797,None,None,1,1,0.6250821,,,,,,,,,,,,,,,,,,,,,,10,15,2,2024-10-31_12h31.05.850,uWM_experiment,2022.2.3,59.99678417
,,,,,,,,,,,,,,,,,,,,3,0,3,0,8,0,8,0,,,,,,,,,,,,,,,,,,,,,,,,,,,,,,,,,,,,,,,,,,,,,,,,,,,,,,,,,,,,,,,,,,,,,,0.099348945,,,,,,,,,,,,,,,,,,,,,,,,,,,,left,0,70,30,100,1,1162.81308,1162.81308,1162.81308,None,None,1,1,0.5547122,,,,,,,,,,,,,,,,,,,,,,10,15,2,2024-10-31_12h31.05.850,uWM_experiment,2022.2.3,59.99678417
,,,,,,,,,,,,,,,,,,,,3,0,3,0,9,0,9,0,,,,,,,,,,,,,,,,,,,,,,,,,,,,,,,,,,,,,,,,,,,,,,,,,,,,,,,,,,,,,,,,,,,,,,0,,,,,,,,,,,,,,,,,,,,,,,,,,,,left,1,130,-30,100,0,1169.330056,1169.330056,1169.330056,None,None,1,1,0.3657617,,,,,,,,,,,,,,,,,,,,,,10,15,2,2024-10-31_12h31.05.850,uWM_experiment,2022.2.3,59.99678417
,,,,,,,,,,,,,,,,,,,,3,0,3,0,10,0,10,0,,,,,,,,,,,,,,,,,,,,,,,,,,,,,,,,,,,,,,,,,,,,,,,,,,,,,,,,,,,,,,,,,,,,,,0,,,,,,,,,,,,,,,,,,,,,,,,,,,,right,1,10,30,40,0,1175.363656,1175.363656,1175.363656,None,None,1,1,0.7641938,,,,,,,,,,,,,,,,,,,,,,10,15,2,2024-10-31_12h31.05.850,uWM_experiment,2022.2.3,59.99678417
,,,,,,,,,,,,,,,,,,,,3,0,3,0,11,0,11,0,,,,,,,,,,,,,,,,,,,,,,,,,,,,,,,,,,,,,,,,,,,,,,,,,,,,,,,,,,,,,,,,,,,,,,0.109348945,,,,,,,,,,,,,,,,,,,,,,,,,,,,left,1,160,-30,130,1,1181.880603,1181.880603,1181.880603,None,None,3,0,0.3753224,,,,,,,,,,,,,,,,,,,,,,10,15,2,2024-10-31_12h31.05.850,uWM_experiment,2022.2.3,59.99678417
,,,,,,,,,,,,,,,,,,,,3,0,3,0,12,0,12,0,,,,,,,,,,,,,,,,,,,,,,,,,,,,,,,,,,,,,,,,,,,,,,,,,,,,,,,,,,,,,,,,,,,,,,0.099348945,,,,,,,,,,,,,,,,,,,,,,,,,,,,left,0,100,30,130,1,1187.747523,1187.747523,1187.747523,None,None,2,0,0.3163444,,,,,,,,,,,,,,,,,,,,,,10,15,2,2024-10-31_12h31.05.850,uWM_experiment,2022.2.3,59.99678417
,,,,,,,,,,,,,,,,,,,,3,0,3,0,13,0,13,0,,,,,,,,,,,,,,,,,,,,,,,,,,,,,,,,,,,,,,,,,,,,,,,,,,,,,,,,,,,,,,,,,,,,,,0.089348945,,,,,,,,,,,,,,,,,,,,,,,,,,,,right,1,160,30,190,1,1193.397803,1193.397803,1193.397803,None,None,1,1,0.4260417,,,,,,,,,,,,,,,,,,,,,,10,15,2,2024-10-31_12h31.05.850,uWM_experiment,2022.2.3,59.99678417
,,,,,,,,,,,,,,,,,,,,3,0,3,0,14,0,14,0,,,,,,,,,,,,,,,,,,,,,,,,,,,,,,,,,,,,,,,,,,,,,,,,,,,,,,,,,,,,,,,,,,,,,,0.099348945,,,,,,,,,,,,,,,,,,,,,,,,,,,,left,0,130,30,160,1,1199.49806,1199.49806,1199.49806,None,None,1,1,0.3979021,,,,,,,,,,,,,,,,,,,,,,10,15,2,2024-10-31_12h31.05.850,uWM_experiment,2022.2.3,59.99678417
,,,,,,,,,,,,,,,,,,,,3,0,3,0,15,0,15,0,,,,,,,,,,,,,,,,,,,,,,,,,,,,,,,,,,,,,,,,,,,,,,,,,,,,,,,,,,,,,,,,,,,,,,0.109348945,,,,,,,,,,,,,,,,,,,,,,,,,,,,right,1,10,30,40,1,1205.73168,1205.73168,1205.73168,None,None,2,0,0.4521527,,,,,,,,,,,,,,,,,,,,,,10,15,2,2024-10-31_12h31.05.850,uWM_experiment,2022.2.3,59.99678417
,,,,,,,,,,,,,,,,,,,,3,0,3,0,16,0,16,0,,,,,,,,,,,,,,,,,,,,,,,,,,,,,,,,,,,,,,,,,,,,,,,,,,,,,,,,,,,,,,,,,,,,,,0.099348945,,,,,,,,,,,,,,,,,,,,,,,,,,,,left,1,10,-30,-20,1,1211.631942,1211.631942,1211.631942,None,None,2,0,0.312031,,,,,,,,,,,,,,,,,,,,,,10,15,2,2024-10-31_12h31.05.850,uWM_experiment,2022.2.3,59.99678417
,,,,,,,,,,,,,,,,,,,,3,0,3,0,17,0,17,0,,,,,,,,,,,,,,,,,,,,,,,,,,,,,,,,,,,,,,,,,,,,,,,,,,,,,,,,,,,,,,,,,,,,,,0.089348945,,,,,,,,,,,,,,,,,,,,,,,,,,,,left,1,10,-30,-20,1,1217.382192,1217.382192,1217.382192,None,None,2,0,0.3536834,,,,,,,,,,,,,,,,,,,,,,10,15,2,2024-10-31_12h31.05.850,uWM_experiment,2022.2.3,59.99678417
,,,,,,,,,,,,,,,,,,,,3,0,3,0,18,0,18,0,,,,,,,,,,,,,,,,,,,,,,,,,,,,,,,,,,,,,,,,,,,,,,,,,,,,,,,,,,,,,,,,,,,,,,0.079348945,,,,,,,,,,,,,,,,,,,,,,,,,,,,right,0,70,-30,40,1,1223.115794,1223.115794,1223.115794,None,None,1,1,0.3161282,,,,,,,,,,,,,,,,,,,,,,10,15,2,2024-10-31_12h31.05.850,uWM_experiment,2022.2.3,59.99678417
,,,,,,,,,,,,,,,,,,,,3,0,3,0,19,0,19,0,,,,,,,,,,,,,,,,,,,,,,,,,,,,,,,,,,,,,,,,,,,,,,,,,,,,,,,,,,,,,,,,,,,,,,0.1,,,,,,,,,,,,,,,,,,,,,,,,,,,,right,1,10,30,40,2,1229.232729,1229.232729,1229.232729,None,None,4,0,0.6391469,,,,,,,,,,,,,,,,,,,,,,10,15,2,2024-10-31_12h31.05.850,uWM_experiment,2022.2.3,59.99678417
,,,,,,,,,,,,,,,,,,,,3,0,3,0,20,0,20,0,,,,,,,,,,,,,,,,,,,,,,,,,,,,,,,,,,,,,,,,,,,,,,,,,,,,,,,,,,,,,,,,,,,,,,0.089348945,,,,,,,,,,,,,,,,,,,,,,,,,,,,right,0,40,-30,10,1,1235.299682,1235.299682,1235.299682,None,None,2,0,0.4122433,,,,,,,,,,,,,,,,,,,,,,10,15,2,2024-10-31_12h31.05.850,uWM_experiment,2022.2.3,59.99678417
,,,,,,,,,,,,,,,,,,,,3,0,3,0,21,0,21,0,,,,,,,,,,,,,,,,,,,,,,,,,,,,,,,,,,,,,,,,,,,,,,,,,,,,,,,,,,,,,,,,,,,,,,0.079348945,,,,,,,,,,,,,,,,,,,,,,,,,,,,right,1,160,30,190,1,1241.183286,1241.183286,1241.183286,None,None,2,0,0.4166661,,,,,,,,,,,,,,,,,,,,,,10,15,2,2024-10-31_12h31.05.850,uWM_experiment,2022.2.3,59.99678417
,,,,,,,,,,,,,,,,,,,,3,0,3,0,22,0,22,0,,,,,,,,,,,,,,,,,,,,,,,,,,,,,,,,,,,,,,,,,,,,,,,,,,,,,,,,,,,,,,,,,,,,,,0.069348945,,,,,,,,,,,,,,,,,,,,,,,,,,,,right,0,70,-30,40,1,1247.133534,1247.133534,1247.133534,None,None,2,0,0.3623928,,,,,,,,,,,,,,,,,,,,,,10,15,2,2024-10-31_12h31.05.850,uWM_experiment,2022.2.3,59.99678417
,,,,,,,,,,,,,,,,,,,,3,0,3,0,23,0,23,0,,,,,,,,,,,,,,,,,,,,,,,,,,,,,,,,,,,,,,,,,,,,,,,,,,,,,,,,,,,,,,,,,,,,,,0.059348945,,,,,,,,,,,,,,,,,,,,,,,,,,,,right,0,40,-30,10,1,1253.033779,1253.033779,1253.033779,None,None,2,0,0.3741383,,,,,,,,,,,,,,,,,,,,,,10,15,2,2024-10-31_12h31.05.850,uWM_experiment,2022.2.3,59.99678417
,,,,,,,,,,,,,,,,,,,,3,0,3,0,,,,,0,0,0,0,,,,,,,,,,,,,,,,,,,,,,,,,,,,,,,,,,,,,,,,,,,,,,,,,,,,,,,,,,,,,,,,,,,,,,,,,,,,,,,,,,,,,,,,,,,,,,,,,,,,,,,,,,,,1253.433807,1253.433807,space,4.9741666,None,None,,,,,,,,,,,,,,,,10,15,2,2024-10-31_12h31.05.850,uWM_experiment,2022.2.3,59.99678417
,,,,,,,,,,,,,,,,,,,,3,0,3,0,,,,,1,0,1,0,,,,,,,,,,,,,,,,,,,,,,,,,,,,,,,,,,,,,,,,,,,,,,,,,,,,,,,,,,,,,,,,,,,,,,,,,,,,,,,,,,,,,,,,,,,,,,,,,,,,,,,,,,,,,,,,,,,,,,,,,,,,,,,,,10,15,2,2024-10-31_12h31.05.850,uWM_experiment,2022.2.3,59.99678417
,,,,,,,,,,,,,,,,,,,,3,0,3,0,,,,,2,0,2,0,,,,,,,,,,,,,,,,,,,,,,,,,,,,,,,,,,,,,,,,,,,,,,,,,,,,,,,,,,,,,,,,,,,,,,,,,,,,,,,,,,,,,,,,,,,,,,,,,,,,,,,,,,,,,,,,,,,,,,,,,,,,,,,,,10,15,2,2024-10-31_12h31.05.850,uWM_experiment,2022.2.3,59.99678417
,,,,,,,,,,,,,,,,,,,,4,0,4,0,0,0,0,0,,,,,,,,,,,,,,,,,,,,,,,,,,,,,,,,,,,,,,,,,,,,,,,,,,,,,,,,,,,,,,,,,,,,,,0.049348945,,,,,,,,,,,,,,,,,,,,1258.434038,1259.134067,1259.43408,1260.134111,1260.434187,1261.134156,1261.134156,1261.450861,left,1,10,-30,-20,1,1265.734384,1265.734384,1265.734384,None,None,1,1,0.3855222,,,,,,,None,,,,,,,,,,,,,,,10,15,2,2024-10-31_12h31.05.850,uWM_experiment,2022.2.3,59.99678417
,,,,,,,,,,,,,,,,,,,,4,0,4,0,1,0,1,0,,,,,,,,,,,,,,,,,,,,,,,,,,,,,,,,,,,,,,,,,,,,,,,,,,,,,,,,,,,,,,,,,,,,,,0.059348945,,,,,,,,,,,,,,,,,,,,,,,,,,,,left,0,100,30,130,1,1271.584631,1271.584631,1271.584631,None,None,1,1,0.3032542,,,,,,,,,,,,,,,,,,,,,,10,15,2,2024-10-31_12h31.05.850,uWM_experiment,2022.2.3,59.99678417
,,,,,,,,,,,,,,,,,,,,4,0,4,0,2,0,2,0,,,,,,,,,,,,,,,,,,,,,,,,,,,,,,,,,,,,,,,,,,,,,,,,,,,,,,,,,,,,,,,,,,,,,,0.069348945,,,,,,,,,,,,,,,,,,,,,,,,,,,,right,1,160,30,190,1,1277.284887,1277.284887,1277.284887,None,None,2,0,0.3630813,,,,,,,,,,,,,,,,,,,,,,10,15,2,2024-10-31_12h31.05.850,uWM_experiment,2022.2.3,59.99678417
,,,,,,,,,,,,,,,,,,,,4,0,4,0,3,0,3,0,,,,,,,,,,,,,,,,,,,,,,,,,,,,,,,,,,,,,,,,,,,,,,,,,,,,,,,,,,,,,,,,,,,,,,0.059348945,,,,,,,,,,,,,,,,,,,,,,,,,,,,left,0,130,30,160,1,1283.068479,1283.068479,1283.068479,None,None,1,1,0.34753,,,,,,,,,,,,,,,,,,,,,,10,15,2,2024-10-31_12h31.05.850,uWM_experiment,2022.2.3,59.99678417
,,,,,,,,,,,,,,,,,,,,4,0,4,0,4,0,4,0,,,,,,,,,,,,,,,,,,,,,,,,,,,,,,,,,,,,,,,,,,,,,,,,,,,,,,,,,,,,,,,,,,,,,,0.069348945,,,,,,,,,,,,,,,,,,,,,,,,,,,,right,0,70,-30,40,1,1288.752099,1288.752099,1288.752099,None,None,1,1,0.3837981,,,,,,,,,,,,,,,,,,,,,,10,15,2,2024-10-31_12h31.05.850,uWM_experiment,2022.2.3,59.99678417
,,,,,,,,,,,,,,,,,,,,4,0,4,0,5,0,5,0,,,,,,,,,,,,,,,,,,,,,,,,,,,,,,,,,,,,,,,,,,,,,,,,,,,,,,,,,,,,,,,,,,,,,,0.079348945,,,,,,,,,,,,,,,,,,,,,,,,,,,,right,1,160,30,190,1,1294.502342,1294.502342,1294.502342,None,None,3,0,0.8016054,,,,,,,,,,,,,,,,,,,,,,10,15,2,2024-10-31_12h31.05.850,uWM_experiment,2022.2.3,59.99678417
,,,,,,,,,,,,,,,,,,,,4,0,4,0,6,0,6,0,,,,,,,,,,,,,,,,,,,,,,,,,,,,,,,,,,,,,,,,,,,,,,,,,,,,,,,,,,,,,,,,,,,,,,0.069348945,,,,,,,,,,,,,,,,,,,,,,,,,,,,right,0,70,-30,40,1,1300.685943,1300.685943,1300.685943,None,None,1,1,0.3219071,,,,,,,,,,,,,,,,,,,,,,10,15,2,2024-10-31_12h31.05.850,uWM_experiment,2022.2.3,59.99678417
,,,,,,,,,,,,,,,,,,,,4,0,4,0,7,0,7,0,,,,,,,,,,,,,,,,,,,,,,,,,,,,,,,,,,,,,,,,,,,,,,,,,,,,,,,,,,,,,,,,,,,,,,0.079348945,,,,,,,,,,,,,,,,,,,,,,,,,,,,left,0,100,30,130,1,1306.736225,1306.736225,1306.736225,None,None,1,1,0.327747,,,,,,,,,,,,,,,,,,,,,,10,15,2,2024-10-31_12h31.05.850,uWM_experiment,2022.2.3,59.99678417
,,,,,,,,,,,,,,,,,,,,4,0,4,0,8,0,8,0,,,,,,,,,,,,,,,,,,,,,,,,,,,,,,,,,,,,,,,,,,,,,,,,,,,,,,,,,,,,,,,,,,,,,,0.089348945,,,,,,,,,,,,,,,,,,,,,,,,,,,,right,0,100,-30,70,1,1312.653153,1312.653153,1312.653153,None,None,1,1,0.4907897,,,,,,,,,,,,,,,,,,,,,,10,15,2,2024-10-31_12h31.05.850,uWM_experiment,2022.2.3,59.99678417
,,,,,,,,,,,,,,,,,,,,4,0,4,0,9,0,9,0,,,,,,,,,,,,,,,,,,,,,,,,,,,,,,,,,,,,,,,,,,,,,,,,,,,,,,,,,,,,,,,,,,,,,,0,,,,,,,,,,,,,,,,,,,,,,,,,,,,left,1,160,-30,130,0,1318.536742,1318.536742,1318.536742,None,None,1,1,0.2871188,,,,,,,,,,,,,,,,,,,,,,10,15,2,2024-10-31_12h31.05.850,uWM_experiment,2022.2.3,59.99678417
,,,,,,,,,,,,,,,,,,,,4,0,4,0,10,0,10,0,,,,,,,,,,,,,,,,,,,,,,,,,,,,,,,,,,,,,,,,,,,,,,,,,,,,,,,,,,,,,,,,,,,,,,0.099348945,,,,,,,,,,,,,,,,,,,,,,,,,,,,left,1,160,-30,130,1,1324.287014,1324.287014,1324.287014,None,None,3,0,0.4649621,,,,,,,,,,,,,,,,,,,,,,10,15,2,2024-10-31_12h31.05.850,uWM_experiment,2022.2.3,59.99678417
,,,,,,,,,,,,,,,,,,,,4,0,4,0,11,0,11,0,,,,,,,,,,,,,,,,,,,,,,,,,,,,,,,,,,,,,,,,,,,,,,,,,,,,,,,,,,,,,,,,,,,,,,0.089348945,,,,,,,,,,,,,,,,,,,,,,,,,,,,left,0,100,30,130,1,1330.187258,1330.187258,1330.187258,None,None,2,0,0.3646868,,,,,,,,,,,,,,,,,,,,,,10,15,2,2024-10-31_12h31.05.850,uWM_experiment,2022.2.3,59.99678417
,,,,,,,,,,,,,,,,,,,,4,0,4,0,12,0,12,0,,,,,,,,,,,,,,,,,,,,,,,,,,,,,,,,,,,,,,,,,,,,,,,,,,,,,,,,,,,,,,,,,,,,,,0,,,,,,,,,,,,,,,,,,,,,,,,,,,,right,1,160,30,190,0,1335.920842,1335.920842,1335.920842,None,None,1,1,0.335027,,,,,,,,,,,,,,,,,,,,,,10,15,2,2024-10-31_12h31.05.850,uWM_experiment,2022.2.3,59.99678417
,,,,,,,,,,,,,,,,,,,,4,0,4,0,13,0,13,0,,,,,,,,,,,,,,,,,,,,,,,,,,,,,,,,,,,,,,,,,,,,,,,,,,,,,,,,,,,,,,,,,,,,,,0.079348945,,,,,,,,,,,,,,,,,,,,,,,,,,,,left,1,160,-30,130,1,1341.7878,1341.7878,1341.7878,None,None,2,0,0.3161069,,,,,,,,,,,,,,,,,,,,,,10,15,2,2024-10-31_12h31.05.850,uWM_experiment,2022.2.3,59.99678417
,,,,,,,,,,,,,,,,,,,,4,0,4,0,14,0,14,0,,,,,,,,,,,,,,,,,,,,,,,,,,,,,,,,,,,,,,,,,,,,,,,,,,,,,,,,,,,,,,,,,,,,,,0.069348945,,,,,,,,,,,,,,,,,,,,,,,,,,,,left,0,70,30,100,1,1347.554698,1347.554698,1347.554698,None,None,1,1,0.4053699,,,,,,,,,,,,,,,,,,,,,,10,15,2,2024-10-31_12h31.05.850,uWM_experiment,2022.2.3,59.99678417
,,,,,,,,,,,,,,,,,,,,4,0,4,0,15,0,15,0,,,,,,,,,,,,,,,,,,,,,,,,,,,,,,,,,,,,,,,,,,,,,,,,,,,,,,,,,,,,,,,,,,,,,,0.079348945,,,,,,,,,,,,,,,,,,,,,,,,,,,,right,0,40,-30,10,1,1353.404978,1353.404978,1353.404978,None,None,2,0,0.4910649,,,,,,,,,,,,,,,,,,,,,,10,15,2,2024-10-31_12h31.05.850,uWM_experiment,2022.2.3,59.99678417
,,,,,,,,,,,,,,,,,,,,4,0,4,0,16,0,16,0,,,,,,,,,,,,,,,,,,,,,,,,,,,,,,,,,,,,,,,,,,,,,,,,,,,,,,,,,,,,,,,,,,,,,,0,,,,,,,,,,,,,,,,,,,,,,,,,,,,right,0,40,-30,10,0,1359.255233,1359.255233,1359.255233,None,None,1,1,0.5127302,,,,,,,,,,,,,,,,,,,,,,10,15,2,2024-10-31_12h31.05.850,uWM_experiment,2022.2.3,59.99678417
,,,,,,,,,,,,,,,,,,,,4,0,4,0,17,0,17,0,,,,,,,,,,,,,,,,,,,,,,,,,,,,,,,,,,,,,,,,,,,,,,,,,,,,,,,,,,,,,,,,,,,,,,0.069348945,,,,,,,,,,,,,,,,,,,,,,,,,,,,right,1,160,30,190,1,1365.188843,1365.188843,1365.188843,None,None,2,0,0.2831346,,,,,,,,,,,,,,,,,,,,,,10,15,2,2024-10-31_12h31.05.850,uWM_experiment,2022.2.3,59.99678417
,,,,,,,,,,,,,,,,,,,,4,0,4,0,18,0,18,0,,,,,,,,,,,,,,,,,,,,,,,,,,,,,,,,,,,,,,,,,,,,,,,,,,,,,,,,,,,,,,,,,,,,,,0.059348945,,,,,,,,,,,,,,,,,,,,,,,,,,,,left,1,10,-30,-20,1,1370.789063,1370.789063,1370.789063,None,None,2,0,0.442881,,,,,,,,,,,,,,,,,,,,,,10,15,2,2024-10-31_12h31.05.850,uWM_experiment,2022.2.3,59.99678417
,,,,,,,,,,,,,,,,,,,,4,0,4,0,19,0,19,0,,,,,,,,,,,,,,,,,,,,,,,,,,,,,,,,,,,,,,,,,,,,,,,,,,,,,,,,,,,,,,,,,,,,,,0.049348945,,,,,,,,,,,,,,,,,,,,,,,,,,,,right,1,10,30,40,1,1376.789372,1376.789372,1376.789372,None,None,1,1,0.4586288,,,,,,,,,,,,,,,,,,,,,,10,15,2,2024-10-31_12h31.05.850,uWM_experiment,2022.2.3,59.99678417
,,,,,,,,,,,,,,,,,,,,4,0,4,0,20,0,20,0,,,,,,,,,,,,,,,,,,,,,,,,,,,,,,,,,,,,,,,,,,,,,,,,,,,,,,,,,,,,,,,,,,,,,,0,,,,,,,,,,,,,,,,,,,,,,,,,,,,left,0,130,30,160,0,1382.923,1382.923,1382.923,None,None,1,1,0.380942,,,,,,,,,,,,,,,,,,,,,,10,15,2,2024-10-31_12h31.05.850,uWM_experiment,2022.2.3,59.99678417
,,,,,,,,,,,,,,,,,,,,4,0,4,0,21,0,21,0,,,,,,,,,,,,,,,,,,,,,,,,,,,,,,,,,,,,,,,,,,,,,,,,,,,,,,,,,,,,,,,,,,,,,,0.059348945,,,,,,,,,,,,,,,,,,,,,,,,,,,,left,1,160,-30,130,1,1388.639875,1388.639875,1388.639875,None,None,1,1,0.3441696,,,,,,,,,,,,,,,,,,,,,,10,15,2,2024-10-31_12h31.05.850,uWM_experiment,2022.2.3,59.99678417
,,,,,,,,,,,,,,,,,,,,4,0,4,0,22,0,22,0,,,,,,,,,,,,,,,,,,,,,,,,,,,,,,,,,,,,,,,,,,,,,,,,,,,,,,,,,,,,,,,,,,,,,,0,,,,,,,,,,,,,,,,,,,,,,,,,,,,right,0,100,-30,70,0,1394.490131,1394.490131,1394.490131,None,None,1,1,0.5338368,,,,,,,,,,,,,,,,,,,,,,10,15,2,2024-10-31_12h31.05.850,uWM_experiment,2022.2.3,59.99678417
,,,,,,,,,,,,,,,,,,,,4,0,4,0,23,0,23,0,,,,,,,,,,,,,,,,,,,,,,,,,,,,,,,,,,,,,,,,,,,,,,,,,,,,,,,,,,,,,,,,,,,,,,0.1,,,,,,,,,,,,,,,,,,,,,,,,,,,,left,1,10,-30,-20,2,1400.690435,1400.690435,1400.690435,None,None,4,0,0.4455918,,,,,,,,,,,,,,,,,,,,,,10,15,2,2024-10-31_12h31.05.850,uWM_experiment,2022.2.3,59.99678417
,,,,,,,,,,,,,,,,,,,,4,0,4,0,,,,,0,0,0,0,,,,,,,,,,,,,,,,,,,,,,,,,,,,,,,,,,,,,,,,,,,,,,,,,,,,,,,,,,,,,,,,,,,,,,,,,,,,,,,,,,,,,,,,,,,,,,,,,,,,,,,,,,,,1401.15711,1401.15711,space,72.0990084,None,None,,,,,,,,,,,,,,,,10,15,2,2024-10-31_12h31.05.850,uWM_experiment,2022.2.3,59.99678417
,,,,,,,,,,,,,,,,,,,,4,0,4,0,,,,,1,0,1,0,,,,,,,,,,,,,,,,,,,,,,,,,,,,,,,,,,,,,,,,,,,,,,,,,,,,,,,,,,,,,,,,,,,,,,,,,,,,,,,,,,,,,,,,,,,,,,,,,,,,,,,,,,,,,,,,,,,,,,,,,,,,,,,,,10,15,2,2024-10-31_12h31.05.850,uWM_experiment,2022.2.3,59.99678417
,,,,,,,,,,,,,,,,,,,,4,0,4,0,,,,,2,0,2,0,,,,,,,,,,,,,,,,,,,,,,,,,,,,,,,,,,,,,,,,,,,,,,,,,,,,,,,,,,,,,,,,,,,,,,,,,,,,,,,,,,,,,,,,,,,,,,,,,,,,,,,,,,,,,,,,,,,,,,,,,,,,,,,,,10,15,2,2024-10-31_12h31.05.850,uWM_experiment,2022.2.3,59.99678417
,,,,,,,,,,,,,,,,,,,,5,0,5,0,0,0,0,0,,,,,,,,,,,,,,,,,,,,,,,,,,,,,,,,,,,,,,,,,,,,,,,,,,,,,,,,,,,,,,,,,,,,,,0.069348945,,,,,,,,,,,,,,,,,,,,1473.277009,1473.977048,1474.277057,1474.977077,1475.277091,1475.977111,1475.977111,1476.293807,left,1,130,-30,100,1,1480.577329,1480.577329,1480.577329,None,None,1,1,0.5186842,,,,,,,None,,,,,,,,,,,,,,,10,15,2,2024-10-31_12h31.05.850,uWM_experiment,2022.2.3,59.99678417
,,,,,,,,,,,,,,,,,,,,5,0,5,0,1,0,1,0,,,,,,,,,,,,,,,,,,,,,,,,,,,,,,,,,,,,,,,,,,,,,,,,,,,,,,,,,,,,,,,,,,,,,,0.079348945,,,,,,,,,,,,,,,,,,,,,,,,,,,,left,1,130,-30,100,1,1486.494269,1486.494269,1486.494269,None,None,1,1,0.4499262,,,,,,,,,,,,,,,,,,,,,,10,15,2,2024-10-31_12h31.05.850,uWM_experiment,2022.2.3,59.99678417
,,,,,,,,,,,,,,,,,,,,5,0,5,0,2,0,2,0,,,,,,,,,,,,,,,,,,,,,,,,,,,,,,,,,,,,,,,,,,,,,,,,,,,,,,,,,,,,,,,,,,,,,,0.1,,,,,,,,,,,,,,,,,,,,,,,,,,,,right,0,40,-30,10,2,1492.59453,1492.59453,1492.59453,None,None,4,0,0.8774941,,,,,,,,,,,,,,,,,,,,,,10,15,2,2024-10-31_12h31.05.850,uWM_experiment,2022.2.3,59.99678417
,,,,,,,,,,,,,,,,,,,,5,0,5,0,3,0,3,0,,,,,,,,,,,,,,,,,,,,,,,,,,,,,,,,,,,,,,,,,,,,,,,,,,,,,,,,,,,,,,,,,,,,,,0,,,,,,,,,,,,,,,,,,,,,,,,,,,,left,1,10,-30,-20,0,1498.894828,1498.894828,1498.894828,None,None,1,1,0.2812601,,,,,,,,,,,,,,,,,,,,,,10,15,2,2024-10-31_12h31.05.850,uWM_experiment,2022.2.3,59.99678417
,,,,,,,,,,,,,,,,,,,,5,0,5,0,4,0,4,0,,,,,,,,,,,,,,,,,,,,,,,,,,,,,,,,,,,,,,,,,,,,,,,,,,,,,,,,,,,,,,,,,,,,,,0.089348945,,,,,,,,,,,,,,,,,,,,,,,,,,,,left,1,10,-30,-20,1,1504.578421,1504.578421,1504.578421,None,None,3,0,0.4695986,,,,,,,,,,,,,,,,,,,,,,10,15,2,2024-10-31_12h31.05.850,uWM_experiment,2022.2.3,59.99678417
,,,,,,,,,,,,,,,,,,,,5,0,5,0,5,0,5,0,,,,,,,,,,,,,,,,,,,,,,,,,,,,,,,,,,,,,,,,,,,,,,,,,,,,,,,,,,,,,,,,,,,,,,0.079348945,,,,,,,,,,,,,,,,,,,,,,,,,,,,right,0,70,-30,40,1,1510.478679,1510.478679,1510.478679,None,None,2,0,0.3453811,,,,,,,,,,,,,,,,,,,,,,10,15,2,2024-10-31_12h31.05.850,uWM_experiment,2022.2.3,59.99678417
,,,,,,,,,,,,,,,,,,,,5,0,5,0,6,0,6,0,,,,,,,,,,,,,,,,,,,,,,,,,,,,,,,,,,,,,,,,,,,,,,,,,,,,,,,,,,,,,,,,,,,,,,0.069348945,,,,,,,,,,,,,,,,,,,,,,,,,,,,right,1,160,30,190,1,1516.17893,1516.17893,1516.17893,None,None,2,0,0.3491323,,,,,,,,,,,,,,,,,,,,,,10,15,2,2024-10-31_12h31.05.850,uWM_experiment,2022.2.3,59.99678417
,,,,,,,,,,,,,,,,,,,,5,0,5,0,7,0,7,0,,,,,,,,,,,,,,,,,,,,,,,,,,,,,,,,,,,,,,,,,,,,,,,,,,,,,,,,,,,,,,,,,,,,,,0.059348945,,,,,,,,,,,,,,,,,,,,,,,,,,,,left,1,160,-30,130,1,1522.045873,1522.045873,1522.045873,None,None,2,0,0.3461945,,,,,,,,,,,,,,,,,,,,,,10,15,2,2024-10-31_12h31.05.850,uWM_experiment,2022.2.3,59.99678417
,,,,,,,,,,,,,,,,,,,,5,0,5,0,8,0,8,0,,,,,,,,,,,,,,,,,,,,,,,,,,,,,,,,,,,,,,,,,,,,,,,,,,,,,,,,,,,,,,,,,,,,,,0.049348945,,,,,,,,,,,,,,,,,,,,,,,,,,,,left,0,70,30,100,1,1527.796108,1527.796108,1527.796108,None,None,1,1,0.2599585,,,,,,,,,,,,,,,,,,,,,,10,15,2,2024-10-31_12h31.05.850,uWM_experiment,2022.2.3,59.99678417
,,,,,,,,,,,,,,,,,,,,5,0,5,0,9,0,9,0,,,,,,,,,,,,,,,,,,,,,,,,,,,,,,,,,,,,,,,,,,,,,,,,,,,,,,,,,,,,,,,,,,,,,,0.059348945,,,,,,,,,,,,,,,,,,,,,,,,,,,,right,1,160,30,190,1,1533.379714,1533.379714,1533.379714,None,None,2,0,0.3564055,,,,,,,,,,,,,,,,,,,,,,10,15,2,2024-10-31_12h31.05.850,uWM_experiment,2022.2.3,59.99678417
,,,,,,,,,,,,,,,,,,,,5,0,5,0,10,0,10,0,,,,,,,,,,,,,,,,,,,,,,,,,,,,,,,,,,,,,,,,,,,,,,,,,,,,,,,,,,,,,,,,,,,,,,0.049348945,,,,,,,,,,,,,,,,,,,,,,,,,,,,right,1,160,30,190,1,1539.296636,1539.296636,1539.296636,None,None,1,1,0.3435056,,,,,,,,,,,,,,,,,,,,,,10,15,2,2024-10-31_12h31.05.850,uWM_experiment,2022.2.3,59.99678417
,,,,,,,,,,,,,,,,,,,,5,0,5,0,11,0,11,0,,,,,,,,,,,,,,,,,,,,,,,,,,,,,,,,,,,,,,,,,,,,,,,,,,,,,,,,,,,,,,,,,,,,,,0.059348945,,,,,,,,,,,,,,,,,,,,,,,,,,,,left,0,70,30,100,1,1545.180229,1545.180229,1545.180229,None,None,1,1,0.3717687,,,,,,,,,,,,,,,,,,,,,,10,15,2,2024-10-31_12h31.05.850,uWM_experiment,2022.2.3,59.99678417
,,,,,,,,,,,,,,,,,,,,5,0,5,0,12,0,12,0,,,,,,,,,,,,,,,,,,,,,,,,,,,,,,,,,,,,,,,,,,,,,,,,,,,,,,,,,,,,,,,,,,,,,,0.069348945,,,,,,,,,,,,,,,,,,,,,,,,,,,,right,0,70,-30,40,1,1550.913832,1550.913832,1550.913832,None,None,1,1,0.3422162,,,,,,,,,,,,,,,,,,,,,,10,15,2,2024-10-31_12h31.05.850,uWM_experiment,2022.2.3,59.99678417
,,,,,,,,,,,,,,,,,,,,5,0,5,0,13,0,13,0,,,,,,,,,,,,,,,,,,,,,,,,,,,,,,,,,,,,,,,,,,,,,,,,,,,,,,,,,,,,,,,,,,,,,,0,,,,,,,,,,,,,,,,,,,,,,,,,,,,right,1,10,30,40,0,1556.647415,1556.647415,1556.647415,None,None,1,1,0.3526437,,,,,,,,,,,,,,,,,,,,,,10,15,2,2024-10-31_12h31.05.850,uWM_experiment,2022.2.3,59.99678417
,,,,,,,,,,,,,,,,,,,,5,0,5,0,14,0,14,0,,,,,,,,,,,,,,,,,,,,,,,,,,,,,,,,,,,,,,,,,,,,,,,,,,,,,,,,,,,,,,,,,,,,,,0.079348945,,,,,,,,,,,,,,,,,,,,,,,,,,,,right,0,40,-30,10,1,1562.397698,1562.397698,1562.397698,None,None,1,1,0.3382999,,,,,,,,,,,,,,,,,,,,,,10,15,2,2024-10-31_12h31.05.850,uWM_experiment,2022.2.3,59.99678417
,,,,,,,,,,,,,,,,,,,,5,0,5,0,15,0,15,0,,,,,,,,,,,,,,,,,,,,,,,,,,,,,,,,,,,,,,,,,,,,,,,,,,,,,,,,,,,,,,,,,,,,,,0,,,,,,,,,,,,,,,,,,,,,,,,,,,,left,1,100,-30,70,0,1568.447924,1568.447924,1568.447924,None,None,1,1,0.3601458,,,,,,,,,,,,,,,,,,,,,,10,15,2,2024-10-31_12h31.05.850,uWM_experiment,2022.2.3,59.99678417
,,,,,,,,,,,,,,,,,,,,5,0,5,0,16,0,16,0,,,,,,,,,,,,,,,,,,,,,,,,,,,,,,,,,,,,,,,,,,,,,,,,,,,,,,,,,,,,,,,,,,,,,,0.089348945,,,,,,,,,,,,,,,,,,,,,,,,,,,,left,0,70,30,100,1,1574.19821,1574.19821,1574.19821,None,None,1,1,0.2818963,,,,,,,,,,,,,,,,,,,,,,10,15,2,2024-10-31_12h31.05.850,uWM_experiment,2022.2.3,59.99678417
,,,,,,,,,,,,,,,,,,,,5,0,5,0,17,0,17,0,,,,,,,,,,,,,,,,,,,,,,,,,,,,,,,,,,,,,,,,,,,,,,,,,,,,,,,,,,,,,,,,,,,,,,0.1,,,,,,,,,,,,,,,,,,,,,,,,,,,,right,0,130,-30,100,2,1580.348483,1580.348483,1580.348483,None,None,4,0,0.7956912,,,,,,,,,,,,,,,,,,,,,,10,15,2,2024-10-31_12h31.05.850,uWM_experiment,2022.2.3,59.99678417
,,,,,,,,,,,,,,,,,,,,5,0,5,0,18,0,18,0,,,,,,,,,,,,,,,,,,,,,,,,,,,,,,,,,,,,,,,,,,,,,,,,,,,,,,,,,,,,,,,,,,,,,,0,,,,,,,,,,,,,,,,,,,,,,,,,,,,right,1,40,30,70,0,1586.498755,1586.498755,1586.498755,None,None,1,1,1.4213157,,,,,,,,,,,,,,,,,,,,,,10,15,2,2024-10-31_12h31.05.850,uWM_experiment,2022.2.3,59.99678417
,,,,,,,,,,,,,,,,,,,,5,0,5,0,19,0,19,0,,,,,,,,,,,,,,,,,,,,,,,,,,,,,,,,,,,,,,,,,,,,,,,,,,,,,,,,,,,,,,,,,,,,,,0.099348945,,,,,,,,,,,,,,,,,,,,,,,,,,,,right,1,10,30,40,1,1593.49911,1593.49911,1593.49911,None,None,1,1,0.2369456,,,,,,,,,,,,,,,,,,,,,,10,15,2,2024-10-31_12h31.05.850,uWM_experiment,2022.2.3,59.99678417
,,,,,,,,,,,,,,,,,,,,5,0,5,0,20,0,20,0,,,,,,,,,,,,,,,,,,,,,,,,,,,,,,,,,,,,,,,,,,,,,,,,,,,,,,,,,,,,,,,,,,,,,,0.109348945,,,,,,,,,,,,,,,,,,,,,,,,,,,,right,0,40,-30,10,1,1599.149339,1599.149339,1599.149339,None,None,2,0,0.4107743,,,,,,,,,,,,,,,,,,,,,,10,15,2,2024-10-31_12h31.05.850,uWM_experiment,2022.2.3,59.99678417
,,,,,,,,,,,,,,,,,,,,5,0,5,0,21,0,21,0,,,,,,,,,,,,,,,,,,,,,,,,,,,,,,,,,,,,,,,,,,,,,,,,,,,,,,,,,,,,,,,,,,,,,,0,,,,,,,,,,,,,,,,,,,,,,,,,,,,right,1,160,30,190,0,1604.982914,1604.982914,1604.982914,None,None,1,1,0.3292119,,,,,,,,,,,,,,,,,,,,,,10,15,2,2024-10-31_12h31.05.850,uWM_experiment,2022.2.3,59.99678417
,,,,,,,,,,,,,,,,,,,,5,0,5,0,22,0,22,0,,,,,,,,,,,,,,,,,,,,,,,,,,,,,,,,,,,,,,,,,,,,,,,,,,,,,,,,,,,,,,,,,,,,,,0.099348945,,,,,,,,,,,,,,,,,,,,,,,,,,,,right,0,70,-30,40,1,1610.833165,1610.833165,1610.833165,None,None,2,0,0.9110308,,,,,,,,,,,,,,,,,,,,,,10,15,2,2024-10-31_12h31.05.850,uWM_experiment,2022.2.3,59.99678417
,,,,,,,,,,,,,,,,,,,,5,0,5,0,23,0,23,0,,,,,,,,,,,,,,,,,,,,,,,,,,,,,,,,,,,,,,,,,,,,,,,,,,,,,,,,,,,,,,,,,,,,,,0.089348945,,,,,,,,,,,,,,,,,,,,,,,,,,,,right,1,40,30,70,1,1617.200157,1617.200157,1617.200157,None,None,2,0,0.3119727,,,,,,,,,,,,,,,,,,,,,,10,15,2,2024-10-31_12h31.05.850,uWM_experiment,2022.2.3,59.99678417
,,,,,,,,,,,,,,,,,,,,5,0,5,0,,,,,0,0,0,0,,,,,,,,,,,,,,,,,,,,,,,,,,,,,,,,,,,,,,,,,,,,,,,,,,,,,,,,,,,,,,,,,,,,,,,,,,,,,,,,,,,,,,,,,,,,,,,,,,,,,,,,,,,,1617.533458,1617.533458,space,54.0106947,space,None,,1671.56922,1671.56922,51.7989833,,,,,,,,,,,,10,15,2,2024-10-31_12h31.05.850,uWM_experiment,2022.2.3,59.99678417
,,,,,,,,,,,,,,,,,,,,5,0,5,0,,,,,1,0,1,0,,,,,,,,,,,,,,,,,,,,,,,,,,,,,,,,,,,,,,,,,,,,,,,,,,,,,,,,,,,,,,,,,,,,,,,,,,,,,,,,,,,,,,,,,,,,,,,,,,,,,,,,,,,,,,,,,,,,,,,,,,,,,,,,,10,15,2,2024-10-31_12h31.05.850,uWM_experiment,2022.2.3,59.99678417
,,,,,,,,,,,,,,,,,,,,5,0,5,0,,,,,2,0,2,0,,,,,,,,,,,,,,,,,,,,,,,,,,,,,,,,,,,,,,,,,,,,,,,,,,,,,,,,,,,,,,,,,,,,,,,,,,,,,,,,,,,,,,,,,,,,,,,,,,,,,,,,,,,,,,,,,,,,,,,,,,,,,,,,,10,15,2,2024-10-31_12h31.05.850,uWM_experiment,2022.2.3,59.99678417
,,,,,,,,,,,,,,,,,,,,6,0,6,0,0,0,0,0,,,,,,,,,,,,,,,,,,,,,,,,,,,,,,,,,,,,,,,,,,,,,,,,,,,,,,,,,,,,,,,,,,,,,,0.079348945,,,,,,,,,,,,,,,,,,,,1723.38823,1724.088246,1724.388259,1725.088308,1725.388305,1726.088336,1726.088336,1726.405038,right,1,160,30,190,1,1730.688557,1730.688557,1730.688557,None,None,2,0,0.2555402,,,,,,,None,,,,,,,,,,,,,,,10,15,2,2024-10-31_12h31.05.850,uWM_experiment,2022.2.3,59.99678417
,,,,,,,,,,,,,,,,,,,,6,0,6,0,1,0,1,0,,,,,,,,,,,,,,,,,,,,,,,,,,,,,,,,,,,,,,,,,,,,,,,,,,,,,,,,,,,,,,,,,,,,,,0.069348945,,,,,,,,,,,,,,,,,,,,,,,,,,,,right,1,10,30,40,1,1736.355471,1736.355471,1736.355471,None,None,1,1,0.6846314,,,,,,,,,,,,,,,,,,,,,,10,15,2,2024-10-31_12h31.05.850,uWM_experiment,2022.2.3,59.99678417
,,,,,,,,,,,,,,,,,,,,6,0,6,0,2,0,2,0,,,,,,,,,,,,,,,,,,,,,,,,,,,,,,,,,,,,,,,,,,,,,,,,,,,,,,,,,,,,,,,,,,,,,,0.1,,,,,,,,,,,,,,,,,,,,,,,,,,,,right,0,70,-30,40,2,1742.705775,1742.705775,1742.705775,None,None,4,0,0.3984058,,,,,,,,,,,,,,,,,,,,,,10,15,2,2024-10-31_12h31.05.850,uWM_experiment,2022.2.3,59.99678417
,,,,,,,,,,,,,,,,,,,,6,0,6,0,3,0,3,0,,,,,,,,,,,,,,,,,,,,,,,,,,,,,,,,,,,,,,,,,,,,,,,,,,,,,,,,,,,,,,,,,,,,,,0.079348945,,,,,,,,,,,,,,,,,,,,,,,,,,,,right,1,10,30,40,1,1748.606027,1748.606027,1748.606027,None,None,2,0,1.1221454,,,,,,,,,,,,,,,,,,,,,,10,15,2,2024-10-31_12h31.05.850,uWM_experiment,2022.2.3,59.99678417
,,,,,,,,,,,,,,,,,,,,6,0,6,0,4,0,4,0,,,,,,,,,,,,,,,,,,,,,,,,,,,,,,,,,,,,,,,,,,,,,,,,,,,,,,,,,,,,,,,,,,,,,,0,,,,,,,,,,,,,,,,,,,,,,,,,,,,left,1,10,-30,-20,0,1755.072996,1755.072996,1755.072996,None,None,1,1,0.3112355,,,,,,,,,,,,,,,,,,,,,,10,15,2,2024-10-31_12h31.05.850,uWM_experiment,2022.2.3,59.99678417
,,,,,,,,,,,,,,,,,,,,6,0,6,0,5,0,5,0,,,,,,,,,,,,,,,,,,,,,,,,,,,,,,,,,,,,,,,,,,,,,,,,,,,,,,,,,,,,,,,,,,,,,,0.069348945,,,,,,,,,,,,,,,,,,,,,,,,,,,,right,0,40,-30,10,1,1760.806568,1760.806568,1760.806568,None,None,2,0,0.4016733,,,,,,,,,,,,,,,,,,,,,,10,15,2,2024-10-31_12h31.05.850,uWM_experiment,2022.2.3,59.99678417
,,,,,,,,,,,,,,,,,,,,6,0,6,0,6,0,6,0,,,,,,,,,,,,,,,,,,,,,,,,,,,,,,,,,,,,,,,,,,,,,,,,,,,,,,,,,,,,,,,,,,,,,,0.1,,,,,,,,,,,,,,,,,,,,,,,,,,,,right,0,70,-30,40,2,1766.740184,1766.740184,1766.740184,None,None,4,0,0.5080724,,,,,,,,,,,,,,,,,,,,,,10,15,2,2024-10-31_12h31.05.850,uWM_experiment,2022.2.3,59.99678417
,,,,,,,,,,,,,,,,,,,,6,0,6,0,7,0,7,0,,,,,,,,,,,,,,,,,,,,,,,,,,,,,,,,,,,,,,,,,,,,,,,,,,,,,,,,,,,,,,,,,,,,,,0.059348945,,,,,,,,,,,,,,,,,,,,,,,,,,,,right,1,160,30,190,1,1772.573755,1772.573755,1772.573755,None,None,2,0,0.3785265,,,,,,,,,,,,,,,,,,,,,,10,15,2,2024-10-31_12h31.05.850,uWM_experiment,2022.2.3,59.99678417
,,,,,,,,,,,,,,,,,,,,6,0,6,0,8,0,8,0,,,,,,,,,,,,,,,,,,,,,,,,,,,,,,,,,,,,,,,,,,,,,,,,,,,,,,,,,,,,,,,,,,,,,,0.049348945,,,,,,,,,,,,,,,,,,,,,,,,,,,,left,1,130,-30,100,1,1778.674027,1778.674027,1778.674027,None,None,1,1,0.89416,,,,,,,,,,,,,,,,,,,,,,10,15,2,2024-10-31_12h31.05.850,uWM_experiment,2022.2.3,59.99678417
,,,,,,,,,,,,,,,,,,,,6,0,6,0,9,0,9,0,,,,,,,,,,,,,,,,,,,,,,,,,,,,,,,,,,,,,,,,,,,,,,,,,,,,,,,,,,,,,,,,,,,,,,0,,,,,,,,,,,,,,,,,,,,,,,,,,,,right,1,10,30,40,0,1785.007645,1785.007645,1785.007645,None,None,1,1,0.5605397,,,,,,,,,,,,,,,,,,,,,,10,15,2,2024-10-31_12h31.05.850,uWM_experiment,2022.2.3,59.99678417
,,,,,,,,,,,,,,,,,,,,6,0,6,0,10,0,10,0,,,,,,,,,,,,,,,,,,,,,,,,,,,,,,,,,,,,,,,,,,,,,,,,,,,,,,,,,,,,,,,,,,,,,,0,,,,,,,,,,,,,,,,,,,,,,,,,,,,right,1,10,30,40,0,1790.974622,1790.974622,1790.974622,None,None,1,1,0.6895845,,,,,,,,,,,,,,,,,,,,,,10,15,2,2024-10-31_12h31.05.850,uWM_experiment,2022.2.3,59.99678417
,,,,,,,,,,,,,,,,,,,,6,0,6,0,11,0,11,0,,,,,,,,,,,,,,,,,,,,,,,,,,,,,,,,,,,,,,,,,,,,,,,,,,,,,,,,,,,,,,,,,,,,,,0.059348945,,,,,,,,,,,,,,,,,,,,,,,,,,,,left,1,160,-30,130,1,1797.141534,1797.141534,1797.141534,None,None,1,1,0.6586538,,,,,,,,,,,,,,,,,,,,,,10,15,2,2024-10-31_12h31.05.850,uWM_experiment,2022.2.3,59.99678417
,,,,,,,,,,,,,,,,,,,,6,0,6,0,12,0,12,0,,,,,,,,,,,,,,,,,,,,,,,,,,,,,,,,,,,,,,,,,,,,,,,,,,,,,,,,,,,,,,,,,,,,,,0,,,,,,,,,,,,,,,,,,,,,,,,,,,,right,1,40,30,70,0,1803.091804,1803.091804,1803.091804,None,None,1,1,0.3963815,,,,,,,,,,,,,,,,,,,,,,10,15,2,2024-10-31_12h31.05.850,uWM_experiment,2022.2.3,59.99678417
,,,,,,,,,,,,,,,,,,,,6,0,6,0,13,0,13,0,,,,,,,,,,,,,,,,,,,,,,,,,,,,,,,,,,,,,,,,,,,,,,,,,,,,,,,,,,,,,,,,,,,,,,0,,,,,,,,,,,,,,,,,,,,,,,,,,,,right,0,100,-30,70,0,1808.775401,1808.775401,1808.775401,None,None,1,1,0.6808403,,,,,,,,,,,,,,,,,,,,,,10,15,2,2024-10-31_12h31.05.850,uWM_experiment,2022.2.3,59.99678417
,,,,,,,,,,,,,,,,,,,,6,0,6,0,14,0,14,0,,,,,,,,,,,,,,,,,,,,,,,,,,,,,,,,,,,,,,,,,,,,,,,,,,,,,,,,,,,,,,,,,,,,,,0.069348945,,,,,,,,,,,,,,,,,,,,,,,,,,,,right,1,70,30,100,1,1815.025716,1815.025716,1815.025716,None,None,1,1,0.7905406,,,,,,,,,,,,,,,,,,,,,,10,15,2,2024-10-31_12h31.05.850,uWM_experiment,2022.2.3,59.99678417
,,,,,,,,,,,,,,,,,,,,6,0,6,0,15,0,15,0,,,,,,,,,,,,,,,,,,,,,,,,,,,,,,,,,,,,,,,,,,,,,,,,,,,,,,,,,,,,,,,,,,,,,,0.079348945,,,,,,,,,,,,,,,,,,,,,,,,,,,,left,0,130,30,160,1,1821.425977,1821.425977,1821.425977,None,None,2,0,0.3102269,,,,,,,,,,,,,,,,,,,,,,10,15,2,2024-10-31_12h31.05.850,uWM_experiment,2022.2.3,59.99678417
,,,,,,,,,,,,,,,,,,,,6,0,6,0,16,0,16,0,,,,,,,,,,,,,,,,,,,,,,,,,,,,,,,,,,,,,,,,,,,,,,,,,,,,,,,,,,,,,,,,,,,,,,0,,,,,,,,,,,,,,,,,,,,,,,,,,,,left,0,100,30,130,0,1827.076218,1827.076218,1827.076218,None,None,1,1,0.3240251,,,,,,,,,,,,,,,,,,,,,,10,15,2,2024-10-31_12h31.05.850,uWM_experiment,2022.2.3,59.99678417
,,,,,,,,,,,,,,,,,,,,6,0,6,0,17,0,17,0,,,,,,,,,,,,,,,,,,,,,,,,,,,,,,,,,,,,,,,,,,,,,,,,,,,,,,,,,,,,,,,,,,,,,,0.069348945,,,,,,,,,,,,,,,,,,,,,,,,,,,,left,0,70,30,100,1,1833.076501,1833.076501,1833.076501,None,None,3,0,0.4836415,,,,,,,,,,,,,,,,,,,,,,10,15,2,2024-10-31_12h31.05.850,uWM_experiment,2022.2.3,59.99678417
,,,,,,,,,,,,,,,,,,,,6,0,6,0,18,0,18,0,,,,,,,,,,,,,,,,,,,,,,,,,,,,,,,,,,,,,,,,,,,,,,,,,,,,,,,,,,,,,,,,,,,,,,0.059348945,,,,,,,,,,,,,,,,,,,,,,,,,,,,right,1,10,30,40,1,1838.960074,1838.960074,1838.960074,None,None,2,0,0.3441292,,,,,,,,,,,,,,,,,,,,,,10,15,2,2024-10-31_12h31.05.850,uWM_experiment,2022.2.3,59.99678417
,,,,,,,,,,,,,,,,,,,,6,0,6,0,19,0,19,0,,,,,,,,,,,,,,,,,,,,,,,,,,,,,,,,,,,,,,,,,,,,,,,,,,,,,,,,,,,,,,,,,,,,,,0.049348945,,,,,,,,,,,,,,,,,,,,,,,,,,,,left,0,100,30,130,1,1844.627008,1844.627008,1844.627008,None,None,1,1,0.3413294,,,,,,,,,,,,,,,,,,,,,,10,15,2,2024-10-31_12h31.05.850,uWM_experiment,2022.2.3,59.99678417
,,,,,,,,,,,,,,,,,,,,6,0,6,0,20,0,20,0,,,,,,,,,,,,,,,,,,,,,,,,,,,,,,,,,,,,,,,,,,,,,,,,,,,,,,,,,,,,,,,,,,,,,,0.059348945,,,,,,,,,,,,,,,,,,,,,,,,,,,,right,0,70,-30,40,1,1850.260585,1850.260585,1850.260585,None,None,1,1,0.4277381,,,,,,,,,,,,,,,,,,,,,,10,15,2,2024-10-31_12h31.05.850,uWM_experiment,2022.2.3,59.99678417
,,,,,,,,,,,,,,,,,,,,6,0,6,0,21,0,21,0,,,,,,,,,,,,,,,,,,,,,,,,,,,,,,,,,,,,,,,,,,,,,,,,,,,,,,,,,,,,,,,,,,,,,,0.069348945,,,,,,,,,,,,,,,,,,,,,,,,,,,,left,1,160,-30,130,1,1856.244207,1856.244207,1856.244207,None,None,1,1,0.2839807,,,,,,,,,,,,,,,,,,,,,,10,15,2,2024-10-31_12h31.05.850,uWM_experiment,2022.2.3,59.99678417
,,,,,,,,,,,,,,,,,,,,6,0,6,0,22,0,22,0,,,,,,,,,,,,,,,,,,,,,,,,,,,,,,,,,,,,,,,,,,,,,,,,,,,,,,,,,,,,,,,,,,,,,,0,,,,,,,,,,,,,,,,,,,,,,,,,,,,left,1,130,-30,100,0,1861.994466,1861.994466,1861.994466,None,None,1,1,0.3098217,,,,,,,,,,,,,,,,,,,,,,10,15,2,2024-10-31_12h31.05.850,uWM_experiment,2022.2.3,59.99678417
,,,,,,,,,,,,,,,,,,,,6,0,6,0,23,0,23,0,,,,,,,,,,,,,,,,,,,,,,,,,,,,,,,,,,,,,,,,,,,,,,,,,,,,,,,,,,,,,,,,,,,,,,0.079348945,,,,,,,,,,,,,,,,,,,,,,,,,,,,left,1,130,-30,100,1,1867.828056,1867.828056,1867.828056,None,None,2,0,0.3242271,,,,,,,,,,,,,,,,,,,,,,10,15,2,2024-10-31_12h31.05.850,uWM_experiment,2022.2.3,59.99678417
,,,,,,,,,,,,,,,,,,,,6,0,6,0,,,,,0,0,0,0,,,,,,,,,,,,,,,,,,,,,,,,,,,,,,,,,,,,,,,,,,,,,,,,,,,,,,,,,,,,,,,,,,,,,,,,,,,,,,,,,,,,,,,,,,,,,,,,,,,,,,,,,,,,1868.178042,1868.178042,space,15.0942931,None,space,,,,,1883.295386,1883.295386,29.0808544,,,,,,,,,10,15,2,2024-10-31_12h31.05.850,uWM_experiment,2022.2.3,59.99678417
,,,,,,,,,,,,,,,,,,,,6,0,6,0,,,,,1,0,1,0,,,,,,,,,,,,,,,,,,,,,,,,,,,,,,,,,,,,,,,,,,,,,,,,,,,,,,,,,,,,,,,,,,,,,,,,,,,,,,,,,,,,,,,,,,,,,,,,,,,,,,,,,,,,,,,,,,,,,,,,,,,,,,,,,10,15,2,2024-10-31_12h31.05.850,uWM_experiment,2022.2.3,59.99678417
,,,,,,,,,,,,,,,,,,,,6,0,6,0,,,,,2,0,2,0,,,,,,,,,,,,,,,,,,,,,,,,,,,,,,,,,,,,,,,,,,,,,,,,,,,,,,,,,,,,,,,,,,,,,,,,,,,,,,,,,,,,,,,,,,,,,,,,,,,,,,,,,,,,,,,,,,,,,,,,,,,,,,,,,10,15,2,2024-10-31_12h31.05.850,uWM_experiment,2022.2.3,59.99678417
,,,,,,,,,,,,,,,,,,,,7,0,7,0,0,0,0,0,,,,,,,,,,,,,,,,,,,,,,,,,,,,,,,,,,,,,,,,,,,,,,,,,,,,,,,,,,,,,,,,,,,,,,0.069348945,,,,,,,,,,,,,,,,,,,,1925.913976,1926.614001,1926.897353,1927.597382,1927.897396,1928.597427,1928.597427,1928.914119,right,0,40,-30,10,1,1933.180983,1933.180983,1933.180983,None,None,2,0,0.3073067,,,,,,,space,,,,,,,1920.080388,1920.080388,5.8159311,,,,,,10,15,2,2024-10-31_12h31.05.850,uWM_experiment,2022.2.3,59.99678417
,,,,,,,,,,,,,,,,,,,,7,0,7,0,1,0,1,0,,,,,,,,,,,,,,,,,,,,,,,,,,,,,,,,,,,,,,,,,,,,,,,,,,,,,,,,,,,,,,,,,,,,,,0.059348945,,,,,,,,,,,,,,,,,,,,,,,,,,,,left,0,130,30,160,1,1938.931245,1938.931245,1938.931245,None,None,1,1,0.3570896,,,,,,,,,,,,,,,,,,,,,,10,15,2,2024-10-31_12h31.05.850,uWM_experiment,2022.2.3,59.99678417
,,,,,,,,,,,,,,,,,,,,7,0,7,0,2,0,2,0,,,,,,,,,,,,,,,,,,,,,,,,,,,,,,,,,,,,,,,,,,,,,,,,,,,,,,,,,,,,,,,,,,,,,,0.069348945,,,,,,,,,,,,,,,,,,,,,,,,,,,,left,0,130,30,160,1,1944.91484,1944.91484,1944.91484,None,None,1,1,0.2694375,,,,,,,,,,,,,,,,,,,,,,10,15,2,2024-10-31_12h31.05.850,uWM_experiment,2022.2.3,59.99678417
,,,,,,,,,,,,,,,,,,,,7,0,7,0,3,0,3,0,,,,,,,,,,,,,,,,,,,,,,,,,,,,,,,,,,,,,,,,,,,,,,,,,,,,,,,,,,,,,,,,,,,,,,0,,,,,,,,,,,,,,,,,,,,,,,,,,,,right,1,160,30,190,0,1950.531743,1950.531743,1950.531743,None,None,1,1,0.3246205,,,,,,,,,,,,,,,,,,,,,,10,15,2,2024-10-31_12h31.05.850,uWM_experiment,2022.2.3,59.99678417
,,,,,,,,,,,,,,,,,,,,7,0,7,0,4,0,4,0,,,,,,,,,,,,,,,,,,,,,,,,,,,,,,,,,,,,,,,,,,,,,,,,,,,,,,,,,,,,,,,,,,,,,,0,,,,,,,,,,,,,,,,,,,,,,,,,,,,right,1,160,30,190,0,1956.232036,1956.232036,1956.232036,None,None,1,1,0.3603224,,,,,,,,,,,,,,,,,,,,,,10,15,2,2024-10-31_12h31.05.850,uWM_experiment,2022.2.3,59.99678417
,,,,,,,,,,,,,,,,,,,,7,0,7,0,5,0,5,0,,,,,,,,,,,,,,,,,,,,,,,,,,,,,,,,,,,,,,,,,,,,,,,,,,,,,,,,,,,,,,,,,,,,,,0,,,,,,,,,,,,,,,,,,,,,,,,,,,,right,0,100,-30,70,0,1962.215611,1962.215611,1962.215611,None,None,1,1,0.4407432,,,,,,,,,,,,,,,,,,,,,,10,15,2,2024-10-31_12h31.05.850,uWM_experiment,2022.2.3,59.99678417
,,,,,,,,,,,,,,,,,,,,7,0,7,0,6,0,6,0,,,,,,,,,,,,,,,,,,,,,,,,,,,,,,,,,,,,,,,,,,,,,,,,,,,,,,,,,,,,,,,,,,,,,,0.079348945,,,,,,,,,,,,,,,,,,,,,,,,,,,,right,0,40,-30,10,1,1967.949208,1967.949208,1967.949208,None,None,2,0,0.3151293,,,,,,,,,,,,,,,,,,,,,,10,15,2,2024-10-31_12h31.05.850,uWM_experiment,2022.2.3,59.99678417
,,,,,,,,,,,,,,,,,,,,7,0,7,0,7,0,7,0,,,,,,,,,,,,,,,,,,,,,,,,,,,,,,,,,,,,,,,,,,,,,,,,,,,,,,,,,,,,,,,,,,,,,,0.069348945,,,,,,,,,,,,,,,,,,,,,,,,,,,,left,0,130,30,160,1,1973.799478,1973.799478,1973.799478,None,None,1,1,0.3367614,,,,,,,,,,,,,,,,,,,,,,10,15,2,2024-10-31_12h31.05.850,uWM_experiment,2022.2.3,59.99678417
,,,,,,,,,,,,,,,,,,,,7,0,7,0,8,0,8,0,,,,,,,,,,,,,,,,,,,,,,,,,,,,,,,,,,,,,,,,,,,,,,,,,,,,,,,,,,,,,,,,,,,,,,0.079348945,,,,,,,,,,,,,,,,,,,,,,,,,,,,left,1,10,-30,-20,1,1979.533046,1979.533046,1979.533046,None,None,1,1,0.363256,,,,,,,,,,,,,,,,,,,,,,10,15,2,2024-10-31_12h31.05.850,uWM_experiment,2022.2.3,59.99678417
,,,,,,,,,,,,,,,,,,,,7,0,7,0,9,0,9,0,,,,,,,,,,,,,,,,,,,,,,,,,,,,,,,,,,,,,,,,,,,,,,,,,,,,,,,,,,,,,,,,,,,,,,0.089348945,,,,,,,,,,,,,,,,,,,,,,,,,,,,right,1,40,30,70,1,1985.383328,1985.383328,1985.383328,None,None,2,0,0.3930047,,,,,,,,,,,,,,,,,,,,,,10,15,2,2024-10-31_12h31.05.850,uWM_experiment,2022.2.3,59.99678417
,,,,,,,,,,,,,,,,,,,,7,0,7,0,10,0,10,0,,,,,,,,,,,,,,,,,,,,,,,,,,,,,,,,,,,,,,,,,,,,,,,,,,,,,,,,,,,,,,,,,,,,,,0.079348945,,,,,,,,,,,,,,,,,,,,,,,,,,,,left,1,130,-30,100,1,1991.716932,1991.716932,1991.716932,None,None,1,1,0.3233431,,,,,,,,,,,,,,,,,,,,,,10,15,2,2024-10-31_12h31.05.850,uWM_experiment,2022.2.3,59.99678417
,,,,,,,,,,,,,,,,,,,,7,0,7,0,11,0,11,0,,,,,,,,,,,,,,,,,,,,,,,,,,,,,,,,,,,,,,,,,,,,,,,,,,,,,,,,,,,,,,,,,,,,,,0,,,,,,,,,,,,,,,,,,,,,,,,,,,,left,0,130,30,160,0,1997.70052,1997.70052,1997.70052,None,None,1,1,0.2918537,,,,,,,,,,,,,,,,,,,,,,10,15,2,2024-10-31_12h31.05.850,uWM_experiment,2022.2.3,59.99678417
,,,,,,,,,,,,,,,,,,,,7,0,7,0,12,0,12,0,,,,,,,,,,,,,,,,,,,,,,,,,,,,,,,,,,,,,,,,,,,,,,,,,,,,,,,,,,,,,,,,,,,,,,0.089348945,,,,,,,,,,,,,,,,,,,,,,,,,,,,left,1,160,-30,130,1,2003.35077,2003.35077,2003.35077,None,None,1,1,0.3374881,,,,,,,,,,,,,,,,,,,,,,10,15,2,2024-10-31_12h31.05.850,uWM_experiment,2022.2.3,59.99678417
,,,,,,,,,,,,,,,,,,,,7,0,7,0,13,0,13,0,,,,,,,,,,,,,,,,,,,,,,,,,,,,,,,,,,,,,,,,,,,,,,,,,,,,,,,,,,,,,,,,,,,,,,0.1,,,,,,,,,,,,,,,,,,,,,,,,,,,,right,1,130,30,160,2,2009.734416,2009.734416,2009.734416,None,None,4,0,0.561912,,,,,,,,,,,,,,,,,,,,,,10,15,2,2024-10-31_12h31.05.850,uWM_experiment,2022.2.3,59.99678417
,,,,,,,,,,,,,,,,,,,,7,0,7,0,14,0,14,0,,,,,,,,,,,,,,,,,,,,,,,,,,,,,,,,,,,,,,,,,,,,,,,,,,,,,,,,,,,,,,,,,,,,,,0.099348945,,,,,,,,,,,,,,,,,,,,,,,,,,,,left,0,100,30,130,1,2015.968034,2015.968034,2015.968034,None,None,2,0,0.3042815,,,,,,,,,,,,,,,,,,,,,,10,15,2,2024-10-31_12h31.05.850,uWM_experiment,2022.2.3,59.99678417
,,,,,,,,,,,,,,,,,,,,7,0,7,0,15,0,15,0,,,,,,,,,,,,,,,,,,,,,,,,,,,,,,,,,,,,,,,,,,,,,,,,,,,,,,,,,,,,,,,,,,,,,,0,,,,,,,,,,,,,,,,,,,,,,,,,,,,right,1,10,30,40,0,2021.584977,2021.584977,2021.584977,None,None,1,1,0.3192611,,,,,,,,,,,,,,,,,,,,,,10,15,2,2024-10-31_12h31.05.850,uWM_experiment,2022.2.3,59.99678417
,,,,,,,,,,,,,,,,,,,,7,0,7,0,16,0,16,0,,,,,,,,,,,,,,,,,,,,,,,,,,,,,,,,,,,,,,,,,,,,,,,,,,,,,,,,,,,,,,,,,,,,,,0.089348945,,,,,,,,,,,,,,,,,,,,,,,,,,,,right,0,70,-30,40,1,2027.218527,2027.218527,2027.218527,None,None,1,1,0.3177543,,,,,,,,,,,,,,,,,,,,,,10,15,2,2024-10-31_12h31.05.850,uWM_experiment,2022.2.3,59.99678417
,,,,,,,,,,,,,,,,,,,,7,0,7,0,17,0,17,0,,,,,,,,,,,,,,,,,,,,,,,,,,,,,,,,,,,,,,,,,,,,,,,,,,,,,,,,,,,,,,,,,,,,,,0.099348945,,,,,,,,,,,,,,,,,,,,,,,,,,,,right,1,160,30,190,1,2032.952121,2032.952121,2032.952121,None,None,2,0,0.3602957,,,,,,,,,,,,,,,,,,,,,,10,15,2,2024-10-31_12h31.05.850,uWM_experiment,2022.2.3,59.99678417
,,,,,,,,,,,,,,,,,,,,7,0,7,0,18,0,18,0,,,,,,,,,,,,,,,,,,,,,,,,,,,,,,,,,,,,,,,,,,,,,,,,,,,,,,,,,,,,,,,,,,,,,,0,,,,,,,,,,,,,,,,,,,,,,,,,,,,right,0,70,-30,40,0,2038.652356,2038.652356,2038.652356,None,None,1,1,0.4359391,,,,,,,,,,,,,,,,,,,,,,10,15,2,2024-10-31_12h31.05.850,uWM_experiment,2022.2.3,59.99678417
,,,,,,,,,,,,,,,,,,,,7,0,7,0,19,0,19,0,,,,,,,,,,,,,,,,,,,,,,,,,,,,,,,,,,,,,,,,,,,,,,,,,,,,,,,,,,,,,,,,,,,,,,0,,,,,,,,,,,,,,,,,,,,,,,,,,,,right,0,100,-30,70,0,2044.502631,2044.502631,2044.502631,None,None,1,1,0.729821,,,,,,,,,,,,,,,,,,,,,,10,15,2,2024-10-31_12h31.05.850,uWM_experiment,2022.2.3,59.99678417
,,,,,,,,,,,,,,,,,,,,7,0,7,0,20,0,20,0,,,,,,,,,,,,,,,,,,,,,,,,,,,,,,,,,,,,,,,,,,,,,,,,,,,,,,,,,,,,,,,,,,,,,,0.089348945,,,,,,,,,,,,,,,,,,,,,,,,,,,,right,1,10,30,40,1,2050.552915,2050.552915,2050.552915,None,None,2,0,0.2954846,,,,,,,,,,,,,,,,,,,,,,10,15,2,2024-10-31_12h31.05.850,uWM_experiment,2022.2.3,59.99678417
,,,,,,,,,,,,,,,,,,,,7,0,7,0,21,0,21,0,,,,,,,,,,,,,,,,,,,,,,,,,,,,,,,,,,,,,,,,,,,,,,,,,,,,,,,,,,,,,,,,,,,,,,0.079348945,,,,,,,,,,,,,,,,,,,,,,,,,,,,left,1,160,-30,130,1,2056.186496,2056.186496,2056.186496,None,None,2,0,0.5498542,,,,,,,,,,,,,,,,,,,,,,10,15,2,2024-10-31_12h31.05.850,uWM_experiment,2022.2.3,59.99678417
,,,,,,,,,,,,,,,,,,,,7,0,7,0,22,0,22,0,,,,,,,,,,,,,,,,,,,,,,,,,,,,,,,,,,,,,,,,,,,,,,,,,,,,,,,,,,,,,,,,,,,,,,0.069348945,,,,,,,,,,,,,,,,,,,,,,,,,,,,left,0,100,30,130,1,2062.35344,2062.35344,2062.35344,None,None,1,1,1.0308657,,,,,,,,,,,,,,,,,,,,,,10,15,2,2024-10-31_12h31.05.850,uWM_experiment,2022.2.3,59.99678417
,,,,,,,,,,,,,,,,,,,,7,0,7,0,23,0,23,0,,,,,,,,,,,,,,,,,,,,,,,,,,,,,,,,,,,,,,,,,,,,,,,,,,,,,,,,,,,,,,,,,,,,,,0.079348945,,,,,,,,,,,,,,,,,,,,,,,,,,,,right,0,70,-30,40,1,2068.987094,2068.987094,2068.987094,None,None,1,1,0.4933017,,,,,,,,,,,,,,,,,,,,,,10,15,2,2024-10-31_12h31.05.850,uWM_experiment,2022.2.3,59.99678417
,,,,,,,,,,,,,,,,,,,,7,0,7,0,,,,,0,0,0,0,,,,,,,,,,,,,,,,,,,,,,,,,,,,,,,,,,,,,,,,,,,,,,,,,,,,,,,,,,,,,,,,,,,,,,,,,,,,,,,,,,,,,,,,,,,,,,,,,,,,,,,,,,,,2069.503734,2069.503734,space,88.2887086,None,None,,,,,,,,,,,,,,,,10,15,2,2024-10-31_12h31.05.850,uWM_experiment,2022.2.3,59.99678417
,,,,,,,,,,,,,,,,,,,,7,0,7,0,,,,,1,0,1,0,,,,,,,,,,,,,,,,,,,,,,,,,,,,,,,,,,,,,,,,,,,,,,,,,,,,,,,,,,,,,,,,,,,,,,,,,,,,,,,,,,,,,,,,,,,,,,,,,,,,,,,,,,,,,,,,,,,,,,,,,,,,,,,,,10,15,2,2024-10-31_12h31.05.850,uWM_experiment,2022.2.3,59.99678417
,,,,,,,,,,,,,,,,,,,,7,0,7,0,,,,,2,0,2,0,,,,,,,,,,,,,,,,,,,,,,,,,,,,,,,,,,,,,,,,,,,,,,,,,,,,,,,,,,,,,,,,,,,,,,,,,,,,,,,,,,,,,,,,,,,,,,,,,,,,,,,,,,,,,,,,,,,,,,,,,,,,,,,,,10,15,2,2024-10-31_12h31.05.850,uWM_experiment,2022.2.3,59.99678417
,,,,,,,,,,,,,,,,,,,,8,0,8,0,0,0,0,0,,,,,,,,,,,,,,,,,,,,,,,,,,,,,,,,,,,,,,,,,,,,,,,,,,,,,,,,,,,,,,,,,,,,,,0.089348945,,,,,,,,,,,,,,,,,,,,2157.824358,2158.524409,2158.824412,2159.524442,2159.824461,2160.524488,2160.524488,2160.841187,right,1,40,30,70,1,2165.524696,2165.524696,2165.524696,None,None,2,0,0.283705,,,,,,,None,,,,,,,,,,,,,,,10,15,2,2024-10-31_12h31.05.850,uWM_experiment,2022.2.3,59.99678417
,,,,,,,,,,,,,,,,,,,,8,0,8,0,1,0,1,0,,,,,,,,,,,,,,,,,,,,,,,,,,,,,,,,,,,,,,,,,,,,,,,,,,,,,,,,,,,,,,,,,,,,,,0.079348945,,,,,,,,,,,,,,,,,,,,,,,,,,,,left,0,100,30,130,1,2171.24164,2171.24164,2171.24164,None,None,1,1,0.2707465,,,,,,,,,,,,,,,,,,,,,,10,15,2,2024-10-31_12h31.05.850,uWM_experiment,2022.2.3,59.99678417
,,,,,,,,,,,,,,,,,,,,8,0,8,0,2,0,2,0,,,,,,,,,,,,,,,,,,,,,,,,,,,,,,,,,,,,,,,,,,,,,,,,,,,,,,,,,,,,,,,,,,,,,,0,,,,,,,,,,,,,,,,,,,,,,,,,,,,left,0,70,30,100,0,2176.89191,2176.89191,2176.89191,None,None,1,1,0.3484932,,,,,,,,,,,,,,,,,,,,,,10,15,2,2024-10-31_12h31.05.850,uWM_experiment,2022.2.3,59.99678417
,,,,,,,,,,,,,,,,,,,,8,0,8,0,3,0,3,0,,,,,,,,,,,,,,,,,,,,,,,,,,,,,,,,,,,,,,,,,,,,,,,,,,,,,,,,,,,,,,,,,,,,,,0,,,,,,,,,,,,,,,,,,,,,,,,,,,,right,0,100,-30,70,0,2182.658824,2182.658824,2182.658824,None,None,1,1,0.4616497,,,,,,,,,,,,,,,,,,,,,,10,15,2,2024-10-31_12h31.05.850,uWM_experiment,2022.2.3,59.99678417
,,,,,,,,,,,,,,,,,,,,8,0,8,0,4,0,4,0,,,,,,,,,,,,,,,,,,,,,,,,,,,,,,,,,,,,,,,,,,,,,,,,,,,,,,,,,,,,,,,,,,,,,,0,,,,,,,,,,,,,,,,,,,,,,,,,,,,right,1,40,30,70,0,2188.659093,2188.659093,2188.659093,None,None,1,1,0.6692716,,,,,,,,,,,,,,,,,,,,,,10,15,2,2024-10-31_12h31.05.850,uWM_experiment,2022.2.3,59.99678417
,,,,,,,,,,,,,,,,,,,,8,0,8,0,5,0,5,0,,,,,,,,,,,,,,,,,,,,,,,,,,,,,,,,,,,,,,,,,,,,,,,,,,,,,,,,,,,,,,,,,,,,,,0,,,,,,,,,,,,,,,,,,,,,,,,,,,,left,1,160,-30,130,0,2194.726023,2194.726023,2194.726023,None,None,1,1,0.3464602,,,,,,,,,,,,,,,,,,,,,,10,15,2,2024-10-31_12h31.05.850,uWM_experiment,2022.2.3,59.99678417
,,,,,,,,,,,,,,,,,,,,8,0,8,0,6,0,6,0,,,,,,,,,,,,,,,,,,,,,,,,,,,,,,,,,,,,,,,,,,,,,,,,,,,,,,,,,,,,,,,,,,,,,,0.089348945,,,,,,,,,,,,,,,,,,,,,,,,,,,,left,1,160,-30,130,1,2200.559634,2200.559634,2200.559634,None,None,2,0,0.3608045,,,,,,,,,,,,,,,,,,,,,,10,15,2,2024-10-31_12h31.05.850,uWM_experiment,2022.2.3,59.99678417
,,,,,,,,,,,,,,,,,,,,8,0,8,0,7,0,7,0,,,,,,,,,,,,,,,,,,,,,,,,,,,,,,,,,,,,,,,,,,,,,,,,,,,,,,,,,,,,,,,,,,,,,,0.079348945,,,,,,,,,,,,,,,,,,,,,,,,,,,,right,0,100,-30,70,1,2206.30992,2206.30992,2206.30992,None,None,2,0,0.4664733,,,,,,,,,,,,,,,,,,,,,,10,15,2,2024-10-31_12h31.05.850,uWM_experiment,2022.2.3,59.99678417
,,,,,,,,,,,,,,,,,,,,8,0,8,0,8,0,8,0,,,,,,,,,,,,,,,,,,,,,,,,,,,,,,,,,,,,,,,,,,,,,,,,,,,,,,,,,,,,,,,,,,,,,,0.069348945,,,,,,,,,,,,,,,,,,,,,,,,,,,,left,0,100,30,130,1,2212.126816,2212.126816,2212.126816,None,None,1,1,0.3695581,,,,,,,,,,,,,,,,,,,,,,10,15,2,2024-10-31_12h31.05.850,uWM_experiment,2022.2.3,59.99678417
,,,,,,,,,,,,,,,,,,,,8,0,8,0,9,0,9,0,,,,,,,,,,,,,,,,,,,,,,,,,,,,,,,,,,,,,,,,,,,,,,,,,,,,,,,,,,,,,,,,,,,,,,0.079348945,,,,,,,,,,,,,,,,,,,,,,,,,,,,right,1,10,30,40,1,2217.843718,2217.843718,2217.843718,None,None,2,0,0.5967529,,,,,,,,,,,,,,,,,,,,,,10,15,2,2024-10-31_12h31.05.850,uWM_experiment,2022.2.3,59.99678417
,,,,,,,,,,,,,,,,,,,,8,0,8,0,10,0,10,0,,,,,,,,,,,,,,,,,,,,,,,,,,,,,,,,,,,,,,,,,,,,,,,,,,,,,,,,,,,,,,,,,,,,,,0.069348945,,,,,,,,,,,,,,,,,,,,,,,,,,,,left,0,70,30,100,1,2223.777321,2223.777321,2223.777321,None,None,1,1,0.2790725,,,,,,,,,,,,,,,,,,,,,,10,15,2,2024-10-31_12h31.05.850,uWM_experiment,2022.2.3,59.99678417
,,,,,,,,,,,,,,,,,,,,8,0,8,0,11,0,11,0,,,,,,,,,,,,,,,,,,,,,,,,,,,,,,,,,,,,,,,,,,,,,,,,,,,,,,,,,,,,,,,,,,,,,,0.079348945,,,,,,,,,,,,,,,,,,,,,,,,,,,,left,1,160,-30,130,1,2229.594254,2229.594254,2229.594254,None,None,2,0,0.2621824,,,,,,,,,,,,,,,,,,,,,,10,15,2,2024-10-31_12h31.05.850,uWM_experiment,2022.2.3,59.99678417
,,,,,,,,,,,,,,,,,,,,8,0,8,0,12,0,12,0,,,,,,,,,,,,,,,,,,,,,,,,,,,,,,,,,,,,,,,,,,,,,,,,,,,,,,,,,,,,,,,,,,,,,,0.069348945,,,,,,,,,,,,,,,,,,,,,,,,,,,,left,1,10,-30,-20,1,2235.277843,2235.277843,2235.277843,None,None,1,1,0.3306794,,,,,,,,,,,,,,,,,,,,,,10,15,2,2024-10-31_12h31.05.850,uWM_experiment,2022.2.3,59.99678417
,,,,,,,,,,,,,,,,,,,,8,0,8,0,13,0,13,0,,,,,,,,,,,,,,,,,,,,,,,,,,,,,,,,,,,,,,,,,,,,,,,,,,,,,,,,,,,,,,,,,,,,,,0.079348945,,,,,,,,,,,,,,,,,,,,,,,,,,,,right,1,40,30,70,1,2241.128131,2241.128131,2241.128131,None,None,2,0,0.3123277,,,,,,,,,,,,,,,,,,,,,,10,15,2,2024-10-31_12h31.05.850,uWM_experiment,2022.2.3,59.99678417
,,,,,,,,,,,,,,,,,,,,8,0,8,0,14,0,14,0,,,,,,,,,,,,,,,,,,,,,,,,,,,,,,,,,,,,,,,,,,,,,,,,,,,,,,,,,,,,,,,,,,,,,,0.069348945,,,,,,,,,,,,,,,,,,,,,,,,,,,,left,0,100,30,130,1,2246.778369,2246.778369,2246.778369,None,None,1,1,0.2700411,,,,,,,,,,,,,,,,,,,,,,10,15,2,2024-10-31_12h31.05.850,uWM_experiment,2022.2.3,59.99678417
,,,,,,,,,,,,,,,,,,,,8,0,8,0,15,0,15,0,,,,,,,,,,,,,,,,,,,,,,,,,,,,,,,,,,,,,,,,,,,,,,,,,,,,,,,,,,,,,,,,,,,,,,0.079348945,,,,,,,,,,,,,,,,,,,,,,,,,,,,right,0,40,-30,10,1,2252.361932,2252.361932,2252.361932,None,None,1,1,0.31843,,,,,,,,,,,,,,,,,,,,,,10,15,2,2024-10-31_12h31.05.850,uWM_experiment,2022.2.3,59.99678417
,,,,,,,,,,,,,,,,,,,,8,0,8,0,16,0,16,0,,,,,,,,,,,,,,,,,,,,,,,,,,,,,,,,,,,,,,,,,,,,,,,,,,,,,,,,,,,,,,,,,,,,,,0.089348945,,,,,,,,,,,,,,,,,,,,,,,,,,,,right,0,70,-30,40,1,2258.062182,2258.062182,2258.062182,None,None,1,1,0.2743074,,,,,,,,,,,,,,,,,,,,,,10,15,2,2024-10-31_12h31.05.850,uWM_experiment,2022.2.3,59.99678417
,,,,,,,,,,,,,,,,,,,,8,0,8,0,17,0,17,0,,,,,,,,,,,,,,,,,,,,,,,,,,,,,,,,,,,,,,,,,,,,,,,,,,,,,,,,,,,,,,,,,,,,,,0,,,,,,,,,,,,,,,,,,,,,,,,,,,,right,1,160,30,190,0,2263.67915,2263.67915,2263.67915,None,None,1,1,0.2652975,,,,,,,,,,,,,,,,,,,,,,10,15,2,2024-10-31_12h31.05.850,uWM_experiment,2022.2.3,59.99678417
,,,,,,,,,,,,,,,,,,,,8,0,8,0,18,0,18,0,,,,,,,,,,,,,,,,,,,,,,,,,,,,,,,,,,,,,,,,,,,,,,,,,,,,,,,,,,,,,,,,,,,,,,0.1,,,,,,,,,,,,,,,,,,,,,,,,,,,,right,1,130,30,160,2,2269.762719,2269.762719,2269.762719,None,None,4,0,0.4297823,,,,,,,,,,,,,,,,,,,,,,10,15,2,2024-10-31_12h31.05.850,uWM_experiment,2022.2.3,59.99678417
,,,,,,,,,,,,,,,,,,,,8,0,8,0,19,0,19,0,,,,,,,,,,,,,,,,,,,,,,,,,,,,,,,,,,,,,,,,,,,,,,,,,,,,,,,,,,,,,,,,,,,,,,0.099348945,,,,,,,,,,,,,,,,,,,,,,,,,,,,left,0,130,30,160,1,2275.662996,2275.662996,2275.662996,None,None,2,0,0.4735144,,,,,,,,,,,,,,,,,,,,,,10,15,2,2024-10-31_12h31.05.850,uWM_experiment,2022.2.3,59.99678417
,,,,,,,,,,,,,,,,,,,,8,0,8,0,20,0,20,0,,,,,,,,,,,,,,,,,,,,,,,,,,,,,,,,,,,,,,,,,,,,,,,,,,,,,,,,,,,,,,,,,,,,,,0.089348945,,,,,,,,,,,,,,,,,,,,,,,,,,,,left,1,10,-30,-20,1,2281.596576,2281.596576,2281.596576,None,None,3,0,0.9718587,,,,,,,,,,,,,,,,,,,,,,10,15,2,2024-10-31_12h31.05.850,uWM_experiment,2022.2.3,59.99678417
,,,,,,,,,,,,,,,,,,,,8,0,8,0,21,0,21,0,,,,,,,,,,,,,,,,,,,,,,,,,,,,,,,,,,,,,,,,,,,,,,,,,,,,,,,,,,,,,,,,,,,,,,0.079348945,,,,,,,,,,,,,,,,,,,,,,,,,,,,right,0,70,-30,40,1,2288.013558,2288.013558,2288.013558,None,None,2,0,0.3789715,,,,,,,,,,,,,,,,,,,,,,10,15,2,2024-10-31_12h31.05.850,uWM_experiment,2022.2.3,59.99678417
,,,,,,,,,,,,,,,,,,,,8,0,8,0,22,0,22,0,,,,,,,,,,,,,,,,,,,,,,,,,,,,,,,,,,,,,,,,,,,,,,,,,,,,,,,,,,,,,,,,,,,,,,0.069348945,,,,,,,,,,,,,,,,,,,,,,,,,,,,right,0,100,-30,70,1,2294.163827,2294.163827,2294.163827,None,None,2,0,1.1167913,,,,,,,,,,,,,,,,,,,,,,10,15,2,2024-10-31_12h31.05.850,uWM_experiment,2022.2.3,59.99678417
,,,,,,,,,,,,,,,,,,,,8,0,8,0,23,0,23,0,,,,,,,,,,,,,,,,,,,,,,,,,,,,,,,,,,,,,,,,,,,,,,,,,,,,,,,,,,,,,,,,,,,,,,0.059348945,,,,,,,,,,,,,,,,,,,,,,,,,,,,right,0,40,-30,10,1,2300.630844,2300.630844,2300.630844,None,None,2,0,0.6015971,,,,,,,,,,,,,,,,,,,,,,10,15,2,2024-10-31_12h31.05.850,uWM_experiment,2022.2.3,59.99678417
,,,,,,,,,,,,,,,,,,,,8,0,8,0,,,,,0,0,0,0,,,,,,,,,,,,,,,,,,,,,,,,,,,,,,,,,,,,,,,,,,,,,,,,,,,,,,,,,,,,,,,,,,,,,,,,,,,,,,,,,,,,,,,,,,,,,,,,,,,,,,,,,,,,2301.264122,2301.264122,space,88.74452,space,None,,2390.034787,2390.034787,11.7737801,,,,,,,,,,,,10,15,2,2024-10-31_12h31.05.850,uWM_experiment,2022.2.3,59.99678417
,,,,,,,,,,,,,,,,,,,,8,0,8,0,,,,,1,0,1,0,,,,,,,,,,,,,,,,,,,,,,,,,,,,,,,,,,,,,,,,,,,,,,,,,,,,,,,,,,,,,,,,,,,,,,,,,,,,,,,,,,,,,,,,,,,,,,,,,,,,,,,,,,,,,,,,,,,,,,,,,,,,,,,,,10,15,2,2024-10-31_12h31.05.850,uWM_experiment,2022.2.3,59.99678417
,,,,,,,,,,,,,,,,,,,,8,0,8,0,,,,,2,0,2,0,,,,,,,,,,,,,,,,,,,,,,,,,,,,,,,,,,,,,,,,,,,,,,,,,,,,,,,,,,,,,,,,,,,,,,,,,,,,,,,,,,,,,,,,,,,,,,,,,,,,,,,,,,,,,,,,,,,,,,,,,,,,,,,,,10,15,2,2024-10-31_12h31.05.850,uWM_experiment,2022.2.3,59.99678417
,,,,,,,,,,,,,,,,,,,,9,0,9,0,0,0,0,0,,,,,,,,,,,,,,,,,,,,,,,,,,,,,,,,,,,,,,,,,,,,,,,,,,,,,,,,,,,,,,,,,,,,,,0.049348945,,,,,,,,,,,,,,,,,,,,2401.835312,2402.535355,2402.835357,2403.535404,2403.835402,2404.535432,2404.535432,2404.852111,right,1,10,30,40,1,2409.352332,2409.352332,2409.352332,None,None,1,1,0.3282148,,,,,,,None,,,,,,,,,,,,,,,10,15,2,2024-10-31_12h31.05.850,uWM_experiment,2022.2.3,59.99678417
,,,,,,,,,,,,,,,,,,,,9,0,9,0,1,0,1,0,,,,,,,,,,,,,,,,,,,,,,,,,,,,,,,,,,,,,,,,,,,,,,,,,,,,,,,,,,,,,,,,,,,,,,0.059348945,,,,,,,,,,,,,,,,,,,,,,,,,,,,left,1,10,-30,-20,1,2415.019257,2415.019257,2415.019257,None,None,1,1,0.2532259,,,,,,,,,,,,,,,,,,,,,,10,15,2,2024-10-31_12h31.05.850,uWM_experiment,2022.2.3,59.99678417
,,,,,,,,,,,,,,,,,,,,9,0,9,0,2,0,2,0,,,,,,,,,,,,,,,,,,,,,,,,,,,,,,,,,,,,,,,,,,,,,,,,,,,,,,,,,,,,,,,,,,,,,,0,,,,,,,,,,,,,,,,,,,,,,,,,,,,right,1,160,30,190,0,2420.636179,2420.636179,2420.636179,None,None,1,1,0.356362,,,,,,,,,,,,,,,,,,,,,,10,15,2,2024-10-31_12h31.05.850,uWM_experiment,2022.2.3,59.99678417
,,,,,,,,,,,,,,,,,,,,9,0,9,0,3,0,3,0,,,,,,,,,,,,,,,,,,,,,,,,,,,,,,,,,,,,,,,,,,,,,,,,,,,,,,,,,,,,,,,,,,,,,,0,,,,,,,,,,,,,,,,,,,,,,,,,,,,right,0,70,-30,40,0,2426.353107,2426.353107,2426.353107,None,None,1,1,0.3193772,,,,,,,,,,,,,,,,,,,,,,10,15,2,2024-10-31_12h31.05.850,uWM_experiment,2022.2.3,59.99678417
,,,,,,,,,,,,,,,,,,,,9,0,9,0,4,0,4,0,,,,,,,,,,,,,,,,,,,,,,,,,,,,,,,,,,,,,,,,,,,,,,,,,,,,,,,,,,,,,,,,,,,,,,0,,,,,,,,,,,,,,,,,,,,,,,,,,,,left,0,100,30,130,0,2432.153365,2432.153365,2432.153365,None,None,1,1,0.3031795,,,,,,,,,,,,,,,,,,,,,,10,15,2,2024-10-31_12h31.05.850,uWM_experiment,2022.2.3,59.99678417
,,,,,,,,,,,,,,,,,,,,9,0,9,0,5,0,5,0,,,,,,,,,,,,,,,,,,,,,,,,,,,,,,,,,,,,,,,,,,,,,,,,,,,,,,,,,,,,,,,,,,,,,,0,,,,,,,,,,,,,,,,,,,,,,,,,,,,left,0,100,30,130,0,2437.836942,2437.836942,2437.836942,None,None,1,1,0.3395845,,,,,,,,,,,,,,,,,,,,,,10,15,2,2024-10-31_12h31.05.850,uWM_experiment,2022.2.3,59.99678417
,,,,,,,,,,,,,,,,,,,,9,0,9,0,6,0,6,0,,,,,,,,,,,,,,,,,,,,,,,,,,,,,,,,,,,,,,,,,,,,,,,,,,,,,,,,,,,,,,,,,,,,,,0.069348945,,,,,,,,,,,,,,,,,,,,,,,,,,,,left,1,160,-30,130,1,2443.687201,2443.687201,2443.687201,None,None,3,0,0.433553,,,,,,,,,,,,,,,,,,,,,,10,15,2,2024-10-31_12h31.05.850,uWM_experiment,2022.2.3,59.99678417
,,,,,,,,,,,,,,,,,,,,9,0,9,0,7,0,7,0,,,,,,,,,,,,,,,,,,,,,,,,,,,,,,,,,,,,,,,,,,,,,,,,,,,,,,,,,,,,,,,,,,,,,,0.059348945,,,,,,,,,,,,,,,,,,,,,,,,,,,,left,1,10,-30,-20,1,2449.770814,2449.770814,2449.770814,None,None,2,0,0.2537166,,,,,,,,,,,,,,,,,,,,,,10,15,2,2024-10-31_12h31.05.850,uWM_experiment,2022.2.3,59.99678417
,,,,,,,,,,,,,,,,,,,,9,0,9,0,8,0,8,0,,,,,,,,,,,,,,,,,,,,,,,,,,,,,,,,,,,,,,,,,,,,,,,,,,,,,,,,,,,,,,,,,,,,,,0,,,,,,,,,,,,,,,,,,,,,,,,,,,,right,1,70,30,100,0,2455.821091,2455.821091,2455.821091,None,None,1,1,0.4514307,,,,,,,,,,,,,,,,,,,,,,10,15,2,2024-10-31_12h31.05.850,uWM_experiment,2022.2.3,59.99678417
,,,,,,,,,,,,,,,,,,,,9,0,9,0,9,0,9,0,,,,,,,,,,,,,,,,,,,,,,,,,,,,,,,,,,,,,,,,,,,,,,,,,,,,,,,,,,,,,,,,,,,,,,0,,,,,,,,,,,,,,,,,,,,,,,,,,,,left,1,10,-30,-20,0,2461.921356,2461.921356,2461.921356,None,None,1,1,0.3271798,,,,,,,,,,,,,,,,,,,,,,10,15,2,2024-10-31_12h31.05.850,uWM_experiment,2022.2.3,59.99678417
,,,,,,,,,,,,,,,,,,,,9,0,9,0,10,0,10,0,,,,,,,,,,,,,,,,,,,,,,,,,,,,,,,,,,,,,,,,,,,,,,,,,,,,,,,,,,,,,,,,,,,,,,0.049348945,,,,,,,,,,,,,,,,,,,,,,,,,,,,right,0,70,-30,40,1,2467.538274,2467.538274,2467.538274,None,None,1,1,0.3983525,,,,,,,,,,,,,,,,,,,,,,10,15,2,2024-10-31_12h31.05.850,uWM_experiment,2022.2.3,59.99678417
,,,,,,,,,,,,,,,,,,,,9,0,9,0,11,0,11,0,,,,,,,,,,,,,,,,,,,,,,,,,,,,,,,,,,,,,,,,,,,,,,,,,,,,,,,,,,,,,,,,,,,,,,0.059348945,,,,,,,,,,,,,,,,,,,,,,,,,,,,right,1,10,30,40,1,2473.438552,2473.438552,2473.438552,None,None,1,1,0.3620129,,,,,,,,,,,,,,,,,,,,,,10,15,2,2024-10-31_12h31.05.850,uWM_experiment,2022.2.3,59.99678417
,,,,,,,,,,,,,,,,,,,,9,0,9,0,12,0,12,0,,,,,,,,,,,,,,,,,,,,,,,,,,,,,,,,,,,,,,,,,,,,,,,,,,,,,,,,,,,,,,,,,,,,,,0.069348945,,,,,,,,,,,,,,,,,,,,,,,,,,,,left,1,160,-30,130,1,2479.255484,2479.255484,2479.255484,None,None,1,1,0.2970807,,,,,,,,,,,,,,,,,,,,,,10,15,2,2024-10-31_12h31.05.850,uWM_experiment,2022.2.3,59.99678417
,,,,,,,,,,,,,,,,,,,,9,0,9,0,13,0,13,0,,,,,,,,,,,,,,,,,,,,,,,,,,,,,,,,,,,,,,,,,,,,,,,,,,,,,,,,,,,,,,,,,,,,,,0,,,,,,,,,,,,,,,,,,,,,,,,,,,,left,0,100,30,130,0,2485.189072,2485.189072,2485.189072,None,None,1,1,0.4595314,,,,,,,,,,,,,,,,,,,,,,10,15,2,2024-10-31_12h31.05.850,uWM_experiment,2022.2.3,59.99678417
,,,,,,,,,,,,,,,,,,,,9,0,9,0,14,0,14,0,,,,,,,,,,,,,,,,,,,,,,,,,,,,,,,,,,,,,,,,,,,,,,,,,,,,,,,,,,,,,,,,,,,,,,0.079348945,,,,,,,,,,,,,,,,,,,,,,,,,,,,right,1,10,30,40,1,2491.10601,2491.10601,2491.10601,None,None,1,1,0.4465611,,,,,,,,,,,,,,,,,,,,,,10,15,2,2024-10-31_12h31.05.850,uWM_experiment,2022.2.3,59.99678417
,,,,,,,,,,,,,,,,,,,,9,0,9,0,15,0,15,0,,,,,,,,,,,,,,,,,,,,,,,,,,,,,,,,,,,,,,,,,,,,,,,,,,,,,,,,,,,,,,,,,,,,,,0.089348945,,,,,,,,,,,,,,,,,,,,,,,,,,,,left,1,160,-30,130,1,2496.82295,2496.82295,2496.82295,None,None,1,1,0.3056045,,,,,,,,,,,,,,,,,,,,,,10,15,2,2024-10-31_12h31.05.850,uWM_experiment,2022.2.3,59.99678417
,,,,,,,,,,,,,,,,,,,,9,0,9,0,16,0,16,0,,,,,,,,,,,,,,,,,,,,,,,,,,,,,,,,,,,,,,,,,,,,,,,,,,,,,,,,,,,,,,,,,,,,,,0.099348945,,,,,,,,,,,,,,,,,,,,,,,,,,,,right,0,70,-30,40,1,2502.756533,2502.756533,2502.756533,None,None,1,1,0.3240766,,,,,,,,,,,,,,,,,,,,,,10,15,2,2024-10-31_12h31.05.850,uWM_experiment,2022.2.3,59.99678417
,,,,,,,,,,,,,,,,,,,,9,0,9,0,17,0,17,0,,,,,,,,,,,,,,,,,,,,,,,,,,,,,,,,,,,,,,,,,,,,,,,,,,,,,,,,,,,,,,,,,,,,,,0.109348945,,,,,,,,,,,,,,,,,,,,,,,,,,,,left,1,130,-30,100,1,2508.723452,2508.723452,2508.723452,None,None,1,1,0.3172469,,,,,,,,,,,,,,,,,,,,,,10,15,2,2024-10-31_12h31.05.850,uWM_experiment,2022.2.3,59.99678417
,,,,,,,,,,,,,,,,,,,,9,0,9,0,18,0,18,0,,,,,,,,,,,,,,,,,,,,,,,,,,,,,,,,,,,,,,,,,,,,,,,,,,,,,,,,,,,,,,,,,,,,,,0.119348945,,,,,,,,,,,,,,,,,,,,,,,,,,,,left,1,160,-30,130,1,2514.590406,2514.590406,2514.590406,None,None,3,0,0.314194,,,,,,,,,,,,,,,,,,,,,,10,15,2,2024-10-31_12h31.05.850,uWM_experiment,2022.2.3,59.99678417
,,,,,,,,,,,,,,,,,,,,9,0,9,0,19,0,19,0,,,,,,,,,,,,,,,,,,,,,,,,,,,,,,,,,,,,,,,,,,,,,,,,,,,,,,,,,,,,,,,,,,,,,,0.1,,,,,,,,,,,,,,,,,,,,,,,,,,,,right,0,160,-30,130,2,2520.673966,2520.673966,2520.673966,None,None,4,0,0.6946621,,,,,,,,,,,,,,,,,,,,,,10,15,2,2024-10-31_12h31.05.850,uWM_experiment,2022.2.3,59.99678417
,,,,,,,,,,,,,,,,,,,,9,0,9,0,20,0,20,0,,,,,,,,,,,,,,,,,,,,,,,,,,,,,,,,,,,,,,,,,,,,,,,,,,,,,,,,,,,,,,,,,,,,,,0.109348945,,,,,,,,,,,,,,,,,,,,,,,,,,,,right,0,100,-30,70,1,2526.640946,2526.640946,2526.640946,None,None,2,0,0.3035946,,,,,,,,,,,,,,,,,,,,,,10,15,2,2024-10-31_12h31.05.850,uWM_experiment,2022.2.3,59.99678417
,,,,,,,,,,,,,,,,,,,,9,0,9,0,21,0,21,0,,,,,,,,,,,,,,,,,,,,,,,,,,,,,,,,,,,,,,,,,,,,,,,,,,,,,,,,,,,,,,,,,,,,,,0.099348945,,,,,,,,,,,,,,,,,,,,,,,,,,,,right,0,100,-30,70,1,2532.391185,2532.391185,2532.391185,None,None,2,0,0.5373871,,,,,,,,,,,,,,,,,,,,,,10,15,2,2024-10-31_12h31.05.850,uWM_experiment,2022.2.3,59.99678417
,,,,,,,,,,,,,,,,,,,,9,0,9,0,22,0,22,0,,,,,,,,,,,,,,,,,,,,,,,,,,,,,,,,,,,,,,,,,,,,,,,,,,,,,,,,,,,,,,,,,,,,,,0.089348945,,,,,,,,,,,,,,,,,,,,,,,,,,,,right,1,10,30,40,1,2538.608139,2538.608139,2538.608139,None,None,2,0,0.3124506,,,,,,,,,,,,,,,,,,,,,,10,15,2,2024-10-31_12h31.05.850,uWM_experiment,2022.2.3,59.99678417
,,,,,,,,,,,,,,,,,,,,9,0,9,0,23,0,23,0,,,,,,,,,,,,,,,,,,,,,,,,,,,,,,,,,,,,,,,,,,,,,,,,,,,,,,,,,,,,,,,,,,,,,,0.1,,,,,,,,,,,,,,,,,,,,,,,,,,,,left,1,10,-30,-20,2,2544.508406,2544.508406,2544.508406,None,None,4,0,0.388185,,,,,,,,,,,,,,,,,,,,,,10,15,2,2024-10-31_12h31.05.850,uWM_experiment,2022.2.3,59.99678417
,,,,,,,,,,,,,,,,,,,,9,0,9,0,,,,,0,0,0,0,,,,,,,,,,,,,,,,,,,,,,,,,,,,,,,,,,,,,,,,,,,,,,,,,,,,,,,,,,,,,,,,,,,,,,,,,,,,,,,,,,,,,,,,,,,,,,,,,,,,,,,,,,,,2544.925081,2544.925081,space,100.8036485,None,None,,,,,,,,,,,,,,,,10,15,2,2024-10-31_12h31.05.850,uWM_experiment,2022.2.3,59.99678417
,,,,,,,,,,,,,,,,,,,,9,0,9,0,,,,,1,0,1,0,,,,,,,,,,,,,,,,,,,,,,,,,,,,,,,,,,,,,,,,,,,,,,,,,,,,,,,,,,,,,,,,,,,,,,,,,,,,,,,,,,,,,,,,,,,,,,,,,,,,,,,,,,,,,,,,,,,,,,,,,,,,,,,,,10,15,2,2024-10-31_12h31.05.850,uWM_experiment,2022.2.3,59.99678417
,,,,,,,,,,,,,,,,,,,,9,0,9,0,,,,,2,0,2,0,,,,,,,,,,,,,,,,,,,,,,,,,,,,,,,,,,,,,,,,,,,,,,,,,,,,,,,,,,,,,,,,,,,,,,,,,,,,,,,,,,,,,,,,,,,,,,,,,,,,,,,,,,,,,,,,,,,,,,,,,,,,,,,,,10,15,2,2024-10-31_12h31.05.850,uWM_experiment,2022.2.3,59.99678417
,,,,,,,,,,,,,,,,,,,,10,0,10,0,0,0,0,0,,,,,,,,,,,,,,,,,,,,,,,,,,,,,,,,,,,,,,,,,,,,,,,,,,,,,,,,,,,,,,,,,,,,,,0.079348945,,,,,,,,,,,,,,,,,,,,2645.746258,2646.44629,2646.746319,2647.44633,2647.746348,2648.446375,2648.446375,2648.763065,left,0,130,30,160,1,2653.12994,2653.12994,2653.12994,None,None,1,1,0.2546421,,,,,,,None,,,,,,,,,,,,,,,10,15,2,2024-10-31_12h31.05.850,uWM_experiment,2022.2.3,59.99678417
,,,,,,,,,,,,,,,,,,,,10,0,10,0,1,0,1,0,,,,,,,,,,,,,,,,,,,,,,,,,,,,,,,,,,,,,,,,,,,,,,,,,,,,,,,,,,,,,,,,,,,,,,0.089348945,,,,,,,,,,,,,,,,,,,,,,,,,,,,right,1,160,30,190,1,2658.696855,2658.696855,2658.696855,None,None,3,0,0.2478056,,,,,,,,,,,,,,,,,,,,,,10,15,2,2024-10-31_12h31.05.850,uWM_experiment,2022.2.3,59.99678417
,,,,,,,,,,,,,,,,,,,,10,0,10,0,2,0,2,0,,,,,,,,,,,,,,,,,,,,,,,,,,,,,,,,,,,,,,,,,,,,,,,,,,,,,,,,,,,,,,,,,,,,,,0.079348945,,,,,,,,,,,,,,,,,,,,,,,,,,,,left,1,130,-30,100,1,2664.830453,2664.830453,2664.830453,None,None,1,1,0.2822302,,,,,,,,,,,,,,,,,,,,,,10,15,2,2024-10-31_12h31.05.850,uWM_experiment,2022.2.3,59.99678417
,,,,,,,,,,,,,,,,,,,,10,0,10,0,3,0,3,0,,,,,,,,,,,,,,,,,,,,,,,,,,,,,,,,,,,,,,,,,,,,,,,,,,,,,,,,,,,,,,,,,,,,,,0.089348945,,,,,,,,,,,,,,,,,,,,,,,,,,,,left,1,130,-30,100,1,2670.830746,2670.830746,2670.830746,None,None,1,1,0.3539077,,,,,,,,,,,,,,,,,,,,,,10,15,2,2024-10-31_12h31.05.850,uWM_experiment,2022.2.3,59.99678417
,,,,,,,,,,,,,,,,,,,,10,0,10,0,4,0,4,0,,,,,,,,,,,,,,,,,,,,,,,,,,,,,,,,,,,,,,,,,,,,,,,,,,,,,,,,,,,,,,,,,,,,,,0,,,,,,,,,,,,,,,,,,,,,,,,,,,,right,0,10,-30,-20,0,2677.014329,2677.014329,2677.014329,None,None,1,1,0.3784436,,,,,,,,,,,,,,,,,,,,,,10,15,2,2024-10-31_12h31.05.850,uWM_experiment,2022.2.3,59.99678417
,,,,,,,,,,,,,,,,,,,,10,0,10,0,5,0,5,0,,,,,,,,,,,,,,,,,,,,,,,,,,,,,,,,,,,,,,,,,,,,,,,,,,,,,,,,,,,,,,,,,,,,,,0,,,,,,,,,,,,,,,,,,,,,,,,,,,,left,1,10,-30,-20,0,2682.764591,2682.764591,2682.764591,None,None,1,1,0.2921364,,,,,,,,,,,,,,,,,,,,,,10,15,2,2024-10-31_12h31.05.850,uWM_experiment,2022.2.3,59.99678417
,,,,,,,,,,,,,,,,,,,,10,0,10,0,6,0,6,0,,,,,,,,,,,,,,,,,,,,,,,,,,,,,,,,,,,,,,,,,,,,,,,,,,,,,,,,,,,,,,,,,,,,,,0.099348945,,,,,,,,,,,,,,,,,,,,,,,,,,,,left,1,160,-30,130,1,2688.514865,2688.514865,2688.514865,None,None,1,1,0.2778286,,,,,,,,,,,,,,,,,,,,,,10,15,2,2024-10-31_12h31.05.850,uWM_experiment,2022.2.3,59.99678417
,,,,,,,,,,,,,,,,,,,,10,0,10,0,7,0,7,0,,,,,,,,,,,,,,,,,,,,,,,,,,,,,,,,,,,,,,,,,,,,,,,,,,,,,,,,,,,,,,,,,,,,,,0.109348945,,,,,,,,,,,,,,,,,,,,,,,,,,,,right,1,10,30,40,1,2694.498473,2694.498473,2694.498473,None,None,1,1,1.2462863,,,,,,,,,,,,,,,,,,,,,,10,15,2,2024-10-31_12h31.05.850,uWM_experiment,2022.2.3,59.99678417
