PreTrainingPAS4_loop.thisRepN,PreTrainingPAS4_loop.thisTrialN,PreTrainingPAS4_loop.thisN,PreTrainingPAS4_loop.thisIndex,PreTrainingPAS1_loop.thisRepN,PreTrainingPAS1_loop.thisTrialN,PreTrainingPAS1_loop.thisN,PreTrainingPAS1_loop.thisIndex,RepeatCV_loop.thisRepN,RepeatCV_loop.thisTrialN,RepeatCV_loop.thisN,RepeatCV_loop.thisIndex,TrainingCV_loop.thisRepN,TrainingCV_loop.thisTrialN,TrainingCV_loop.thisN,TrainingCV_loop.thisIndex,TrainingCAL_loop.thisRepN,TrainingCAL_loop.thisTrialN,TrainingCAL_loop.thisN,TrainingCAL_loop.thisIndex,blocks_loop.thisRepN,blocks_loop.thisTrialN,blocks_loop.thisN,blocks_loop.thisIndex,trials_loop.thisRepN,trials_loop.thisTrialN,trials_loop.thisN,trials_loop.thisIndex,TrainingPAS1_loop.thisRepN,TrainingPAS1_loop.thisTrialN,TrainingPAS1_loop.thisN,TrainingPAS1_loop.thisIndex,spacebarWelcome0.started,spacebarWelcome0.keys,spacebarWelcome0.rt,spacebarWelcome1.started,gaborWelcome1.started,maskWelcome1.started,textMaskWelcome1.started,spacebarWelcome1.keys,spacebarWelcome1.rt,spacebarWelcome2.started,spacebarWelcome2.keys,spacebarWelcome2.rt,textInst_PreTrainingPAS4.started,spacebarPreTrainingPAS4.started,spacebarPreTrainingPAS4.keys,spacebarPreTrainingPAS4.rt,textPreTrainingPAS1.started,spacebarPreTrainingPAS1.started,spacebarPreTrainingPAS1.keys,spacebarPreTrainingPAS1.rt,textQUEST0.started,spacebarQUEST0.started,spacebarQUEST0.keys,spacebarQUEST0.rt,spacebar0.started,spacebar0.keys,spacebar0.rt,spacebar1.started,spacebar1.keys,spacebar1.rt,textInstructions2.started,spacebar2.started,Gabor1Inst2.started,Gabor2Inst2.started,Gabor3Inst2.started,Gabor4Inst2.started,spacebar2.keys,spacebar2.rt,textInstructionsPAS.started,spacebarInstPAS.started,spacebarInstPAS.keys,spacebarInstPAS.rt,textInstructions3.started,spacebar3.started,spacebar3.keys,spacebar3.rt,WMresp_CV,WMresp_CV_acc,oriMemo_CV,gyre_CV,oriTest_CV,feedbackText.started,feedbackText.stopped,sliderCV.started,PAStextCV.started,PASkeyCV.started,sliderCV.response,sliderCV.rt,PASkeyCV.keys,PASkeyCV.corr,PASkeyCV.rt,TextInstructionsCAL.started,spacebarCAL.started,spacebarCAL.keys,spacebarCAL.rt,contrast,WMresp_CAL,WMresp_CAL_acc,oriMemo_CAL,gyre_CAL,oriTest_CAL,cue_CAL,sliderCAL.started,PAStextCAL.started,PASkeyCAL.started,sliderCAL.response,sliderCAL.rt,PASkeyCAL.keys,PASkeyCAL.corr,PASkeyCAL.rt,propUnseen_CAL,textStart.started,spacebar4.started,spacebar4.keys,spacebar4.rt,three.started,three.stopped,two.started,two.stopped,one.started,one.stopped,blank_countdown.started,blank_countdown.stopped,WMresp,WMresp_acc,oriMemo,gyre,oriTest,cue,slider.started,textPAS_firstGabor.started,PASkey.started,slider.response,slider.rt,PASkey.keys,PASkey.corr,PASkey.rt,spacebarContinue.started,textBreak.started,spacebarContinue.keys,spacebarContinue.rt,spacebar_reminder.keys,spacebar_TrainingPAS1.keys,spacebar_endpractice.keys,spacebar_reminder.started,textReminder.started,spacebar_reminder.rt,textInst_TrainingPAS1.started,spacebar_TrainingPAS1.started,spacebar_TrainingPAS1.rt,textend_practicePAS1.started,spacebar_endpractice.started,spacebar_endpractice.rt,textThanks.started,textThanks.stopped,laboratory,participant,session,date,expName,psychopyVersion,frameRate
,,,,,,,,,,,,,,,,,,,,,,,,,,,,,,,,164.5006582,space,2.7982111,,,,,,,,,,,,,,,,,,,,,,,,,,,,,,,,,,,,,,,,,,,,,,,,,,,,,,,,,,,,,,,,,,,,,,,,,,,,,,,,,,,,,,,,,,,,,,,,,,,,,,,,,,,,,,,,,,,,,,,,,,,10,15,1,2024-10-30_13h31.42.012,uWM_experiment,2022.2.3,59.99311279
,,,,,,,,,,,,,,,,,,,,,,,,,,,,,,,,,,,167.3339281,167.3339281,167.3339281,167.3339281,space,19.5569823,,,,,,,,,,,,,,,,,,,,,,,,,,,,,,,,,,,,,,,,,,,,,,,,,,,,,,,,,,,,,,,,,,,,,,,,,,,,,,,,,,,,,,,,,,,,,,,,,,,,,,,,,,,,,,,,,,,,,10,15,1,2024-10-30_13h31.42.012,uWM_experiment,2022.2.3,59.99311279
,,,,,,,,,,,,,,,,,,,,,,,,,,,,,,,,,,,,,,,,,186.918122,space,23.7726388,,,,,,,,,,,,,,,,,,,,,,,,,,,,,,,,,,,,,,,,,,,,,,,,,,,,,,,,,,,,,,,,,,,,,,,,,,,,,,,,,,,,,,,,,,,,,,,,,,,,,,,,,,,,,,,,,,10,15,1,2024-10-30_13h31.42.012,uWM_experiment,2022.2.3,59.99311279
,,,,,,,,,,,,,,,,,,,,,,,,,,,,,,,,,,,,,,,,,,,,210.7191479,210.7191479,space,14.435743,,,,,,,,,,,,,,,,,,,,,,,,,,,,,,,,,,,,,,,,,,,,,,,,,,,,,,,,,,,,,,,,,,,,,,,,,,,,,,,,,,,,,,,,,,,,,,,,,,,,,,,,,,,,,,10,15,1,2024-10-30_13h31.42.012,uWM_experiment,2022.2.3,59.99311279
0,0,0,0,,,,,,,,,,,,,,,,,,,,,,,,,,,,,,,,,,,,,,,,,,,,,,,,,,,,,,,,,,,,,,,,,,,,,,,,,,,,,,,,,,,,,,,,,,,,,,,,,,,,,,,,,,,,,,,,,,,,,,,,,,,,,,,,,,,,,,,,,,,,,,,,,,,,,,,,,,10,15,1,2024-10-30_13h31.42.012,uWM_experiment,2022.2.3,59.99311279
1,0,1,0,,,,,,,,,,,,,,,,,,,,,,,,,,,,,,,,,,,,,,,,,,,,,,,,,,,,,,,,,,,,,,,,,,,,,,,,,,,,,,,,,,,,,,,,,,,,,,,,,,,,,,,,,,,,,,,,,,,,,,,,,,,,,,,,,,,,,,,,,,,,,,,,,,,,,,,,,,10,15,1,2024-10-30_13h31.42.012,uWM_experiment,2022.2.3,59.99311279
2,0,2,0,,,,,,,,,,,,,,,,,,,,,,,,,,,,,,,,,,,,,,,,,,,,,,,,,,,,,,,,,,,,,,,,,,,,,,,,,,,,,,,,,,,,,,,,,,,,,,,,,,,,,,,,,,,,,,,,,,,,,,,,,,,,,,,,,,,,,,,,,,,,,,,,,,,,,,,,,,10,15,1,2024-10-30_13h31.42.012,uWM_experiment,2022.2.3,59.99311279
,,,,,,,,,,,,,,,,,,,,,,,,,,,,,,,,,,,,,,,,,,,,,,,,234.2701815,234.2701815,space,24.9967198,,,,,,,,,,,,,,,,,,,,,,,,,,,,,,,,,,,,,,,,,,,,,,,,,,,,,,,,,,,,,,,,,,,,,,,,,,,,,,,,,,,,,,,,,,,,,,,,,,,,,,,,,,10,15,1,2024-10-30_13h31.42.012,uWM_experiment,2022.2.3,59.99311279
,,,,0,0,0,0,,,,,,,,,,,,,,,,,,,,,,,,,,,,,,,,,,,,,,,,,,,,,,,,,,,,,,,,,,,,,,,,,,,,,,,,,,,,,,,,,,,,,,,,,,,,,,,,,,,,,,,,,,,,,,,,,,,,,,,,,,,,,,,,,,,,,,,,,,,,,,,,,,,,,,10,15,1,2024-10-30_13h31.42.012,uWM_experiment,2022.2.3,59.99311279
,,,,1,0,1,0,,,,,,,,,,,,,,,,,,,,,,,,,,,,,,,,,,,,,,,,,,,,,,,,,,,,,,,,,,,,,,,,,,,,,,,,,,,,,,,,,,,,,,,,,,,,,,,,,,,,,,,,,,,,,,,,,,,,,,,,,,,,,,,,,,,,,,,,,,,,,,,,,,,,,,10,15,1,2024-10-30_13h31.42.012,uWM_experiment,2022.2.3,59.99311279
,,,,2,0,2,0,,,,,,,,,,,,,,,,,,,,,,,,,,,,,,,,,,,,,,,,,,,,,,,,,,,,,,,,,,,,,,,,,,,,,,,,,,,,,,,,,,,,,,,,,,,,,,,,,,,,,,,,,,,,,,,,,,,,,,,,,,,,,,,,,,,,,,,,,,,,,,,,,,,,,,10,15,1,2024-10-30_13h31.42.012,uWM_experiment,2022.2.3,59.99311279
,,,,,,,,,,,,,,,,,,,,,,,,,,,,,,,,,,,,,,,,,,,,,,,,,,,,268.1717016,268.1717016,space,15.7512306,,,,,,,,,,,,,,,,,,,,,,,,,,,,,,,,,,,,,,,,,,,,,,,,,,,,,,,,,,,,,,,,,,,,,,,,,,,,,,,,,,,,,,,,,,,,,,,,,,,,,,10,15,1,2024-10-30_13h31.42.012,uWM_experiment,2022.2.3,59.99311279
,,,,,,,,,,,,,,,,,,,,,,,,,,,,,,,,,,,,,,,,,,,,,,,,,,,,,,,,425.0787118,space,34.3882402,,,,,,,,,,,,,,,,,,,,,,,,,,,,,,,,,,,,,,,,,,,,,,,,,,,,,,,,,,,,,,,,,,,,,,,,,,,,,,,,,,,,,,,,,,,,,,,,,,,10,15,1,2024-10-30_13h31.42.012,uWM_experiment,2022.2.3,59.99311279
,,,,,,,,,,,,,,,,,,,,,,,,,,,,,,,,,,,,,,,,,,,,,,,,,,,,,,,,,,,459.4969148,space,47.3461305,,,,,,,,,,,,,,,,,,,,,,,,,,,,,,,,,,,,,,,,,,,,,,,,,,,,,,,,,,,,,,,,,,,,,,,,,,,,,,,,,,,,,,,,,,,,,,,,10,15,1,2024-10-30_13h31.42.012,uWM_experiment,2022.2.3,59.99311279
,,,,,,,,,,,,,,,,,,,,,,,,,,,,,,,,,,,,,,,,,,,,,,,,,,,,,,,,,,,,,,506.8656968,506.8656968,506.8656968,506.8656968,506.8656968,506.8656968,space,64.9453369,,,,,,,,,,,,,,,,,,,,,,,,,,,,,,,,,,,,,,,,,,,,,,,,,,,,,,,,,,,,,,,,,,,,,,,,,,,,,,,,,,,,,,,,10,15,1,2024-10-30_13h31.42.012,uWM_experiment,2022.2.3,59.99311279
,,,,,,,,,,,,,,,,,,,,,,,,,,,,,,,,,,,,,,,,,,,,,,,,,,,,,,,,,,,,,,,,,,,,,,571.8353008,571.8353008,space,18.3918481,,,,,,,,,,,,,,,,,,,,,,,,,,,,,,,,,,,,,,,,,,,,,,,,,,,,,,,,,,,,,,,,,,,,,,,,,,,,,,,,,,,,10,15,1,2024-10-30_13h31.42.012,uWM_experiment,2022.2.3,59.99311279
,,,,,,,,,,,,,,,,,,,,,,,,,,,,,,,,,,,,,,,,,,,,,,,,,,,,,,,,,,,,,,,,,,,,,,,,,,590.2527622,590.2527622,space,20.7344393,,,,,,,,,,,,,,,,,,,,,,,,,,,,,,,,,,,,,,,,,,,,,,,,,,,,,,,,,,,,,,,,,,,,,,,,,,,,,,,,10,15,1,2024-10-30_13h31.42.012,uWM_experiment,2022.2.3,59.99311279
,,,,,,,,0,0,0,0,0,0,0,0,,,,,,,,,,,,,,,,,,,,,,,,,,,,,,,,,,,,,,,,,,,,,,,,,,,,,,,,,,,,,,,left,1,100,-30,70,624.8210025,625.8210249,625.8210249,625.8210249,625.8210249,None,None,4,0,2.6140367,,,,,,,,,,,,,,,,,,,,,,,,,,,,,,,,,,,,,,,,,,,,,,,,,,,,,,,,,,,,,,,,,10,15,1,2024-10-30_13h31.42.012,uWM_experiment,2022.2.3,59.99311279
,,,,,,,,0,0,0,0,1,0,1,0,,,,,,,,,,,,,,,,,,,,,,,,,,,,,,,,,,,,,,,,,,,,,,,,,,,,,,,,,,,,,,,left,1,160,-30,130,636.3381555,637.3382259,637.3382259,637.3382259,637.3382259,None,None,4,0,2.1609378,,,,,,,,,,,,,,,,,,,,,,,,,,,,,,,,,,,,,,,,,,,,,,,,,,,,,,,,,,,,,,,,,10,15,1,2024-10-30_13h31.42.012,uWM_experiment,2022.2.3,59.99311279
,,,,,,,,0,0,0,0,2,0,2,0,,,,,,,,,,,,,,,,,,,,,,,,,,,,,,,,,,,,,,,,,,,,,,,,,,,,,,,,,,,,,,,right,0,40,-30,10,646.4386384,,647.4386573,647.4386573,647.4386573,None,None,4,0,2.4284548,,,,,,,,,,,,,,,,,,,,,,,,,,,,,,,,,,,,,,,,,,,,,,,,,,,,,,,,,,,,,,,,,10,15,1,2024-10-30_13h31.42.012,uWM_experiment,2022.2.3,59.99311279
,,,,,,,,0,0,0,0,3,0,3,0,,,,,,,,,,,,,,,,,,,,,,,,,,,,,,,,,,,,,,,,,,,,,,,,,,,,,,,,,,,,,,,right,1,130,30,160,657.0057695,,658.0058096,658.0058096,658.0058096,None,None,4,0,0.9653504,,,,,,,,,,,,,,,,,,,,,,,,,,,,,,,,,,,,,,,,,,,,,,,,,,,,,,,,,,,,,,,,,10,15,1,2024-10-30_13h31.42.012,uWM_experiment,2022.2.3,59.99311279
,,,,,,,,0,0,0,0,4,0,4,0,,,,,,,,,,,,,,,,,,,,,,,,,,,,,,,,,,,,,,,,,,,,,,,,,,,,,,,,,,,,,,,left,0,40,30,70,665.2394795,666.2394982,666.2394982,666.2394982,666.2394982,None,None,4,0,1.5956217,,,,,,,,,,,,,,,,,,,,,,,,,,,,,,,,,,,,,,,,,,,,,,,,,,,,,,,,,,,,,,,,,10,15,1,2024-10-30_13h31.42.012,uWM_experiment,2022.2.3,59.99311279
,,,,,,,,0,0,0,0,5,0,5,0,,,,,,,,,,,,,,,,,,,,,,,,,,,,,,,,,,,,,,,,,,,,,,,,,,,,,,,,,,,,,,,right,1,130,30,160,673.8403233,674.8398881,674.8398881,674.8398881,674.8398881,None,None,3,0,1.1231999,,,,,,,,,,,,,,,,,,,,,,,,,,,,,,,,,,,,,,,,,,,,,,,,,,,,,,,,,,,,,,,,,10,15,1,2024-10-30_13h31.42.012,uWM_experiment,2022.2.3,59.99311279
,,,,,,,,0,0,0,0,6,0,6,0,,,,,,,,,,,,,,,,,,,,,,,,,,,,,,,,,,,,,,,,,,,,,,,,,,,,,,,,,,,,,,,right,0,130,-30,100,682.1235702,683.1236025,683.1236025,683.1236025,683.1236025,None,None,4,0,1.8714286,,,,,,,,,,,,,,,,,,,,,,,,,,,,,,,,,,,,,,,,,,,,,,,,,,,,,,,,,,,,,,,,,10,15,1,2024-10-30_13h31.42.012,uWM_experiment,2022.2.3,59.99311279
,,,,,,,,0,0,0,0,7,0,7,0,,,,,,,,,,,,,,,,,,,,,,,,,,,,,,,,,,,,,,,,,,,,,,,,,,,,,,,,,,,,,,,right,1,10,30,40,691.8739931,692.8740448,692.8740448,692.8740448,692.8740448,None,None,4,0,0.9610659,,,,,,,,,,,,,,,,,,,,,,,,,,,,,,,,,,,,,,,,,,,,,,,,,,,,,,,,,,,,,,,,,10,15,1,2024-10-30_13h31.42.012,uWM_experiment,2022.2.3,59.99311279
,,,,,,,,0,0,0,0,8,0,8,0,,,,,,,,,,,,,,,,,,,,,,,,,,,,,,,,,,,,,,,,,,,,,,,,,,,,,,,,,,,,,,,left,0,70,30,100,700.5910442,,701.5910989,701.5910989,701.5910989,None,None,4,0,13.428026,,,,,,,,,,,,,,,,,,,,,,,,,,,,,,,,,,,,,,,,,,,,,,,,,,,,,,,,,,,,,,,,,10,15,1,2024-10-30_13h31.42.012,uWM_experiment,2022.2.3,59.99311279
,,,,,,,,0,0,0,0,9,0,9,0,,,,,,,,,,,,,,,,,,,,,,,,,,,,,,,,,,,,,,,,,,,,,,,,,,,,,,,,,,,,,,,left,0,40,30,70,722.3753637,723.3754059,723.3754059,723.3754059,723.3754059,None,None,4,0,1.0196774,,,,,,,,,,,,,,,,,,,,,,,,,,,,,,,,,,,,,,,,,,,,,,,,,,,,,,,,,,,,,,,,,10,15,1,2024-10-30_13h31.42.012,uWM_experiment,2022.2.3,59.99311279
,,,,,,,,0,0,0,0,10,0,10,0,,,,,,,,,,,,,,,,,,,,,,,,,,,,,,,,,,,,,,,,,,,,,,,,,,,,,,,,,,,,,,,right,1,160,30,190,730.3090505,,731.309107,731.309107,731.309107,None,None,4,0,0.5580319,,,,,,,,,,,,,,,,,,,,,,,,,,,,,,,,,,,,,,,,,,,,,,,,,,,,,,,,,,,,,,,,,10,15,1,2024-10-30_13h31.42.012,uWM_experiment,2022.2.3,59.99311279
,,,,,,,,0,0,0,0,11,0,11,0,,,,,,,,,,,,,,,,,,,,,,,,,,,,,,,,,,,,,,,,,,,,,,,,,,,,,,,,,,,,,,,left,0,70,30,100,738.4927441,739.4927771,739.4927771,739.4927771,739.4927771,None,None,4,0,1.3342636,,,,,,,,,,,,,,,,,,,,,,,,,,,,,,,,,,,,,,,,,,,,,,,,,,,,,,,,,,,,,,,,,10,15,1,2024-10-30_13h31.42.012,uWM_experiment,2022.2.3,59.99311279
,,,,,,,,0,0,0,0,,,,,,,,,,,,,,,,,,,,,,,,,,,,,,,,,,,,,,,,,,,,,,,,,,,,,,,,,,,,,,,,,,,,,,,,,,,,,,,,,,,,,,,,,,,,,,,,,,,,,,,,,,,,,,,,,,,,,,,,,,,,,,,,,,,,,,,,,,,,,,,,,,10,15,1,2024-10-30_13h31.42.012,uWM_experiment,2022.2.3,59.99311279
,,,,,,,,,,,,,,,,,,,,,,,,,,,,,,,,,,,,,,,,,,,,,,,,,,,,,,,,,,,,,,,,,,,,,,,,,,,,,,,,,,,,,,,,,,,,,768.1773957,768.1773957,space,29.1138144,,,,,,,,,,,,,,,,,,,,,,,,,,,,,,,,,,,,,,,,,,,,,,,,,,,,,,,,,,,,,10,15,1,2024-10-30_13h31.42.012,uWM_experiment,2022.2.3,59.99311279
,,,,,,,,,,,,,,,,0,0,0,0,,,,,,,,,,,,,,,,,,,,,,,,,,,,,,,,,,,,,,,,,,,,,,,,,,,,,,,,,,,,,,,,,,,,,,,,,,,,,,0.102191504,right,0,70,-30,40,1,804.46236,804.46236,804.46236,None,None,3,0,2.5007247,,,,,,,,,,,,,,,,,,,,,,,,,,,,,,,,,,,,,,,,,,,,,,10,15,1,2024-10-30_13h31.42.012,uWM_experiment,2022.2.3,59.99311279
,,,,,,,,,,,,,,,,1,0,1,0,,,,,,,,,,,,,,,,,,,,,,,,,,,,,,,,,,,,,,,,,,,,,,,,,,,,,,,,,,,,,,,,,,,,,,,,,,,,,,0.092191504,right,1,10,30,40,1,813.4961068,813.4961068,813.4961068,None,None,2,0,2.0830932,0,,,,,,,,,,,,,,,,,,,,,,,,,,,,,,,,,,,,,,,,,,,,,10,15,1,2024-10-30_13h31.42.012,uWM_experiment,2022.2.3,59.99311279
,,,,,,,,,,,,,,,,2,0,2,0,,,,,,,,,,,,,,,,,,,,,,,,,,,,,,,,,,,,,,,,,,,,,,,,,,,,,,,,,,,,,,,,,,,,,,,,,,,,,,0.082191504,left,0,100,30,130,1,824.5465934,824.5465934,824.5465934,None,None,1,1,2.2326445,0,,,,,,,,,,,,,,,,,,,,,,,,,,,,,,,,,,,,,,,,,,,,,10,15,1,2024-10-30_13h31.42.012,uWM_experiment,2022.2.3,59.99311279
,,,,,,,,,,,,,,,,3,0,3,0,,,,,,,,,,,,,,,,,,,,,,,,,,,,,,,,,,,,,,,,,,,,,,,,,,,,,,,,,,,,,,,,,,,,,,,,,,,,,,0.1,left,1,160,-30,130,2,835.1637046,835.1637046,835.1637046,None,None,3,0,2.7114526,0.333333333,,,,,,,,,,,,,,,,,,,,,,,,,,,,,,,,,,,,,,,,,,,,,10,15,1,2024-10-30_13h31.42.012,uWM_experiment,2022.2.3,59.99311279
,,,,,,,,,,,,,,,,4,0,4,0,,,,,,,,,,,,,,,,,,,,,,,,,,,,,,,,,,,,,,,,,,,,,,,,,,,,,,,,,,,,,,,,,,,,,,,,,,,,,,0.1,right,0,160,-30,130,2,846.7809195,846.7809195,846.7809195,None,None,4,0,1.2861909,0.25,,,,,,,,,,,,,,,,,,,,,,,,,,,,,,,,,,,,,,,,,,,,,10,15,1,2024-10-30_13h31.42.012,uWM_experiment,2022.2.3,59.99311279
,,,,,,,,,,,,,,,,5,0,5,0,,,,,,,,,,,,,,,,,,,,,,,,,,,,,,,,,,,,,,,,,,,,,,,,,,,,,,,,,,,,,,,,,,,,,,,,,,,,,,0.092191504,left,1,130,-30,100,1,854.197925,854.197925,854.197925,None,None,2,0,2.1252731,0.2,,,,,,,,,,,,,,,,,,,,,,,,,,,,,,,,,,,,,,,,,,,,,10,15,1,2024-10-30_13h31.42.012,uWM_experiment,2022.2.3,59.99311279
,,,,,,,,,,,,,,,,6,0,6,0,,,,,,,,,,,,,,,,,,,,,,,,,,,,,,,,,,,,,,,,,,,,,,,,,,,,,,,,,,,,,,,,,,,,,,,,,,,,,,0.1,right,0,100,-30,70,2,862.5816407,862.5816407,862.5816407,None,None,4,0,2.0616156,0.166666667,,,,,,,,,,,,,,,,,,,,,,,,,,,,,,,,,,,,,,,,,,,,,10,15,1,2024-10-30_13h31.42.012,uWM_experiment,2022.2.3,59.99311279
,,,,,,,,,,,,,,,,7,0,7,0,,,,,,,,,,,,,,,,,,,,,,,,,,,,,,,,,,,,,,,,,,,,,,,,,,,,,,,,,,,,,,,,,,,,,,,,,,,,,,0.1,left,0,70,30,100,2,872.7820853,872.7820853,872.7820853,None,None,3,0,2.3491353,0.142857143,,,,,,,,,,,,,,,,,,,,,,,,,,,,,,,,,,,,,,,,,,,,,10,15,1,2024-10-30_13h31.42.012,uWM_experiment,2022.2.3,59.99311279
,,,,,,,,,,,,,,,,8,0,8,0,,,,,,,,,,,,,,,,,,,,,,,,,,,,,,,,,,,,,,,,,,,,,,,,,,,,,,,,,,,,,,,,,,,,,,,,,,,,,,0.1,left,1,130,-30,100,2,881.4157916,881.4157916,881.4157916,None,None,4,0,0.7394384,0.125,,,,,,,,,,,,,,,,,,,,,,,,,,,,,,,,,,,,,,,,,,,,,10,15,1,2024-10-30_13h31.42.012,uWM_experiment,2022.2.3,59.99311279
,,,,,,,,,,,,,,,,9,0,9,0,,,,,,,,,,,,,,,,,,,,,,,,,,,,,,,,,,,,,,,,,,,,,,,,,,,,,,,,,,,,,,,,,,,,,,,,,,,,,,0.082191504,right,0,40,-30,10,1,888.0994385,888.0994385,888.0994385,None,None,1,1,1.5998394,0.111111111,,,,,,,,,,,,,,,,,,,,,,,,,,,,,,,,,,,,,,,,,,,,,10,15,1,2024-10-30_13h31.42.012,uWM_experiment,2022.2.3,59.99311279
,,,,,,,,,,,,,,,,10,0,10,0,,,,,,,,,,,,,,,,,,,,,,,,,,,,,,,,,,,,,,,,,,,,,,,,,,,,,,,,,,,,,,,,,,,,,,,,,,,,,,0.092191504,left,1,10,-30,-20,1,895.5997581,895.5997581,895.5997581,None,None,2,0,2.3954645,0.2,,,,,,,,,,,,,,,,,,,,,,,,,,,,,,,,,,,,,,,,,,,,,10,15,1,2024-10-30_13h31.42.012,uWM_experiment,2022.2.3,59.99311279
,,,,,,,,,,,,,,,,11,0,11,0,,,,,,,,,,,,,,,,,,,,,,,,,,,,,,,,,,,,,,,,,,,,,,,,,,,,,,,,,,,,,,,,,,,,,,,,,,,,,,0.1,right,0,130,-30,100,2,905.7169039,905.7169039,905.7169039,None,None,4,0,1.9342316,0.181818182,,,,,,,,,,,,,,,,,,,,,,,,,,,,,,,,,,,,,,,,,,,,,10,15,1,2024-10-30_13h31.42.012,uWM_experiment,2022.2.3,59.99311279
,,,,,,,,,,,,,,,,12,0,12,0,,,,,,,,,,,,,,,,,,,,,,,,,,,,,,,,,,,,,,,,,,,,,,,,,,,,,,,,,,,,,,,,,,,,,,,,,,,,,,0.082191504,left,0,10,30,40,1,915.500657,915.500657,915.500657,None,None,1,1,2.1985438,0.166666667,,,,,,,,,,,,,,,,,,,,,,,,,,,,,,,,,,,,,,,,,,,,,10,15,1,2024-10-30_13h31.42.012,uWM_experiment,2022.2.3,59.99311279
,,,,,,,,,,,,,,,,13,0,13,0,,,,,,,,,,,,,,,,,,,,,,,,,,,,,,,,,,,,,,,,,,,,,,,,,,,,,,,,,,,,,,,,,,,,,,,,,,,,,,0.092191504,left,0,70,30,100,1,924.2343863,924.2343863,924.2343863,None,None,1,1,1.7448146,0.230769231,,,,,,,,,,,,,,,,,,,,,,,,,,,,,,,,,,,,,,,,,,,,,10,15,1,2024-10-30_13h31.42.012,uWM_experiment,2022.2.3,59.99311279
,,,,,,,,,,,,,,,,14,0,14,0,,,,,,,,,,,,,,,,,,,,,,,,,,,,,,,,,,,,,,,,,,,,,,,,,,,,,,,,,,,,,,,,,,,,,,,,,,,,,,0.102191504,right,1,100,30,130,1,932.7514231,932.7514231,932.7514231,None,None,1,1,1.2279065,0.285714286,,,,,,,,,,,,,,,,,,,,,,,,,,,,,,,,,,,,,,,,,,,,,10,15,1,2024-10-30_13h31.42.012,uWM_experiment,2022.2.3,59.99311279
,,,,,,,,,,,,,,,,15,0,15,0,,,,,,,,,,,,,,,,,,,,,,,,,,,,,,,,,,,,,,,,,,,,,,,,,,,,,,,,,,,,,,,,,,,,,,,,,,,,,,0.1,right,1,160,30,190,2,939.8350918,939.8350918,939.8350918,None,None,4,0,0.8081684,0.333333333,,,,,,,,,,,,,,,,,,,,,,,,,,,,,,,,,,,,,,,,,,,,,10,15,1,2024-10-30_13h31.42.012,uWM_experiment,2022.2.3,59.99311279
,,,,,,,,,,,,,,,,16,0,16,0,,,,,,,,,,,,,,,,,,,,,,,,,,,,,,,,,,,,,,,,,,,,,,,,,,,,,,,,,,,,,,,,,,,,,,,,,,,,,,0.112191504,right,0,70,-30,40,1,946.6853873,946.6853873,946.6853873,None,None,1,1,1.5499843,0.3125,,,,,,,,,,,,,,,,,,,,,,,,,,,,,,,,,,,,,,,,,,,,,10,15,1,2024-10-30_13h31.42.012,uWM_experiment,2022.2.3,59.99311279
,,,,,,,,,,,,,,,,17,0,17,0,,,,,,,,,,,,,,,,,,,,,,,,,,,,,,,,,,,,,,,,,,,,,,,,,,,,,,,,,,,,,,,,,,,,,,,,,,,,,,0.122191504,right,0,100,-30,70,1,955.1858313,955.1858313,955.1858313,None,None,1,1,2.1693236,0.352941176,,,,,,,,,,,,,,,,,,,,,,,,,,,,,,,,,,,,,,,,,,,,,10,15,1,2024-10-30_13h31.42.012,uWM_experiment,2022.2.3,59.99311279
,,,,,,,,,,,,,,,,18,0,18,0,,,,,,,,,,,,,,,,,,,,,,,,,,,,,,,,,,,,,,,,,,,,,,,,,,,,,,,,,,,,,,,,,,,,,,,,,,,,,,0.1,right,1,40,30,70,2,964.3028222,964.3028222,964.3028222,None,None,4,0,2.084347,0.388888889,,,,,,,,,,,,,,,,,,,,,,,,,,,,,,,,,,,,,,,,,,,,,10,15,1,2024-10-30_13h31.42.012,uWM_experiment,2022.2.3,59.99311279
,,,,,,,,,,,,,,,,19,0,19,0,,,,,,,,,,,,,,,,,,,,,,,,,,,,,,,,,,,,,,,,,,,,,,,,,,,,,,,,,,,,,,,,,,,,,,,,,,,,,,0.1,left,0,40,30,70,2,972.5365549,972.5365549,972.5365549,None,None,4,0,1.0827268,0.368421053,,,,,,,,,,,,,,,,,,,,,,,,,,,,,,,,,,,,,,,,,,,,,10,15,1,2024-10-30_13h31.42.012,uWM_experiment,2022.2.3,59.99311279
,,,,,,,,,,,,,,,,20,0,20,0,,,,,,,,,,,,,,,,,,,,,,,,,,,,,,,,,,,,,,,,,,,,,,,,,,,,,,,,,,,,,,,,,,,,,,,,,,,,,,0.132191504,left,0,130,30,160,1,979.2701763,979.2701763,979.2701763,None,None,3,0,1.6291008,0.35,,,,,,,,,,,,,,,,,,,,,,,,,,,,,,,,,,,,,,,,,,,,,10,15,1,2024-10-30_13h31.42.012,uWM_experiment,2022.2.3,59.99311279
,,,,,,,,,,,,,,,,21,0,21,0,,,,,,,,,,,,,,,,,,,,,,,,,,,,,,,,,,,,,,,,,,,,,,,,,,,,,,,,,,,,,,,,,,,,,,,,,,,,,,0.1,right,1,10,30,40,2,987.0705124,987.0705124,987.0705124,None,None,3,0,1.5087353,0.333333333,,,,,,,,,,,,,,,,,,,,,,,,,,,,,,,,,,,,,,,,,,,,,10,15,1,2024-10-30_13h31.42.012,uWM_experiment,2022.2.3,59.99311279
,,,,,,,,,,,,,,,,22,0,22,0,,,,,,,,,,,,,,,,,,,,,,,,,,,,,,,,,,,,,,,,,,,,,,,,,,,,,,,,,,,,,,,,,,,,,,,,,,,,,,0.1,right,0,40,-30,10,2,994.4542012,994.4542012,994.4542012,None,None,4,0,0.7890052,0.318181818,,,,,,,,,,,,,,,,,,,,,,,,,,,,,,,,,,,,,,,,,,,,,10,15,1,2024-10-30_13h31.42.012,uWM_experiment,2022.2.3,59.99311279
,,,,,,,,,,,,,,,,23,0,23,0,,,,,,,,,,,,,,,,,,,,,,,,,,,,,,,,,,,,,,,,,,,,,,,,,,,,,,,,,,,,,,,,,,,,,,,,,,,,,,0.1,right,1,160,30,190,2,1001.037803,1001.037803,1001.037803,None,None,4,0,0.7255419,0.304347826,,,,,,,,,,,,,,,,,,,,,,,,,,,,,,,,,,,,,,,,,,,,,10,15,1,2024-10-30_13h31.42.012,uWM_experiment,2022.2.3,59.99311279
,,,,,,,,,,,,,,,,,,,,,,,,,,,,,,,,,,,,,,,,,,,,,,,,,,,,,,,,,,,,,,,,,,,,,,,,,,,,,,,,,,,,,,,,,,,,,,,,,,,,,,,,,,,,,,,,,1001.787824,1002.787863,space,16.4474291,,,,,,,,,,,,,,,,,,,,,,,,,,,,,,,,,,,,,,,,,10,15,1,2024-10-30_13h31.42.012,uWM_experiment,2022.2.3,59.99311279
,,,,,,,,,,,,,,,,,,,,0,0,0,0,0,0,0,0,,,,,,,,,,,,,,,,,,,,,,,,,,,,,,,,,,,,,,,,,,,,,,,,,,,,,,,,,,,,,,,,,,,,,,0.132191504,,,,,,,,,,,,,,,,,,,,1019.255277,1019.955311,1020.238634,1020.938686,1021.238691,1021.938728,1021.938728,1022.288747,right,0,70,-30,40,1,1027.088958,1027.088958,1027.088958,None,None,2,0,1.4823459,,,,,,,,,,,,,,,,,,,10,15,1,2024-10-30_13h31.42.012,uWM_experiment,2022.2.3,59.99311279
,,,,,,,,,,,,,,,,,,,,0,0,0,0,1,0,1,0,,,,,,,,,,,,,,,,,,,,,,,,,,,,,,,,,,,,,,,,,,,,,,,,,,,,,,,,,,,,,,,,,,,,,,0.122191504,,,,,,,,,,,,,,,,,,,,,,,,,,,,left,0,130,30,160,1,1034.3893,1034.3893,1034.3893,None,None,3,0,1.1659622,,,,,,,,,,,,,,,,,,,10,15,1,2024-10-30_13h31.42.012,uWM_experiment,2022.2.3,59.99311279
,,,,,,,,,,,,,,,,,,,,0,0,0,0,2,0,2,0,,,,,,,,,,,,,,,,,,,,,,,,,,,,,,,,,,,,,,,,,,,,,,,,,,,,,,,,,,,,,,,,,,,,,,0.112191504,,,,,,,,,,,,,,,,,,,,,,,,,,,,right,1,160,30,190,1,1042.45633,1042.45633,1042.45633,None,None,2,0,0.8509143,,,,,,,,,,,,,,,,,,,10,15,1,2024-10-30_13h31.42.012,uWM_experiment,2022.2.3,59.99311279
,,,,,,,,,,,,,,,,,,,,0,0,0,0,3,0,3,0,,,,,,,,,,,,,,,,,,,,,,,,,,,,,,,,,,,,,,,,,,,,,,,,,,,,,,,,,,,,,,,,,,,,,,0,,,,,,,,,,,,,,,,,,,,,,,,,,,,right,0,40,-30,10,0,1049.289953,1049.289953,1049.289953,None,None,1,1,1.1133959,,,,,,,,,,,,,,,,,,,10,15,1,2024-10-30_13h31.42.012,uWM_experiment,2022.2.3,59.99311279
,,,,,,,,,,,,,,,,,,,,0,0,0,0,4,0,4,0,,,,,,,,,,,,,,,,,,,,,,,,,,,,,,,,,,,,,,,,,,,,,,,,,,,,,,,,,,,,,,,,,,,,,,0.102191504,,,,,,,,,,,,,,,,,,,,,,,,,,,,right,0,100,-30,70,1,1056.973644,1056.973644,1056.973644,None,None,1,1,1.5976956,,,,,,,,,,,,,,,,,,,10,15,1,2024-10-30_13h31.42.012,uWM_experiment,2022.2.3,59.99311279
,,,,,,,,,,,,,,,,,,,,0,0,0,0,5,0,5,0,,,,,,,,,,,,,,,,,,,,,,,,,,,,,,,,,,,,,,,,,,,,,,,,,,,,,,,,,,,,,,,,,,,,,,0,,,,,,,,,,,,,,,,,,,,,,,,,,,,right,0,100,-30,70,0,1064.590654,1064.590654,1064.590654,None,None,1,1,1.252599,,,,,,,,,,,,,,,,,,,10,15,1,2024-10-30_13h31.42.012,uWM_experiment,2022.2.3,59.99311279
,,,,,,,,,,,,,,,,,,,,0,0,0,0,6,0,6,0,,,,,,,,,,,,,,,,,,,,,,,,,,,,,,,,,,,,,,,,,,,,,,,,,,,,,,,,,,,,,,,,,,,,,,0.112191504,,,,,,,,,,,,,,,,,,,,,,,,,,,,left,0,100,30,130,1,1071.574307,1071.574307,1071.574307,None,None,2,0,1.3330726,,,,,,,,,,,,,,,,,,,10,15,1,2024-10-30_13h31.42.012,uWM_experiment,2022.2.3,59.99311279
,,,,,,,,,,,,,,,,,,,,0,0,0,0,7,0,7,0,,,,,,,,,,,,,,,,,,,,,,,,,,,,,,,,,,,,,,,,,,,,,,,,,,,,,,,,,,,,,,,,,,,,,,0,,,,,,,,,,,,,,,,,,,,,,,,,,,,right,1,40,30,70,0,1078.841299,1078.841299,1078.841299,None,None,1,1,1.75394,,,,,,,,,,,,,,,,,,,10,15,1,2024-10-30_13h31.42.012,uWM_experiment,2022.2.3,59.99311279
,,,,,,,,,,,,,,,,,,,,0,0,0,0,8,0,8,0,,,,,,,,,,,,,,,,,,,,,,,,,,,,,,,,,,,,,,,,,,,,,,,,,,,,,,,,,,,,,,,,,,,,,,0,,,,,,,,,,,,,,,,,,,,,,,,,,,,right,0,130,-30,100,0,1088.075035,1088.075035,1088.075035,None,None,2,0,1.6323313,,,,,,,,,,,,,,,,,,,10,15,1,2024-10-30_13h31.42.012,uWM_experiment,2022.2.3,59.99311279
,,,,,,,,,,,,,,,,,,,,0,0,0,0,9,0,9,0,,,,,,,,,,,,,,,,,,,,,,,,,,,,,,,,,,,,,,,,,,,,,,,,,,,,,,,,,,,,,,,,,,,,,,0,,,,,,,,,,,,,,,,,,,,,,,,,,,,right,0,40,-30,10,0,1095.625377,1095.625377,1095.625377,None,None,1,1,0.6339643,,,,,,,,,,,,,,,,,,,10,15,1,2024-10-30_13h31.42.012,uWM_experiment,2022.2.3,59.99311279
,,,,,,,,,,,,,,,,,,,,0,0,0,0,10,0,10,0,,,,,,,,,,,,,,,,,,,,,,,,,,,,,,,,,,,,,,,,,,,,,,,,,,,,,,,,,,,,,,,,,,,,,,0.102191504,,,,,,,,,,,,,,,,,,,,,,,,,,,,right,1,10,30,40,1,1102.542342,1102.542342,1102.542342,None,None,1,1,1.181055,,,,,,,,,,,,,,,,,,,10,15,1,2024-10-30_13h31.42.012,uWM_experiment,2022.2.3,59.99311279
,,,,,,,,,,,,,,,,,,,,0,0,0,0,11,0,11,0,,,,,,,,,,,,,,,,,,,,,,,,,,,,,,,,,,,,,,,,,,,,,,,,,,,,,,,,,,,,,,,,,,,,,,0.112191504,,,,,,,,,,,,,,,,,,,,,,,,,,,,right,0,70,-30,40,1,1109.64267,1109.64267,1109.64267,None,None,2,0,1.1287159,,,,,,,,,,,,,,,,,,,10,15,1,2024-10-30_13h31.42.012,uWM_experiment,2022.2.3,59.99311279
,,,,,,,,,,,,,,,,,,,,0,0,0,0,12,0,12,0,,,,,,,,,,,,,,,,,,,,,,,,,,,,,,,,,,,,,,,,,,,,,,,,,,,,,,,,,,,,,,,,,,,,,,0,,,,,,,,,,,,,,,,,,,,,,,,,,,,left,1,10,-30,-20,0,1116.476305,1116.476305,1116.476305,None,None,1,1,0.7991372,,,,,,,,,,,,,,,,,,,10,15,1,2024-10-30_13h31.42.012,uWM_experiment,2022.2.3,59.99311279
,,,,,,,,,,,,,,,,,,,,0,0,0,0,13,0,13,0,,,,,,,,,,,,,,,,,,,,,,,,,,,,,,,,,,,,,,,,,,,,,,,,,,,,,,,,,,,,,,,,,,,,,,0.102191504,,,,,,,,,,,,,,,,,,,,,,,,,,,,right,0,130,-30,100,1,1124.91,1124.91,1124.91,None,None,2,0,0.9253148,,,,,,,,,,,,,,,,,,,10,15,1,2024-10-30_13h31.42.012,uWM_experiment,2022.2.3,59.99311279
,,,,,,,,,,,,,,,,,,,,0,0,0,0,14,0,14,0,,,,,,,,,,,,,,,,,,,,,,,,,,,,,,,,,,,,,,,,,,,,,,,,,,,,,,,,,,,,,,,,,,,,,,0.092191504,,,,,,,,,,,,,,,,,,,,,,,,,,,,right,0,40,-30,10,1,1131.576985,1131.576985,1131.576985,None,None,3,0,0.9143123,,,,,,,,,,,,,,,,,,,10,15,1,2024-10-30_13h31.42.012,uWM_experiment,2022.2.3,59.99311279
,,,,,,,,,,,,,,,,,,,,0,0,0,0,15,0,15,0,,,,,,,,,,,,,,,,,,,,,,,,,,,,,,,,,,,,,,,,,,,,,,,,,,,,,,,,,,,,,,,,,,,,,,0.082191504,,,,,,,,,,,,,,,,,,,,,,,,,,,,right,1,70,30,100,1,1139.37732,1139.37732,1139.37732,None,None,2,0,0.4660774,,,,,,,,,,,,,,,,,,,10,15,1,2024-10-30_13h31.42.012,uWM_experiment,2022.2.3,59.99311279
,,,,,,,,,,,,,,,,,,,,0,0,0,0,16,0,16,0,,,,,,,,,,,,,,,,,,,,,,,,,,,,,,,,,,,,,,,,,,,,,,,,,,,,,,,,,,,,,,,,,,,,,,0,,,,,,,,,,,,,,,,,,,,,,,,,,,,right,1,10,30,40,0,1146.160951,1146.160951,1146.160951,None,None,1,1,0.6104746,,,,,,,,,,,,,,,,,,,10,15,1,2024-10-30_13h31.42.012,uWM_experiment,2022.2.3,59.99311279
,,,,,,,,,,,,,,,,,,,,0,0,0,0,17,0,17,0,,,,,,,,,,,,,,,,,,,,,,,,,,,,,,,,,,,,,,,,,,,,,,,,,,,,,,,,,,,,,,,,,,,,,,0.072191504,,,,,,,,,,,,,,,,,,,,,,,,,,,,left,1,100,-30,70,1,1153.294622,1153.294622,1153.294622,None,None,1,1,0.9488053,,,,,,,,,,,,,,,,,,,10,15,1,2024-10-30_13h31.42.012,uWM_experiment,2022.2.3,59.99311279
,,,,,,,,,,,,,,,,,,,,0,0,0,0,18,0,18,0,,,,,,,,,,,,,,,,,,,,,,,,,,,,,,,,,,,,,,,,,,,,,,,,,,,,,,,,,,,,,,,,,,,,,,0.082191504,,,,,,,,,,,,,,,,,,,,,,,,,,,,right,0,40,-30,10,1,1163.078402,1163.078402,1163.078402,None,None,2,0,1.1008733,,,,,,,,,,,,,,,,,,,10,15,1,2024-10-30_13h31.42.012,uWM_experiment,2022.2.3,59.99311279
,,,,,,,,,,,,,,,,,,,,0,0,0,0,19,0,19,0,,,,,,,,,,,,,,,,,,,,,,,,,,,,,,,,,,,,,,,,,,,,,,,,,,,,,,,,,,,,,,,,,,,,,,0.072191504,,,,,,,,,,,,,,,,,,,,,,,,,,,,right,0,40,-30,10,1,1170.195356,1170.195356,1170.195356,None,None,1,1,1.392078,,,,,,,,,,,,,,,,,,,10,15,1,2024-10-30_13h31.42.012,uWM_experiment,2022.2.3,59.99311279
,,,,,,,,,,,,,,,,,,,,0,0,0,0,20,0,20,0,,,,,,,,,,,,,,,,,,,,,,,,,,,,,,,,,,,,,,,,,,,,,,,,,,,,,,,,,,,,,,,,,,,,,,0.082191504,,,,,,,,,,,,,,,,,,,,,,,,,,,,right,0,100,-30,70,1,1177.662363,1177.662363,1177.662363,None,None,2,0,0.5970848,,,,,,,,,,,,,,,,,,,10,15,1,2024-10-30_13h31.42.012,uWM_experiment,2022.2.3,59.99311279
,,,,,,,,,,,,,,,,,,,,0,0,0,0,21,0,21,0,,,,,,,,,,,,,,,,,,,,,,,,,,,,,,,,,,,,,,,,,,,,,,,,,,,,,,,,,,,,,,,,,,,,,,0.072191504,,,,,,,,,,,,,,,,,,,,,,,,,,,,left,1,70,-30,40,1,1184.829375,1184.829375,1184.829375,None,None,1,1,1.2060034,,,,,,,,,,,,,,,,,,,10,15,1,2024-10-30_13h31.42.012,uWM_experiment,2022.2.3,59.99311279
,,,,,,,,,,,,,,,,,,,,0,0,0,0,22,0,22,0,,,,,,,,,,,,,,,,,,,,,,,,,,,,,,,,,,,,,,,,,,,,,,,,,,,,,,,,,,,,,,,,,,,,,,0,,,,,,,,,,,,,,,,,,,,,,,,,,,,right,0,70,-30,40,0,1191.879685,1191.879685,1191.879685,None,None,1,1,1.4597149,,,,,,,,,,,,,,,,,,,10,15,1,2024-10-30_13h31.42.012,uWM_experiment,2022.2.3,59.99311279
,,,,,,,,,,,,,,,,,,,,0,0,0,0,23,0,23,0,,,,,,,,,,,,,,,,,,,,,,,,,,,,,,,,,,,,,,,,,,,,,,,,,,,,,,,,,,,,,,,,,,,,,,0,,,,,,,,,,,,,,,,,,,,,,,,,,,,right,1,160,30,190,0,1200.263398,1200.263398,1200.263398,None,None,2,0,0.9640224,,,,,,,,,,,,,,,,,,,10,15,1,2024-10-30_13h31.42.012,uWM_experiment,2022.2.3,59.99311279
,,,,,,,,,,,,,,,,,,,,0,0,0,0,,,,,0,0,0,0,,,,,,,,,,,,,,,,,,,,,,,,,,,,,,,,,,,,,,,,,,,,,,,,,,,,,,,,,,,,,,,,,,,,,,,,,,,,,,,,,,,,,,,,,,,,,,,,,,,,,,,,,,,,1201.246753,1201.246753,space,15.7647181,None,None,,,,,,,,,,,,,10,15,1,2024-10-30_13h31.42.012,uWM_experiment,2022.2.3,59.99311279
,,,,,,,,,,,,,,,,,,,,0,0,0,0,,,,,1,0,1,0,,,,,,,,,,,,,,,,,,,,,,,,,,,,,,,,,,,,,,,,,,,,,,,,,,,,,,,,,,,,,,,,,,,,,,,,,,,,,,,,,,,,,,,,,,,,,,,,,,,,,,,,,,,,,,,,,,,,,,,,,,,,,,10,15,1,2024-10-30_13h31.42.012,uWM_experiment,2022.2.3,59.99311279
,,,,,,,,,,,,,,,,,,,,0,0,0,0,,,,,2,0,2,0,,,,,,,,,,,,,,,,,,,,,,,,,,,,,,,,,,,,,,,,,,,,,,,,,,,,,,,,,,,,,,,,,,,,,,,,,,,,,,,,,,,,,,,,,,,,,,,,,,,,,,,,,,,,,,,,,,,,,,,,,,,,,,10,15,1,2024-10-30_13h31.42.012,uWM_experiment,2022.2.3,59.99311279
,,,,,,,,,,,,,,,,,,,,1,0,1,0,0,0,0,0,,,,,,,,,,,,,,,,,,,,,,,,,,,,,,,,,,,,,,,,,,,,,,,,,,,,,,,,,,,,,,,,,,,,,,0.082191504,,,,,,,,,,,,,,,,,,,,1217.030783,1217.730819,1218.03083,1218.730862,1219.030874,1219.730908,1219.730908,1220.047616,right,1,160,30,190,1,1225.397834,1225.397834,1225.397834,None,None,4,0,1.0374882,,,,,,,None,,,,,,,,,,,,10,15,1,2024-10-30_13h31.42.012,uWM_experiment,2022.2.3,59.99311279
,,,,,,,,,,,,,,,,,,,,1,0,1,0,1,0,1,0,,,,,,,,,,,,,,,,,,,,,,,,,,,,,,,,,,,,,,,,,,,,,,,,,,,,,,,,,,,,,,,,,,,,,,0.072191504,,,,,,,,,,,,,,,,,,,,,,,,,,,,left,1,40,-30,10,1,1232.331459,1232.331459,1232.331459,None,None,1,1,1.1839419,,,,,,,,,,,,,,,,,,,10,15,1,2024-10-30_13h31.42.012,uWM_experiment,2022.2.3,59.99311279
,,,,,,,,,,,,,,,,,,,,1,0,1,0,2,0,2,0,,,,,,,,,,,,,,,,,,,,,,,,,,,,,,,,,,,,,,,,,,,,,,,,,,,,,,,,,,,,,,,,,,,,,,0.082191504,,,,,,,,,,,,,,,,,,,,,,,,,,,,left,1,100,-30,70,1,1239.431812,1239.431812,1239.431812,None,None,2,0,0.4116858,,,,,,,,,,,,,,,,,,,10,15,1,2024-10-30_13h31.42.012,uWM_experiment,2022.2.3,59.99311279
,,,,,,,,,,,,,,,,,,,,1,0,1,0,3,0,3,0,,,,,,,,,,,,,,,,,,,,,,,,,,,,,,,,,,,,,,,,,,,,,,,,,,,,,,,,,,,,,,,,,,,,,,0.072191504,,,,,,,,,,,,,,,,,,,,,,,,,,,,left,0,130,30,160,1,1245.482087,1245.482087,1245.482087,None,None,3,0,1.4733974,,,,,,,,,,,,,,,,,,,10,15,1,2024-10-30_13h31.42.012,uWM_experiment,2022.2.3,59.99311279
,,,,,,,,,,,,,,,,,,,,1,0,1,0,4,0,4,0,,,,,,,,,,,,,,,,,,,,,,,,,,,,,,,,,,,,,,,,,,,,,,,,,,,,,,,,,,,,,,,,,,,,,,0.062191504,,,,,,,,,,,,,,,,,,,,,,,,,,,,right,0,40,-30,10,1,1253.049082,1253.049082,1253.049082,None,None,1,1,0.8104332,,,,,,,,,,,,,,,,,,,10,15,1,2024-10-30_13h31.42.012,uWM_experiment,2022.2.3,59.99311279
,,,,,,,,,,,,,,,,,,,,1,0,1,0,5,0,5,0,,,,,,,,,,,,,,,,,,,,,,,,,,,,,,,,,,,,,,,,,,,,,,,,,,,,,,,,,,,,,,,,,,,,,,0,,,,,,,,,,,,,,,,,,,,,,,,,,,,left,0,40,30,70,0,1259.499373,1259.499373,1259.499373,None,None,1,1,1.0800083,,,,,,,,,,,,,,,,,,,10,15,1,2024-10-30_13h31.42.012,uWM_experiment,2022.2.3,59.99311279
,,,,,,,,,,,,,,,,,,,,1,0,1,0,6,0,6,0,,,,,,,,,,,,,,,,,,,,,,,,,,,,,,,,,,,,,,,,,,,,,,,,,,,,,,,,,,,,,,,,,,,,,,0.1,,,,,,,,,,,,,,,,,,,,,,,,,,,,left,0,10,30,40,2,1268.216426,1268.216426,1268.216426,None,None,4,0,0.8990395,,,,,,,,,,,,,,,,,,,10,15,1,2024-10-30_13h31.42.012,uWM_experiment,2022.2.3,59.99311279
,,,,,,,,,,,,,,,,,,,,1,0,1,0,7,0,7,0,,,,,,,,,,,,,,,,,,,,,,,,,,,,,,,,,,,,,,,,,,,,,,,,,,,,,,,,,,,,,,,,,,,,,,0,,,,,,,,,,,,,,,,,,,,,,,,,,,,left,0,130,30,160,0,1274.750057,1274.750057,1274.750057,None,None,1,1,1.2294362,,,,,,,,,,,,,,,,,,,10,15,1,2024-10-30_13h31.42.012,uWM_experiment,2022.2.3,59.99311279
,,,,,,,,,,,,,,,,,,,,1,0,1,0,8,0,8,0,,,,,,,,,,,,,,,,,,,,,,,,,,,,,,,,,,,,,,,,,,,,,,,,,,,,,,,,,,,,,,,,,,,,,,0,,,,,,,,,,,,,,,,,,,,,,,,,,,,right,1,10,30,40,0,1282.483752,1282.483752,1282.483752,None,None,1,1,0.9276479,,,,,,,,,,,,,,,,,,,10,15,1,2024-10-30_13h31.42.012,uWM_experiment,2022.2.3,59.99311279
,,,,,,,,,,,,,,,,,,,,1,0,1,0,9,0,9,0,,,,,,,,,,,,,,,,,,,,,,,,,,,,,,,,,,,,,,,,,,,,,,,,,,,,,,,,,,,,,,,,,,,,,,0,,,,,,,,,,,,,,,,,,,,,,,,,,,,left,0,100,30,130,0,1289.050706,1289.050706,1289.050706,None,None,2,0,0.840805,,,,,,,,,,,,,,,,,,,10,15,1,2024-10-30_13h31.42.012,uWM_experiment,2022.2.3,59.99311279
,,,,,,,,,,,,,,,,,,,,1,0,1,0,10,0,10,0,,,,,,,,,,,,,,,,,,,,,,,,,,,,,,,,,,,,,,,,,,,,,,,,,,,,,,,,,,,,,,,,,,,,,,0.072191504,,,,,,,,,,,,,,,,,,,,,,,,,,,,left,0,40,30,70,1,1297.467719,1297.467719,1297.467719,None,None,2,0,1.0798245,,,,,,,,,,,,,,,,,,,10,15,1,2024-10-30_13h31.42.012,uWM_experiment,2022.2.3,59.99311279
,,,,,,,,,,,,,,,,,,,,1,0,1,0,11,0,11,0,,,,,,,,,,,,,,,,,,,,,,,,,,,,,,,,,,,,,,,,,,,,,,,,,,,,,,,,,,,,,,,,,,,,,,0.062191504,,,,,,,,,,,,,,,,,,,,,,,,,,,,right,1,160,30,190,1,1304.218042,1304.218042,1304.218042,None,None,1,1,0.841467,,,,,,,,,,,,,,,,,,,10,15,1,2024-10-30_13h31.42.012,uWM_experiment,2022.2.3,59.99311279
,,,,,,,,,,,,,,,,,,,,1,0,1,0,12,0,12,0,,,,,,,,,,,,,,,,,,,,,,,,,,,,,,,,,,,,,,,,,,,,,,,,,,,,,,,,,,,,,,,,,,,,,,0,,,,,,,,,,,,,,,,,,,,,,,,,,,,left,0,130,30,160,0,1311.234999,1311.234999,1311.234999,None,None,1,1,0.4244467,,,,,,,,,,,,,,,,,,,10,15,1,2024-10-30_13h31.42.012,uWM_experiment,2022.2.3,59.99311279
,,,,,,,,,,,,,,,,,,,,1,0,1,0,13,0,13,0,,,,,,,,,,,,,,,,,,,,,,,,,,,,,,,,,,,,,,,,,,,,,,,,,,,,,,,,,,,,,,,,,,,,,,0.072191504,,,,,,,,,,,,,,,,,,,,,,,,,,,,left,0,70,30,100,1,1317.451994,1317.451994,1317.451994,None,None,1,1,0.8794971,,,,,,,,,,,,,,,,,,,10,15,1,2024-10-30_13h31.42.012,uWM_experiment,2022.2.3,59.99311279
,,,,,,,,,,,,,,,,,,,,1,0,1,0,14,0,14,0,,,,,,,,,,,,,,,,,,,,,,,,,,,,,,,,,,,,,,,,,,,,,,,,,,,,,,,,,,,,,,,,,,,,,,0.082191504,,,,,,,,,,,,,,,,,,,,,,,,,,,,left,1,160,-30,130,1,1324.035595,1324.035595,1324.035595,None,None,1,1,2.6159109,,,,,,,,,,,,,,,,,,,10,15,1,2024-10-30_13h31.42.012,uWM_experiment,2022.2.3,59.99311279
,,,,,,,,,,,,,,,,,,,,1,0,1,0,15,0,15,0,,,,,,,,,,,,,,,,,,,,,,,,,,,,,,,,,,,,,,,,,,,,,,,,,,,,,,,,,,,,,,,,,,,,,,0,,,,,,,,,,,,,,,,,,,,,,,,,,,,left,0,100,30,130,0,1333.185993,1333.185993,1333.185993,None,None,1,1,1.7055218,,,,,,,,,,,,,,,,,,,10,15,1,2024-10-30_13h31.42.012,uWM_experiment,2022.2.3,59.99311279
,,,,,,,,,,,,,,,,,,,,1,0,1,0,16,0,16,0,,,,,,,,,,,,,,,,,,,,,,,,,,,,,,,,,,,,,,,,,,,,,,,,,,,,,,,,,,,,,,,,,,,,,,0,,,,,,,,,,,,,,,,,,,,,,,,,,,,left,1,10,-30,-20,0,1342.553127,1342.553127,1342.553127,None,None,1,1,0.9222553,,,,,,,,,,,,,,,,,,,10,15,1,2024-10-30_13h31.42.012,uWM_experiment,2022.2.3,59.99311279
,,,,,,,,,,,,,,,,,,,,1,0,1,0,17,0,17,0,,,,,,,,,,,,,,,,,,,,,,,,,,,,,,,,,,,,,,,,,,,,,,,,,,,,,,,,,,,,,,,,,,,,,,0,,,,,,,,,,,,,,,,,,,,,,,,,,,,right,0,130,-30,100,0,1351.853487,1351.853487,1351.853487,None,None,1,1,1.1339128,,,,,,,,,,,,,,,,,,,10,15,1,2024-10-30_13h31.42.012,uWM_experiment,2022.2.3,59.99311279
,,,,,,,,,,,,,,,,,,,,1,0,1,0,18,0,18,0,,,,,,,,,,,,,,,,,,,,,,,,,,,,,,,,,,,,,,,,,,,,,,,,,,,,,,,,,,,,,,,,,,,,,,0.092191504,,,,,,,,,,,,,,,,,,,,,,,,,,,,right,0,40,-30,10,1,1358.953825,1358.953825,1358.953825,None,None,1,1,0.8976633,,,,,,,,,,,,,,,,,,,10,15,1,2024-10-30_13h31.42.012,uWM_experiment,2022.2.3,59.99311279
,,,,,,,,,,,,,,,,,,,,1,0,1,0,19,0,19,0,,,,,,,,,,,,,,,,,,,,,,,,,,,,,,,,,,,,,,,,,,,,,,,,,,,,,,,,,,,,,,,,,,,,,,0.102191504,,,,,,,,,,,,,,,,,,,,,,,,,,,,left,0,70,30,100,1,1365.720784,1365.720784,1365.720784,None,None,2,0,1.0026524,,,,,,,,,,,,,,,,,,,10,15,1,2024-10-30_13h31.42.012,uWM_experiment,2022.2.3,59.99311279
,,,,,,,,,,,,,,,,,,,,1,0,1,0,20,0,20,0,,,,,,,,,,,,,,,,,,,,,,,,,,,,,,,,,,,,,,,,,,,,,,,,,,,,,,,,,,,,,,,,,,,,,,0.092191504,,,,,,,,,,,,,,,,,,,,,,,,,,,,left,0,70,30,100,1,1372.254412,1372.254412,1372.254412,None,None,1,1,1.0130396,,,,,,,,,,,,,,,,,,,10,15,1,2024-10-30_13h31.42.012,uWM_experiment,2022.2.3,59.99311279
,,,,,,,,,,,,,,,,,,,,1,0,1,0,21,0,21,0,,,,,,,,,,,,,,,,,,,,,,,,,,,,,,,,,,,,,,,,,,,,,,,,,,,,,,,,,,,,,,,,,,,,,,0.102191504,,,,,,,,,,,,,,,,,,,,,,,,,,,,left,1,100,-30,70,1,1379.588058,1379.588058,1379.588058,None,None,2,0,0.3834308,,,,,,,,,,,,,,,,,,,10,15,1,2024-10-30_13h31.42.012,uWM_experiment,2022.2.3,59.99311279
,,,,,,,,,,,,,,,,,,,,1,0,1,0,22,0,22,0,,,,,,,,,,,,,,,,,,,,,,,,,,,,,,,,,,,,,,,,,,,,,,,,,,,,,,,,,,,,,,,,,,,,,,0.092191504,,,,,,,,,,,,,,,,,,,,,,,,,,,,right,1,10,30,40,1,1385.821714,1385.821714,1385.821714,None,None,1,1,0.4857358,,,,,,,,,,,,,,,,,,,10,15,1,2024-10-30_13h31.42.012,uWM_experiment,2022.2.3,59.99311279
,,,,,,,,,,,,,,,,,,,,1,0,1,0,23,0,23,0,,,,,,,,,,,,,,,,,,,,,,,,,,,,,,,,,,,,,,,,,,,,,,,,,,,,,,,,,,,,,,,,,,,,,,0.102191504,,,,,,,,,,,,,,,,,,,,,,,,,,,,right,1,160,30,190,1,1391.82199,1391.82199,1391.82199,None,None,1,1,0.6294733,,,,,,,,,,,,,,,,,,,10,15,1,2024-10-30_13h31.42.012,uWM_experiment,2022.2.3,59.99311279
,,,,,,,,,,,,,,,,,,,,1,0,1,0,,,,,0,0,0,0,,,,,,,,,,,,,,,,,,,,,,,,,,,,,,,,,,,,,,,,,,,,,,,,,,,,,,,,,,,,,,,,,,,,,,,,,,,,,,,,,,,,,,,,,,,,,,,,,,,,,,,,,,,,1392.471954,1392.471954,space,29.4516363,None,None,,,,,,,,,,,,,10,15,1,2024-10-30_13h31.42.012,uWM_experiment,2022.2.3,59.99311279
,,,,,,,,,,,,,,,,,,,,1,0,1,0,,,,,1,0,1,0,,,,,,,,,,,,,,,,,,,,,,,,,,,,,,,,,,,,,,,,,,,,,,,,,,,,,,,,,,,,,,,,,,,,,,,,,,,,,,,,,,,,,,,,,,,,,,,,,,,,,,,,,,,,,,,,,,,,,,,,,,,,,,10,15,1,2024-10-30_13h31.42.012,uWM_experiment,2022.2.3,59.99311279
,,,,,,,,,,,,,,,,,,,,1,0,1,0,,,,,2,0,2,0,,,,,,,,,,,,,,,,,,,,,,,,,,,,,,,,,,,,,,,,,,,,,,,,,,,,,,,,,,,,,,,,,,,,,,,,,,,,,,,,,,,,,,,,,,,,,,,,,,,,,,,,,,,,,,,,,,,,,,,,,,,,,,10,15,1,2024-10-30_13h31.42.012,uWM_experiment,2022.2.3,59.99311279
,,,,,,,,,,,,,,,,,,,,2,0,2,0,0,0,0,0,,,,,,,,,,,,,,,,,,,,,,,,,,,,,,,,,,,,,,,,,,,,,,,,,,,,,,,,,,,,,,,,,,,,,,0.112191504,,,,,,,,,,,,,,,,,,,,1421.956625,1422.656646,1422.956664,1423.656692,1423.956736,1424.656738,1424.656738,1424.973441,right,1,160,30,190,1,1429.47365,1429.47365,1429.47365,None,None,3,0,0.8258398,,,,,,,None,,,,,,,,,,,,10,15,1,2024-10-30_13h31.42.012,uWM_experiment,2022.2.3,59.99311279
,,,,,,,,,,,,,,,,,,,,2,0,2,0,1,0,1,0,,,,,,,,,,,,,,,,,,,,,,,,,,,,,,,,,,,,,,,,,,,,,,,,,,,,,,,,,,,,,,,,,,,,,,0.102191504,,,,,,,,,,,,,,,,,,,,,,,,,,,,left,1,160,-30,130,1,1435.823922,1435.823922,1435.823922,None,None,3,0,1.0675168,,,,,,,,,,,,,,,,,,,10,15,1,2024-10-30_13h31.42.012,uWM_experiment,2022.2.3,59.99311279
,,,,,,,,,,,,,,,,,,,,2,0,2,0,2,0,2,0,,,,,,,,,,,,,,,,,,,,,,,,,,,,,,,,,,,,,,,,,,,,,,,,,,,,,,,,,,,,,,,,,,,,,,0.092191504,,,,,,,,,,,,,,,,,,,,,,,,,,,,left,0,130,30,160,1,1442.440867,1442.440867,1442.440867,None,None,3,0,2.1066346,,,,,,,,,,,,,,,,,,,10,15,1,2024-10-30_13h31.42.012,uWM_experiment,2022.2.3,59.99311279
,,,,,,,,,,,,,,,,,,,,2,0,2,0,3,0,3,0,,,,,,,,,,,,,,,,,,,,,,,,,,,,,,,,,,,,,,,,,,,,,,,,,,,,,,,,,,,,,,,,,,,,,,0,,,,,,,,,,,,,,,,,,,,,,,,,,,,left,0,70,30,100,0,1450.274577,1450.274577,1450.274577,None,None,1,1,0.4008679,,,,,,,,,,,,,,,,,,,10,15,1,2024-10-30_13h31.42.012,uWM_experiment,2022.2.3,59.99311279
,,,,,,,,,,,,,,,,,,,,2,0,2,0,4,0,4,0,,,,,,,,,,,,,,,,,,,,,,,,,,,,,,,,,,,,,,,,,,,,,,,,,,,,,,,,,,,,,,,,,,,,,,0.082191504,,,,,,,,,,,,,,,,,,,,,,,,,,,,left,1,130,-30,100,1,1456.391485,1456.391485,1456.391485,None,None,1,1,0.4600648,,,,,,,,,,,,,,,,,,,10,15,1,2024-10-30_13h31.42.012,uWM_experiment,2022.2.3,59.99311279
,,,,,,,,,,,,,,,,,,,,2,0,2,0,5,0,5,0,,,,,,,,,,,,,,,,,,,,,,,,,,,,,,,,,,,,,,,,,,,,,,,,,,,,,,,,,,,,,,,,,,,,,,0.092191504,,,,,,,,,,,,,,,,,,,,,,,,,,,,left,0,40,30,70,1,1462.69179,1462.69179,1462.69179,None,None,1,1,0.5117421,,,,,,,,,,,,,,,,,,,10,15,1,2024-10-30_13h31.42.012,uWM_experiment,2022.2.3,59.99311279
,,,,,,,,,,,,,,,,,,,,2,0,2,0,6,0,6,0,,,,,,,,,,,,,,,,,,,,,,,,,,,,,,,,,,,,,,,,,,,,,,,,,,,,,,,,,,,,,,,,,,,,,,0,,,,,,,,,,,,,,,,,,,,,,,,,,,,right,1,40,30,70,0,1469.775438,1469.775438,1469.775438,None,None,1,1,1.0520157,,,,,,,,,,,,,,,,,,,10,15,1,2024-10-30_13h31.42.012,uWM_experiment,2022.2.3,59.99311279
,,,,,,,,,,,,,,,,,,,,2,0,2,0,7,0,7,0,,,,,,,,,,,,,,,,,,,,,,,,,,,,,,,,,,,,,,,,,,,,,,,,,,,,,,,,,,,,,,,,,,,,,,0.102191504,,,,,,,,,,,,,,,,,,,,,,,,,,,,right,0,70,-30,40,1,1476.275714,1476.275714,1476.275714,None,None,3,0,1.7598228,,,,,,,,,,,,,,,,,,,10,15,1,2024-10-30_13h31.42.012,uWM_experiment,2022.2.3,59.99311279
,,,,,,,,,,,,,,,,,,,,2,0,2,0,8,0,8,0,,,,,,,,,,,,,,,,,,,,,,,,,,,,,,,,,,,,,,,,,,,,,,,,,,,,,,,,,,,,,,,,,,,,,,0.092191504,,,,,,,,,,,,,,,,,,,,,,,,,,,,left,0,10,30,40,1,1484.276084,1484.276084,1484.276084,None,None,2,0,0.8634818,,,,,,,,,,,,,,,,,,,10,15,1,2024-10-30_13h31.42.012,uWM_experiment,2022.2.3,59.99311279
,,,,,,,,,,,,,,,,,,,,2,0,2,0,9,0,9,0,,,,,,,,,,,,,,,,,,,,,,,,,,,,,,,,,,,,,,,,,,,,,,,,,,,,,,,,,,,,,,,,,,,,,,0.082191504,,,,,,,,,,,,,,,,,,,,,,,,,,,,left,1,100,-30,70,1,1490.943099,1490.943099,1490.943099,None,None,1,1,0.3484727,,,,,,,,,,,,,,,,,,,10,15,1,2024-10-30_13h31.42.012,uWM_experiment,2022.2.3,59.99311279
,,,,,,,,,,,,,,,,,,,,2,0,2,0,10,0,10,0,,,,,,,,,,,,,,,,,,,,,,,,,,,,,,,,,,,,,,,,,,,,,,,,,,,,,,,,,,,,,,,,,,,,,,0.1,,,,,,,,,,,,,,,,,,,,,,,,,,,,left,1,10,-30,-20,2,1497.226652,1497.226652,1497.226652,None,None,4,0,0.5688882,,,,,,,,,,,,,,,,,,,10,15,1,2024-10-30_13h31.42.012,uWM_experiment,2022.2.3,59.99311279
,,,,,,,,,,,,,,,,,,,,2,0,2,0,11,0,11,0,,,,,,,,,,,,,,,,,,,,,,,,,,,,,,,,,,,,,,,,,,,,,,,,,,,,,,,,,,,,,,,,,,,,,,0.092191504,,,,,,,,,,,,,,,,,,,,,,,,,,,,right,0,40,-30,10,1,1503.293591,1503.293591,1503.293591,None,None,3,0,1.3579745,,,,,,,,,,,,,,,,,,,10,15,1,2024-10-30_13h31.42.012,uWM_experiment,2022.2.3,59.99311279
,,,,,,,,,,,,,,,,,,,,2,0,2,0,12,0,12,0,,,,,,,,,,,,,,,,,,,,,,,,,,,,,,,,,,,,,,,,,,,,,,,,,,,,,,,,,,,,,,,,,,,,,,0.082191504,,,,,,,,,,,,,,,,,,,,,,,,,,,,left,1,160,-30,130,1,1510.077224,1510.077224,1510.077224,None,None,3,0,0.9103754,,,,,,,,,,,,,,,,,,,10,15,1,2024-10-30_13h31.42.012,uWM_experiment,2022.2.3,59.99311279
,,,,,,,,,,,,,,,,,,,,2,0,2,0,13,0,13,0,,,,,,,,,,,,,,,,,,,,,,,,,,,,,,,,,,,,,,,,,,,,,,,,,,,,,,,,,,,,,,,,,,,,,,0.072191504,,,,,,,,,,,,,,,,,,,,,,,,,,,,left,0,40,30,70,1,1516.627529,1516.627529,1516.627529,None,None,3,0,1.0640006,,,,,,,,,,,,,,,,,,,10,15,1,2024-10-30_13h31.42.012,uWM_experiment,2022.2.3,59.99311279
,,,,,,,,,,,,,,,,,,,,2,0,2,0,14,0,14,0,,,,,,,,,,,,,,,,,,,,,,,,,,,,,,,,,,,,,,,,,,,,,,,,,,,,,,,,,,,,,,,,,,,,,,0,,,,,,,,,,,,,,,,,,,,,,,,,,,,left,1,130,-30,100,0,1523.161141,1523.161141,1523.161141,None,None,1,1,0.466392,,,,,,,,,,,,,,,,,,,10,15,1,2024-10-30_13h31.42.012,uWM_experiment,2022.2.3,59.99311279
,,,,,,,,,,,,,,,,,,,,2,0,2,0,15,0,15,0,,,,,,,,,,,,,,,,,,,,,,,,,,,,,,,,,,,,,,,,,,,,,,,,,,,,,,,,,,,,,,,,,,,,,,0.062191504,,,,,,,,,,,,,,,,,,,,,,,,,,,,right,0,100,-30,70,1,1529.661433,1529.661433,1529.661433,None,None,1,1,0.6620797,,,,,,,,,,,,,,,,,,,10,15,1,2024-10-30_13h31.42.012,uWM_experiment,2022.2.3,59.99311279
,,,,,,,,,,,,,,,,,,,,2,0,2,0,16,0,16,0,,,,,,,,,,,,,,,,,,,,,,,,,,,,,,,,,,,,,,,,,,,,,,,,,,,,,,,,,,,,,,,,,,,,,,0.072191504,,,,,,,,,,,,,,,,,,,,,,,,,,,,left,1,130,-30,100,1,1536.361709,1536.361709,1536.361709,None,None,1,1,0.6099413,,,,,,,,,,,,,,,,,,,10,15,1,2024-10-30_13h31.42.012,uWM_experiment,2022.2.3,59.99311279
,,,,,,,,,,,,,,,,,,,,2,0,2,0,17,0,17,0,,,,,,,,,,,,,,,,,,,,,,,,,,,,,,,,,,,,,,,,,,,,,,,,,,,,,,,,,,,,,,,,,,,,,,0.082191504,,,,,,,,,,,,,,,,,,,,,,,,,,,,left,1,10,-30,-20,1,1542.745365,1542.745365,1542.745365,None,None,1,1,0.6584194,,,,,,,,,,,,,,,,,,,10,15,1,2024-10-30_13h31.42.012,uWM_experiment,2022.2.3,59.99311279
,,,,,,,,,,,,,,,,,,,,2,0,2,0,18,0,18,0,,,,,,,,,,,,,,,,,,,,,,,,,,,,,,,,,,,,,,,,,,,,,,,,,,,,,,,,,,,,,,,,,,,,,,0.092191504,,,,,,,,,,,,,,,,,,,,,,,,,,,,right,1,160,30,190,1,1549.178995,1549.178995,1549.178995,None,None,1,1,1.1925964,,,,,,,,,,,,,,,,,,,10,15,1,2024-10-30_13h31.42.012,uWM_experiment,2022.2.3,59.99311279
,,,,,,,,,,,,,,,,,,,,2,0,2,0,19,0,19,0,,,,,,,,,,,,,,,,,,,,,,,,,,,,,,,,,,,,,,,,,,,,,,,,,,,,,,,,,,,,,,,,,,,,,,0.102191504,,,,,,,,,,,,,,,,,,,,,,,,,,,,left,1,10,-30,-20,1,1555.845947,1555.845947,1555.845947,None,None,2,0,1.1896859,,,,,,,,,,,,,,,,,,,10,15,1,2024-10-30_13h31.42.012,uWM_experiment,2022.2.3,59.99311279
,,,,,,,,,,,,,,,,,,,,2,0,2,0,20,0,20,0,,,,,,,,,,,,,,,,,,,,,,,,,,,,,,,,,,,,,,,,,,,,,,,,,,,,,,,,,,,,,,,,,,,,,,0.092191504,,,,,,,,,,,,,,,,,,,,,,,,,,,,left,0,100,30,130,1,1562.679588,1562.679588,1562.679588,None,None,2,0,0.3719774,,,,,,,,,,,,,,,,,,,10,15,1,2024-10-30_13h31.42.012,uWM_experiment,2022.2.3,59.99311279
,,,,,,,,,,,,,,,,,,,,2,0,2,0,21,0,21,0,,,,,,,,,,,,,,,,,,,,,,,,,,,,,,,,,,,,,,,,,,,,,,,,,,,,,,,,,,,,,,,,,,,,,,0.082191504,,,,,,,,,,,,,,,,,,,,,,,,,,,,left,1,130,-30,100,1,1568.54653,1568.54653,1568.54653,None,None,1,1,0.6172861,,,,,,,,,,,,,,,,,,,10,15,1,2024-10-30_13h31.42.012,uWM_experiment,2022.2.3,59.99311279
,,,,,,,,,,,,,,,,,,,,2,0,2,0,22,0,22,0,,,,,,,,,,,,,,,,,,,,,,,,,,,,,,,,,,,,,,,,,,,,,,,,,,,,,,,,,,,,,,,,,,,,,,0.092191504,,,,,,,,,,,,,,,,,,,,,,,,,,,,left,0,70,30,100,1,1575.530168,1575.530168,1575.530168,None,None,1,1,1.2815007,,,,,,,,,,,,,,,,,,,10,15,1,2024-10-30_13h31.42.012,uWM_experiment,2022.2.3,59.99311279
,,,,,,,,,,,,,,,,,,,,2,0,2,0,23,0,23,0,,,,,,,,,,,,,,,,,,,,,,,,,,,,,,,,,,,,,,,,,,,,,,,,,,,,,,,,,,,,,,,,,,,,,,0.102191504,,,,,,,,,,,,,,,,,,,,,,,,,,,,left,0,40,30,70,1,1582.997138,1582.997138,1582.997138,None,None,1,1,0.5104524,,,,,,,,,,,,,,,,,,,10,15,1,2024-10-30_13h31.42.012,uWM_experiment,2022.2.3,59.99311279
,,,,,,,,,,,,,,,,,,,,2,0,2,0,,,,,0,0,0,0,,,,,,,,,,,,,,,,,,,,,,,,,,,,,,,,,,,,,,,,,,,,,,,,,,,,,,,,,,,,,,,,,,,,,,,,,,,,,,,,,,,,,,,,,,,,,,,,,,,,,,,,,,,,1583.53051,1583.53051,space,37.9451678,space,None,,1621.498875,1621.498875,7.6006948,,,,,,,,,10,15,1,2024-10-30_13h31.42.012,uWM_experiment,2022.2.3,59.99311279
,,,,,,,,,,,,,,,,,,,,2,0,2,0,,,,,1,0,1,0,,,,,,,,,,,,,,,,,,,,,,,,,,,,,,,,,,,,,,,,,,,,,,,,,,,,,,,,,,,,,,,,,,,,,,,,,,,,,,,,,,,,,,,,,,,,,,,,,,,,,,,,,,,,,,,,,,,,,,,,,,,,,,10,15,1,2024-10-30_13h31.42.012,uWM_experiment,2022.2.3,59.99311279
,,,,,,,,,,,,,,,,,,,,2,0,2,0,,,,,2,0,2,0,,,,,,,,,,,,,,,,,,,,,,,,,,,,,,,,,,,,,,,,,,,,,,,,,,,,,,,,,,,,,,,,,,,,,,,,,,,,,,,,,,,,,,,,,,,,,,,,,,,,,,,,,,,,,,,,,,,,,,,,,,,,,,10,15,1,2024-10-30_13h31.42.012,uWM_experiment,2022.2.3,59.99311279
,,,,,,,,,,,,,,,,,,,,3,0,3,0,0,0,0,0,,,,,,,,,,,,,,,,,,,,,,,,,,,,,,,,,,,,,,,,,,,,,,,,,,,,,,,,,,,,,,,,,,,,,,0,,,,,,,,,,,,,,,,,,,,1629.132562,1629.832578,1630.132581,1630.832624,1631.13264,1631.832665,1631.832665,1632.149382,right,1,10,30,40,0,1637.482937,1637.482937,1637.482937,None,None,1,1,1.3206015,,,,,,,None,,,,,,,,,,,,10,15,1,2024-10-30_13h31.42.012,uWM_experiment,2022.2.3,59.99311279
,,,,,,,,,,,,,,,,,,,,3,0,3,0,1,0,1,0,,,,,,,,,,,,,,,,,,,,,,,,,,,,,,,,,,,,,,,,,,,,,,,,,,,,,,,,,,,,,,,,,,,,,,0,,,,,,,,,,,,,,,,,,,,,,,,,,,,left,1,10,-30,-20,0,1646.666671,1646.666671,1646.666671,None,None,1,1,0.6969505,,,,,,,,,,,,,,,,,,,10,15,1,2024-10-30_13h31.42.012,uWM_experiment,2022.2.3,59.99311279
,,,,,,,,,,,,,,,,,,,,3,0,3,0,2,0,2,0,,,,,,,,,,,,,,,,,,,,,,,,,,,,,,,,,,,,,,,,,,,,,,,,,,,,,,,,,,,,,,,,,,,,,,0,,,,,,,,,,,,,,,,,,,,,,,,,,,,right,0,70,-30,40,0,1653.133632,1653.133632,1653.133632,None,None,1,1,0.7339254,,,,,,,,,,,,,,,,,,,10,15,1,2024-10-30_13h31.42.012,uWM_experiment,2022.2.3,59.99311279
,,,,,,,,,,,,,,,,,,,,3,0,3,0,3,0,3,0,,,,,,,,,,,,,,,,,,,,,,,,,,,,,,,,,,,,,,,,,,,,,,,,,,,,,,,,,,,,,,,,,,,,,,0,,,,,,,,,,,,,,,,,,,,,,,,,,,,right,0,40,-30,10,0,1659.717258,1659.717258,1659.717258,None,None,1,1,0.7663689,,,,,,,,,,,,,,,,,,,10,15,1,2024-10-30_13h31.42.012,uWM_experiment,2022.2.3,59.99311279
,,,,,,,,,,,,,,,,,,,,3,0,3,0,4,0,4,0,,,,,,,,,,,,,,,,,,,,,,,,,,,,,,,,,,,,,,,,,,,,,,,,,,,,,,,,,,,,,,,,,,,,,,0,,,,,,,,,,,,,,,,,,,,,,,,,,,,left,0,40,30,70,0,1667.184268,1667.184268,1667.184268,None,None,1,1,1.0834452,,,,,,,,,,,,,,,,,,,10,15,1,2024-10-30_13h31.42.012,uWM_experiment,2022.2.3,59.99311279
,,,,,,,,,,,,,,,,,,,,3,0,3,0,5,0,5,0,,,,,,,,,,,,,,,,,,,,,,,,,,,,,,,,,,,,,,,,,,,,,,,,,,,,,,,,,,,,,,,,,,,,,,0.112191504,,,,,,,,,,,,,,,,,,,,,,,,,,,,left,0,130,30,160,1,1674.117887,1674.117887,1674.117887,None,None,3,0,1.2938116,,,,,,,,,,,,,,,,,,,10,15,1,2024-10-30_13h31.42.012,uWM_experiment,2022.2.3,59.99311279
,,,,,,,,,,,,,,,,,,,,3,0,3,0,6,0,6,0,,,,,,,,,,,,,,,,,,,,,,,,,,,,,,,,,,,,,,,,,,,,,,,,,,,,,,,,,,,,,,,,,,,,,,0.102191504,,,,,,,,,,,,,,,,,,,,,,,,,,,,right,1,10,30,40,1,1681.168237,1681.168237,1681.168237,None,None,2,0,1.1635587,,,,,,,,,,,,,,,,,,,10,15,1,2024-10-30_13h31.42.012,uWM_experiment,2022.2.3,59.99311279
,,,,,,,,,,,,,,,,,,,,3,0,3,0,7,0,7,0,,,,,,,,,,,,,,,,,,,,,,,,,,,,,,,,,,,,,,,,,,,,,,,,,,,,,,,,,,,,,,,,,,,,,,0.092191504,,,,,,,,,,,,,,,,,,,,,,,,,,,,right,0,70,-30,40,1,1687.985203,1687.985203,1687.985203,None,None,2,0,0.5065417,,,,,,,,,,,,,,,,,,,10,15,1,2024-10-30_13h31.42.012,uWM_experiment,2022.2.3,59.99311279
,,,,,,,,,,,,,,,,,,,,3,0,3,0,8,0,8,0,,,,,,,,,,,,,,,,,,,,,,,,,,,,,,,,,,,,,,,,,,,,,,,,,,,,,,,,,,,,,,,,,,,,,,0.082191504,,,,,,,,,,,,,,,,,,,,,,,,,,,,left,1,160,-30,130,1,1696.885573,1696.885573,1696.885573,None,None,2,0,0.9980738,,,,,,,,,,,,,,,,,,,10,15,1,2024-10-30_13h31.42.012,uWM_experiment,2022.2.3,59.99311279
,,,,,,,,,,,,,,,,,,,,3,0,3,0,9,0,9,0,,,,,,,,,,,,,,,,,,,,,,,,,,,,,,,,,,,,,,,,,,,,,,,,,,,,,,,,,,,,,,,,,,,,,,0.072191504,,,,,,,,,,,,,,,,,,,,,,,,,,,,right,1,160,30,190,1,1703.369202,1703.369202,1703.369202,None,None,2,0,0.7305305,,,,,,,,,,,,,,,,,,,10,15,1,2024-10-30_13h31.42.012,uWM_experiment,2022.2.3,59.99311279
,,,,,,,,,,,,,,,,,,,,3,0,3,0,10,0,10,0,,,,,,,,,,,,,,,,,,,,,,,,,,,,,,,,,,,,,,,,,,,,,,,,,,,,,,,,,,,,,,,,,,,,,,0.062191504,,,,,,,,,,,,,,,,,,,,,,,,,,,,right,1,40,30,70,1,1710.402896,1710.402896,1710.402896,None,None,2,0,1.1928378,,,,,,,,,,,,,,,,,,,10,15,1,2024-10-30_13h31.42.012,uWM_experiment,2022.2.3,59.99311279
,,,,,,,,,,,,,,,,,,,,3,0,3,0,11,0,11,0,,,,,,,,,,,,,,,,,,,,,,,,,,,,,,,,,,,,,,,,,,,,,,,,,,,,,,,,,,,,,,,,,,,,,,0.052191504,,,,,,,,,,,,,,,,,,,,,,,,,,,,left,1,10,-30,-20,1,1717.153173,1717.153173,1717.153173,None,None,2,0,0.6664523,,,,,,,,,,,,,,,,,,,10,15,1,2024-10-30_13h31.42.012,uWM_experiment,2022.2.3,59.99311279
,,,,,,,,,,,,,,,,,,,,3,0,3,0,12,0,12,0,,,,,,,,,,,,,,,,,,,,,,,,,,,,,,,,,,,,,,,,,,,,,,,,,,,,,,,,,,,,,,,,,,,,,,0,,,,,,,,,,,,,,,,,,,,,,,,,,,,right,1,160,30,190,0,1723.286786,1723.286786,1723.286786,None,None,2,0,0.9568698,,,,,,,,,,,,,,,,,,,10,15,1,2024-10-30_13h31.42.012,uWM_experiment,2022.2.3,59.99311279
,,,,,,,,,,,,,,,,,,,,3,0,3,0,13,0,13,0,,,,,,,,,,,,,,,,,,,,,,,,,,,,,,,,,,,,,,,,,,,,,,,,,,,,,,,,,,,,,,,,,,,,,,0,,,,,,,,,,,,,,,,,,,,,,,,,,,,left,0,40,30,70,0,1729.953716,1729.953716,1729.953716,None,None,1,1,0.5620355,,,,,,,,,,,,,,,,,,,10,15,1,2024-10-30_13h31.42.012,uWM_experiment,2022.2.3,59.99311279
,,,,,,,,,,,,,,,,,,,,3,0,3,0,14,0,14,0,,,,,,,,,,,,,,,,,,,,,,,,,,,,,,,,,,,,,,,,,,,,,,,,,,,,,,,,,,,,,,,,,,,,,,0.042191504,,,,,,,,,,,,,,,,,,,,,,,,,,,,right,0,70,-30,40,1,1735.970688,1735.970688,1735.970688,None,None,1,1,1.3130691,,,,,,,,,,,,,,,,,,,10,15,1,2024-10-30_13h31.42.012,uWM_experiment,2022.2.3,59.99311279
,,,,,,,,,,,,,,,,,,,,3,0,3,0,15,0,15,0,,,,,,,,,,,,,,,,,,,,,,,,,,,,,,,,,,,,,,,,,,,,,,,,,,,,,,,,,,,,,,,,,,,,,,0.052191504,,,,,,,,,,,,,,,,,,,,,,,,,,,,left,1,130,-30,100,1,1744.404401,1744.404401,1744.404401,None,None,2,0,0.823308,,,,,,,,,,,,,,,,,,,10,15,1,2024-10-30_13h31.42.012,uWM_experiment,2022.2.3,59.99311279
,,,,,,,,,,,,,,,,,,,,3,0,3,0,16,0,16,0,,,,,,,,,,,,,,,,,,,,,,,,,,,,,,,,,,,,,,,,,,,,,,,,,,,,,,,,,,,,,,,,,,,,,,0.042191504,,,,,,,,,,,,,,,,,,,,,,,,,,,,left,0,40,30,70,1,1751.454686,1751.454686,1751.454686,None,None,1,1,1.0129882,,,,,,,,,,,,,,,,,,,10,15,1,2024-10-30_13h31.42.012,uWM_experiment,2022.2.3,59.99311279
,,,,,,,,,,,,,,,,,,,,3,0,3,0,17,0,17,0,,,,,,,,,,,,,,,,,,,,,,,,,,,,,,,,,,,,,,,,,,,,,,,,,,,,,,,,,,,,,,,,,,,,,,0.052191504,,,,,,,,,,,,,,,,,,,,,,,,,,,,left,1,160,-30,130,1,1758.088332,1758.088332,1758.088332,None,None,1,1,1.4835812,,,,,,,,,,,,,,,,,,,10,15,1,2024-10-30_13h31.42.012,uWM_experiment,2022.2.3,59.99311279
,,,,,,,,,,,,,,,,,,,,3,0,3,0,18,0,18,0,,,,,,,,,,,,,,,,,,,,,,,,,,,,,,,,,,,,,,,,,,,,,,,,,,,,,,,,,,,,,,,,,,,,,,0.062191504,,,,,,,,,,,,,,,,,,,,,,,,,,,,left,1,130,-30,100,1,1765.388642,1765.388642,1765.388642,None,None,1,1,1.5910779,,,,,,,,,,,,,,,,,,,10,15,1,2024-10-30_13h31.42.012,uWM_experiment,2022.2.3,59.99311279
,,,,,,,,,,,,,,,,,,,,3,0,3,0,19,0,19,0,,,,,,,,,,,,,,,,,,,,,,,,,,,,,,,,,,,,,,,,,,,,,,,,,,,,,,,,,,,,,,,,,,,,,,0.072191504,,,,,,,,,,,,,,,,,,,,,,,,,,,,right,1,70,30,100,1,1773.172344,1773.172344,1773.172344,None,None,1,1,1.2633262,,,,,,,,,,,,,,,,,,,10,15,1,2024-10-30_13h31.42.012,uWM_experiment,2022.2.3,59.99311279
,,,,,,,,,,,,,,,,,,,,3,0,3,0,20,0,20,0,,,,,,,,,,,,,,,,,,,,,,,,,,,,,,,,,,,,,,,,,,,,,,,,,,,,,,,,,,,,,,,,,,,,,,0,,,,,,,,,,,,,,,,,,,,,,,,,,,,right,0,160,-30,130,0,1781.589385,1781.589385,1781.589385,None,None,1,1,1.8782942,,,,,,,,,,,,,,,,,,,10,15,1,2024-10-30_13h31.42.012,uWM_experiment,2022.2.3,59.99311279
,,,,,,,,,,,,,,,,,,,,3,0,3,0,21,0,21,0,,,,,,,,,,,,,,,,,,,,,,,,,,,,,,,,,,,,,,,,,,,,,,,,,,,,,,,,,,,,,,,,,,,,,,0,,,,,,,,,,,,,,,,,,,,,,,,,,,,left,1,130,-30,100,0,1790.30644,1790.30644,1790.30644,None,None,1,1,2.0333542,,,,,,,,,,,,,,,,,,,10,15,1,2024-10-30_13h31.42.012,uWM_experiment,2022.2.3,59.99311279
,,,,,,,,,,,,,,,,,,,,3,0,3,0,22,0,22,0,,,,,,,,,,,,,,,,,,,,,,,,,,,,,,,,,,,,,,,,,,,,,,,,,,,,,,,,,,,,,,,,,,,,,,0.082191504,,,,,,,,,,,,,,,,,,,,,,,,,,,,right,0,100,-30,70,1,1798.50683,1798.50683,1798.50683,None,None,1,1,0.9688013,,,,,,,,,,,,,,,,,,,10,15,1,2024-10-30_13h31.42.012,uWM_experiment,2022.2.3,59.99311279
,,,,,,,,,,,,,,,,,,,,3,0,3,0,23,0,23,0,,,,,,,,,,,,,,,,,,,,,,,,,,,,,,,,,,,,,,,,,,,,,,,,,,,,,,,,,,,,,,,,,,,,,,0.1,,,,,,,,,,,,,,,,,,,,,,,,,,,,left,0,10,30,40,2,1806.473857,1806.473857,1806.473857,None,None,4,0,0.6658268,,,,,,,,,,,,,,,,,,,10,15,1,2024-10-30_13h31.42.012,uWM_experiment,2022.2.3,59.99311279
,,,,,,,,,,,,,,,,,,,,3,0,3,0,,,,,0,0,0,0,,,,,,,,,,,,,,,,,,,,,,,,,,,,,,,,,,,,,,,,,,,,,,,,,,,,,,,,,,,,,,,,,,,,,,,,,,,,,,,,,,,,,,,,,,,,,,,,,,,,,,,,,,,,1807.157166,1807.157166,space,17.7986154,None,None,,,,,,,,,,,,,10,15,1,2024-10-30_13h31.42.012,uWM_experiment,2022.2.3,59.99311279
,,,,,,,,,,,,,,,,,,,,3,0,3,0,,,,,1,0,1,0,,,,,,,,,,,,,,,,,,,,,,,,,,,,,,,,,,,,,,,,,,,,,,,,,,,,,,,,,,,,,,,,,,,,,,,,,,,,,,,,,,,,,,,,,,,,,,,,,,,,,,,,,,,,,,,,,,,,,,,,,,,,,,10,15,1,2024-10-30_13h31.42.012,uWM_experiment,2022.2.3,59.99311279
,,,,,,,,,,,,,,,,,,,,3,0,3,0,,,,,2,0,2,0,,,,,,,,,,,,,,,,,,,,,,,,,,,,,,,,,,,,,,,,,,,,,,,,,,,,,,,,,,,,,,,,,,,,,,,,,,,,,,,,,,,,,,,,,,,,,,,,,,,,,,,,,,,,,,,,,,,,,,,,,,,,,,10,15,1,2024-10-30_13h31.42.012,uWM_experiment,2022.2.3,59.99311279
,,,,,,,,,,,,,,,,,,,,4,0,4,0,0,0,0,0,,,,,,,,,,,,,,,,,,,,,,,,,,,,,,,,,,,,,,,,,,,,,,,,,,,,,,,,,,,,,,,,,,,,,,0.092191504,,,,,,,,,,,,,,,,,,,,1824.97464,1825.674689,1825.974682,1826.674701,1826.97473,1827.674754,1827.674754,1827.99147,right,1,100,30,130,1,1834.125068,1834.125068,1834.125068,None,None,1,1,1.0705838,,,,,,,None,,,,,,,,,,,,10,15,1,2024-10-30_13h31.42.012,uWM_experiment,2022.2.3,59.99311279
,,,,,,,,,,,,,,,,,,,,4,0,4,0,1,0,1,0,,,,,,,,,,,,,,,,,,,,,,,,,,,,,,,,,,,,,,,,,,,,,,,,,,,,,,,,,,,,,,,,,,,,,,0.102191504,,,,,,,,,,,,,,,,,,,,,,,,,,,,right,0,100,-30,70,1,1841.358719,1841.358719,1841.358719,None,None,3,0,0.3970356,,,,,,,,,,,,,,,,,,,10,15,1,2024-10-30_13h31.42.012,uWM_experiment,2022.2.3,59.99311279
,,,,,,,,,,,,,,,,,,,,4,0,4,0,2,0,2,0,,,,,,,,,,,,,,,,,,,,,,,,,,,,,,,,,,,,,,,,,,,,,,,,,,,,,,,,,,,,,,,,,,,,,,0.092191504,,,,,,,,,,,,,,,,,,,,,,,,,,,,right,1,70,30,100,1,1847.925684,1847.925684,1847.925684,None,None,2,0,0.5740691,,,,,,,,,,,,,,,,,,,10,15,1,2024-10-30_13h31.42.012,uWM_experiment,2022.2.3,59.99311279
,,,,,,,,,,,,,,,,,,,,4,0,4,0,3,0,3,0,,,,,,,,,,,,,,,,,,,,,,,,,,,,,,,,,,,,,,,,,,,,,,,,,,,,,,,,,,,,,,,,,,,,,,0.082191504,,,,,,,,,,,,,,,,,,,,,,,,,,,,left,0,100,30,130,1,1854.009307,1854.009307,1854.009307,None,None,2,0,1.2023601,,,,,,,,,,,,,,,,,,,10,15,1,2024-10-30_13h31.42.012,uWM_experiment,2022.2.3,59.99311279
,,,,,,,,,,,,,,,,,,,,4,0,4,0,4,0,4,0,,,,,,,,,,,,,,,,,,,,,,,,,,,,,,,,,,,,,,,,,,,,,,,,,,,,,,,,,,,,,,,,,,,,,,0.072191504,,,,,,,,,,,,,,,,,,,,,,,,,,,,right,1,40,30,70,1,1861.426255,1861.426255,1861.426255,None,None,1,1,0.3534462,,,,,,,,,,,,,,,,,,,10,15,1,2024-10-30_13h31.42.012,uWM_experiment,2022.2.3,59.99311279
,,,,,,,,,,,,,,,,,,,,4,0,4,0,5,0,5,0,,,,,,,,,,,,,,,,,,,,,,,,,,,,,,,,,,,,,,,,,,,,,,,,,,,,,,,,,,,,,,,,,,,,,,0.082191504,,,,,,,,,,,,,,,,,,,,,,,,,,,,left,0,100,30,130,1,1868.793284,1868.793284,1868.793284,None,None,1,1,0.6825077,,,,,,,,,,,,,,,,,,,10,15,1,2024-10-30_13h31.42.012,uWM_experiment,2022.2.3,59.99311279
,,,,,,,,,,,,,,,,,,,,4,0,4,0,6,0,6,0,,,,,,,,,,,,,,,,,,,,,,,,,,,,,,,,,,,,,,,,,,,,,,,,,,,,,,,,,,,,,,,,,,,,,,0.092191504,,,,,,,,,,,,,,,,,,,,,,,,,,,,right,0,70,-30,40,1,1875.076886,1875.076886,1875.076886,None,None,1,1,1.1109433,,,,,,,,,,,,,,,,,,,10,15,1,2024-10-30_13h31.42.012,uWM_experiment,2022.2.3,59.99311279
,,,,,,,,,,,,,,,,,,,,4,0,4,0,7,0,7,0,,,,,,,,,,,,,,,,,,,,,,,,,,,,,,,,,,,,,,,,,,,,,,,,,,,,,,,,,,,,,,,,,,,,,,0.102191504,,,,,,,,,,,,,,,,,,,,,,,,,,,,left,1,10,-30,-20,1,1881.793861,1881.793861,1881.793861,None,None,2,0,0.4898949,,,,,,,,,,,,,,,,,,,10,15,1,2024-10-30_13h31.42.012,uWM_experiment,2022.2.3,59.99311279
,,,,,,,,,,,,,,,,,,,,4,0,4,0,8,0,8,0,,,,,,,,,,,,,,,,,,,,,,,,,,,,,,,,,,,,,,,,,,,,,,,,,,,,,,,,,,,,,,,,,,,,,,0.092191504,,,,,,,,,,,,,,,,,,,,,,,,,,,,right,1,160,30,190,1,1887.760806,1887.760806,1887.760806,None,None,1,1,0.8669382,,,,,,,,,,,,,,,,,,,10,15,1,2024-10-30_13h31.42.012,uWM_experiment,2022.2.3,59.99311279
,,,,,,,,,,,,,,,,,,,,4,0,4,0,9,0,9,0,,,,,,,,,,,,,,,,,,,,,,,,,,,,,,,,,,,,,,,,,,,,,,,,,,,,,,,,,,,,,,,,,,,,,,0,,,,,,,,,,,,,,,,,,,,,,,,,,,,right,1,160,30,190,0,1894.094414,1894.094414,1894.094414,None,None,1,1,0.613423,,,,,,,,,,,,,,,,,,,10,15,1,2024-10-30_13h31.42.012,uWM_experiment,2022.2.3,59.99311279
,,,,,,,,,,,,,,,,,,,,4,0,4,0,10,0,10,0,,,,,,,,,,,,,,,,,,,,,,,,,,,,,,,,,,,,,,,,,,,,,,,,,,,,,,,,,,,,,,,,,,,,,,0.102191504,,,,,,,,,,,,,,,,,,,,,,,,,,,,right,0,40,-30,10,1,1901.728063,1901.728063,1901.728063,None,None,2,0,0.5078082,,,,,,,,,,,,,,,,,,,10,15,1,2024-10-30_13h31.42.012,uWM_experiment,2022.2.3,59.99311279
,,,,,,,,,,,,,,,,,,,,4,0,4,0,11,0,11,0,,,,,,,,,,,,,,,,,,,,,,,,,,,,,,,,,,,,,,,,,,,,,,,,,,,,,,,,,,,,,,,,,,,,,,0.092191504,,,,,,,,,,,,,,,,,,,,,,,,,,,,left,0,130,30,160,1,1907.728342,1907.728342,1907.728342,None,None,1,1,0.3954065,,,,,,,,,,,,,,,,,,,10,15,1,2024-10-30_13h31.42.012,uWM_experiment,2022.2.3,59.99311279
,,,,,,,,,,,,,,,,,,,,4,0,4,0,12,0,12,0,,,,,,,,,,,,,,,,,,,,,,,,,,,,,,,,,,,,,,,,,,,,,,,,,,,,,,,,,,,,,,,,,,,,,,0.102191504,,,,,,,,,,,,,,,,,,,,,,,,,,,,right,1,10,30,40,1,1913.895311,1913.895311,1913.895311,None,None,2,0,1.3324934,,,,,,,,,,,,,,,,,,,10,15,1,2024-10-30_13h31.42.012,uWM_experiment,2022.2.3,59.99311279
,,,,,,,,,,,,,,,,,,,,4,0,4,0,13,0,13,0,,,,,,,,,,,,,,,,,,,,,,,,,,,,,,,,,,,,,,,,,,,,,,,,,,,,,,,,,,,,,,,,,,,,,,0.092191504,,,,,,,,,,,,,,,,,,,,,,,,,,,,right,0,70,-30,40,1,1921.545639,1921.545639,1921.545639,None,None,1,1,1.0743215,,,,,,,,,,,,,,,,,,,10,15,1,2024-10-30_13h31.42.012,uWM_experiment,2022.2.3,59.99311279
,,,,,,,,,,,,,,,,,,,,4,0,4,0,14,0,14,0,,,,,,,,,,,,,,,,,,,,,,,,,,,,,,,,,,,,,,,,,,,,,,,,,,,,,,,,,,,,,,,,,,,,,,0.1,,,,,,,,,,,,,,,,,,,,,,,,,,,,right,0,130,-30,100,2,1928.812662,1928.812662,1928.812662,None,None,4,0,0.7751829,,,,,,,,,,,,,,,,,,,10,15,1,2024-10-30_13h31.42.012,uWM_experiment,2022.2.3,59.99311279
,,,,,,,,,,,,,,,,,,,,4,0,4,0,15,0,15,0,,,,,,,,,,,,,,,,,,,,,,,,,,,,,,,,,,,,,,,,,,,,,,,,,,,,,,,,,,,,,,,,,,,,,,0.102191504,,,,,,,,,,,,,,,,,,,,,,,,,,,,right,0,100,-30,70,1,1936.062957,1936.062957,1936.062957,None,None,2,0,0.6448859,,,,,,,,,,,,,,,,,,,10,15,1,2024-10-30_13h31.42.012,uWM_experiment,2022.2.3,59.99311279
,,,,,,,,,,,,,,,,,,,,4,0,4,0,16,0,16,0,,,,,,,,,,,,,,,,,,,,,,,,,,,,,,,,,,,,,,,,,,,,,,,,,,,,,,,,,,,,,,,,,,,,,,0.092191504,,,,,,,,,,,,,,,,,,,,,,,,,,,,right,1,160,30,190,1,1942.42988,1942.42988,1942.42988,None,None,2,0,0.5420191,,,,,,,,,,,,,,,,,,,10,15,1,2024-10-30_13h31.42.012,uWM_experiment,2022.2.3,59.99311279
,,,,,,,,,,,,,,,,,,,,4,0,4,0,17,0,17,0,,,,,,,,,,,,,,,,,,,,,,,,,,,,,,,,,,,,,,,,,,,,,,,,,,,,,,,,,,,,,,,,,,,,,,0.082191504,,,,,,,,,,,,,,,,,,,,,,,,,,,,left,1,70,-30,40,1,1948.780216,1948.780216,1948.780216,None,None,2,0,1.2076023,,,,,,,,,,,,,,,,,,,10,15,1,2024-10-30_13h31.42.012,uWM_experiment,2022.2.3,59.99311279
,,,,,,,,,,,,,,,,,,,,4,0,4,0,18,0,18,0,,,,,,,,,,,,,,,,,,,,,,,,,,,,,,,,,,,,,,,,,,,,,,,,,,,,,,,,,,,,,,,,,,,,,,0.072191504,,,,,,,,,,,,,,,,,,,,,,,,,,,,left,1,10,-30,-20,1,1955.447145,1955.447145,1955.447145,None,None,1,1,0.5326642,,,,,,,,,,,,,,,,,,,10,15,1,2024-10-30_13h31.42.012,uWM_experiment,2022.2.3,59.99311279
,,,,,,,,,,,,,,,,,,,,4,0,4,0,19,0,19,0,,,,,,,,,,,,,,,,,,,,,,,,,,,,,,,,,,,,,,,,,,,,,,,,,,,,,,,,,,,,,,,,,,,,,,0.1,,,,,,,,,,,,,,,,,,,,,,,,,,,,right,0,70,-30,40,2,1961.664105,1961.664105,1961.664105,None,None,4,0,0.6437809,,,,,,,,,,,,,,,,,,,10,15,1,2024-10-30_13h31.42.012,uWM_experiment,2022.2.3,59.99311279
,,,,,,,,,,,,,,,,,,,,4,0,4,0,20,0,20,0,,,,,,,,,,,,,,,,,,,,,,,,,,,,,,,,,,,,,,,,,,,,,,,,,,,,,,,,,,,,,,,,,,,,,,0.082191504,,,,,,,,,,,,,,,,,,,,,,,,,,,,left,0,130,30,160,1,1967.731037,1967.731037,1967.731037,None,None,3,0,0.6568131,,,,,,,,,,,,,,,,,,,10,15,1,2024-10-30_13h31.42.012,uWM_experiment,2022.2.3,59.99311279
,,,,,,,,,,,,,,,,,,,,4,0,4,0,21,0,21,0,,,,,,,,,,,,,,,,,,,,,,,,,,,,,,,,,,,,,,,,,,,,,,,,,,,,,,,,,,,,,,,,,,,,,,0.1,,,,,,,,,,,,,,,,,,,,,,,,,,,,left,1,160,-30,130,2,1974.264746,1974.264746,1974.264746,None,None,4,0,0.6030151,,,,,,,,,,,,,,,,,,,10,15,1,2024-10-30_13h31.42.012,uWM_experiment,2022.2.3,59.99311279
,,,,,,,,,,,,,,,,,,,,4,0,4,0,22,0,22,0,,,,,,,,,,,,,,,,,,,,,,,,,,,,,,,,,,,,,,,,,,,,,,,,,,,,,,,,,,,,,,,,,,,,,,0,,,,,,,,,,,,,,,,,,,,,,,,,,,,left,1,10,-30,-20,0,1980.231611,1980.231611,1980.231611,None,None,1,1,0.5482529,,,,,,,,,,,,,,,,,,,10,15,1,2024-10-30_13h31.42.012,uWM_experiment,2022.2.3,59.99311279
,,,,,,,,,,,,,,,,,,,,4,0,4,0,23,0,23,0,,,,,,,,,,,,,,,,,,,,,,,,,,,,,,,,,,,,,,,,,,,,,,,,,,,,,,,,,,,,,,,,,,,,,,0,,,,,,,,,,,,,,,,,,,,,,,,,,,,right,0,130,-30,100,0,1986.565208,1986.565208,1986.565208,None,None,1,1,1.1267049,,,,,,,,,,,,,,,,,,,10,15,1,2024-10-30_13h31.42.012,uWM_experiment,2022.2.3,59.99311279
,,,,,,,,,,,,,,,,,,,,4,0,4,0,,,,,0,0,0,0,,,,,,,,,,,,,,,,,,,,,,,,,,,,,,,,,,,,,,,,,,,,,,,,,,,,,,,,,,,,,,,,,,,,,,,,,,,,,,,,,,,,,,,,,,,,,,,,,,,,,,,,,,,,1987.715241,1987.715241,space,33.1125691,None,None,,,,,,,,,,,,,10,15,1,2024-10-30_13h31.42.012,uWM_experiment,2022.2.3,59.99311279
,,,,,,,,,,,,,,,,,,,,4,0,4,0,,,,,1,0,1,0,,,,,,,,,,,,,,,,,,,,,,,,,,,,,,,,,,,,,,,,,,,,,,,,,,,,,,,,,,,,,,,,,,,,,,,,,,,,,,,,,,,,,,,,,,,,,,,,,,,,,,,,,,,,,,,,,,,,,,,,,,,,,,10,15,1,2024-10-30_13h31.42.012,uWM_experiment,2022.2.3,59.99311279
,,,,,,,,,,,,,,,,,,,,4,0,4,0,,,,,2,0,2,0,,,,,,,,,,,,,,,,,,,,,,,,,,,,,,,,,,,,,,,,,,,,,,,,,,,,,,,,,,,,,,,,,,,,,,,,,,,,,,,,,,,,,,,,,,,,,,,,,,,,,,,,,,,,,,,,,,,,,,,,,,,,,,10,15,1,2024-10-30_13h31.42.012,uWM_experiment,2022.2.3,59.99311279
,,,,,,,,,,,,,,,,,,,,5,0,5,0,0,0,0,0,,,,,,,,,,,,,,,,,,,,,,,,,,,,,,,,,,,,,,,,,,,,,,,,,,,,,,,,,,,,,,,,,,,,,,0.072191504,,,,,,,,,,,,,,,,,,,,2020.850035,2021.550098,2021.850108,2022.550147,2022.850181,2023.550188,2023.550188,2023.866873,left,1,160,-30,130,1,2028.450413,2028.450413,2028.450413,None,None,1,1,0.3853466,,,,,,,None,,,,,,,,,,,,10,15,1,2024-10-30_13h31.42.012,uWM_experiment,2022.2.3,59.99311279
,,,,,,,,,,,,,,,,,,,,5,0,5,0,1,0,1,0,,,,,,,,,,,,,,,,,,,,,,,,,,,,,,,,,,,,,,,,,,,,,,,,,,,,,,,,,,,,,,,,,,,,,,0,,,,,,,,,,,,,,,,,,,,,,,,,,,,left,0,100,30,130,0,2034.450703,2034.450703,2034.450703,None,None,1,1,0.7210657,,,,,,,,,,,,,,,,,,,10,15,1,2024-10-30_13h31.42.012,uWM_experiment,2022.2.3,59.99311279
,,,,,,,,,,,,,,,,,,,,5,0,5,0,2,0,2,0,,,,,,,,,,,,,,,,,,,,,,,,,,,,,,,,,,,,,,,,,,,,,,,,,,,,,,,,,,,,,,,,,,,,,,0.082191504,,,,,,,,,,,,,,,,,,,,,,,,,,,,right,0,100,-30,70,1,2040.817668,2040.817668,2040.817668,None,None,1,1,0.354107,,,,,,,,,,,,,,,,,,,10,15,1,2024-10-30_13h31.42.012,uWM_experiment,2022.2.3,59.99311279
,,,,,,,,,,,,,,,,,,,,5,0,5,0,3,0,3,0,,,,,,,,,,,,,,,,,,,,,,,,,,,,,,,,,,,,,,,,,,,,,,,,,,,,,,,,,,,,,,,,,,,,,,0.092191504,,,,,,,,,,,,,,,,,,,,,,,,,,,,right,0,70,-30,40,1,2046.551227,2046.551227,2046.551227,None,None,1,1,0.8205628,,,,,,,,,,,,,,,,,,,10,15,1,2024-10-30_13h31.42.012,uWM_experiment,2022.2.3,59.99311279
,,,,,,,,,,,,,,,,,,,,5,0,5,0,4,0,4,0,,,,,,,,,,,,,,,,,,,,,,,,,,,,,,,,,,,,,,,,,,,,,,,,,,,,,,,,,,,,,,,,,,,,,,0.102191504,,,,,,,,,,,,,,,,,,,,,,,,,,,,right,0,40,-30,10,1,2052.918188,2052.918188,2052.918188,None,None,2,0,0.4937044,,,,,,,,,,,,,,,,,,,10,15,1,2024-10-30_13h31.42.012,uWM_experiment,2022.2.3,59.99311279
,,,,,,,,,,,,,,,,,,,,5,0,5,0,5,0,5,0,,,,,,,,,,,,,,,,,,,,,,,,,,,,,,,,,,,,,,,,,,,,,,,,,,,,,,,,,,,,,,,,,,,,,,0,,,,,,,,,,,,,,,,,,,,,,,,,,,,left,0,70,30,100,0,2058.985115,2058.985115,2058.985115,None,None,1,1,0.3706864,,,,,,,,,,,,,,,,,,,10,15,1,2024-10-30_13h31.42.012,uWM_experiment,2022.2.3,59.99311279
,,,,,,,,,,,,,,,,,,,,5,0,5,0,6,0,6,0,,,,,,,,,,,,,,,,,,,,,,,,,,,,,,,,,,,,,,,,,,,,,,,,,,,,,,,,,,,,,,,,,,,,,,0,,,,,,,,,,,,,,,,,,,,,,,,,,,,right,0,10,-30,-20,0,2065.818753,2065.818753,2065.818753,None,None,1,1,0.3771008,,,,,,,,,,,,,,,,,,,10,15,1,2024-10-30_13h31.42.012,uWM_experiment,2022.2.3,59.99311279
,,,,,,,,,,,,,,,,,,,,5,0,5,0,7,0,7,0,,,,,,,,,,,,,,,,,,,,,,,,,,,,,,,,,,,,,,,,,,,,,,,,,,,,,,,,,,,,,,,,,,,,,,0,,,,,,,,,,,,,,,,,,,,,,,,,,,,left,0,130,30,160,0,2071.852425,2071.852425,2071.852425,None,None,1,1,0.8394552,,,,,,,,,,,,,,,,,,,10,15,1,2024-10-30_13h31.42.012,uWM_experiment,2022.2.3,59.99311279
,,,,,,,,,,,,,,,,,,,,5,0,5,0,8,0,8,0,,,,,,,,,,,,,,,,,,,,,,,,,,,,,,,,,,,,,,,,,,,,,,,,,,,,,,,,,,,,,,,,,,,,,,0.092191504,,,,,,,,,,,,,,,,,,,,,,,,,,,,right,1,70,30,100,1,2078.586002,2078.586002,2078.586002,None,None,1,1,0.9378621,,,,,,,,,,,,,,,,,,,10,15,1,2024-10-30_13h31.42.012,uWM_experiment,2022.2.3,59.99311279
,,,,,,,,,,,,,,,,,,,,5,0,5,0,9,0,9,0,,,,,,,,,,,,,,,,,,,,,,,,,,,,,,,,,,,,,,,,,,,,,,,,,,,,,,,,,,,,,,,,,,,,,,0,,,,,,,,,,,,,,,,,,,,,,,,,,,,right,0,40,-30,10,0,2085.286322,2085.286322,2085.286322,None,None,1,1,1.053516,,,,,,,,,,,,,,,,,,,10,15,1,2024-10-30_13h31.42.012,uWM_experiment,2022.2.3,59.99311279
,,,,,,,,,,,,,,,,,,,,5,0,5,0,10,0,10,0,,,,,,,,,,,,,,,,,,,,,,,,,,,,,,,,,,,,,,,,,,,,,,,,,,,,,,,,,,,,,,,,,,,,,,0.102191504,,,,,,,,,,,,,,,,,,,,,,,,,,,,left,0,100,30,130,1,2091.936606,2091.936606,2091.936606,None,None,1,1,1.4753204,,,,,,,,,,,,,,,,,,,10,15,1,2024-10-30_13h31.42.012,uWM_experiment,2022.2.3,59.99311279
,,,,,,,,,,,,,,,,,,,,5,0,5,0,11,0,11,0,,,,,,,,,,,,,,,,,,,,,,,,,,,,,,,,,,,,,,,,,,,,,,,,,,,,,,,,,,,,,,,,,,,,,,0.112191504,,,,,,,,,,,,,,,,,,,,,,,,,,,,right,0,100,-30,70,1,2099.303583,2099.303583,2099.303583,None,None,1,1,1.068313,,,,,,,,,,,,,,,,,,,10,15,1,2024-10-30_13h31.42.012,uWM_experiment,2022.2.3,59.99311279
,,,,,,,,,,,,,,,,,,,,5,0,5,0,12,0,12,0,,,,,,,,,,,,,,,,,,,,,,,,,,,,,,,,,,,,,,,,,,,,,,,,,,,,,,,,,,,,,,,,,,,,,,0.122191504,,,,,,,,,,,,,,,,,,,,,,,,,,,,left,1,130,-30,100,1,2106.087228,2106.087228,2106.087228,None,None,2,0,0.4926315,,,,,,,,,,,,,,,,,,,10,15,1,2024-10-30_13h31.42.012,uWM_experiment,2022.2.3,59.99311279
,,,,,,,,,,,,,,,,,,,,5,0,5,0,13,0,13,0,,,,,,,,,,,,,,,,,,,,,,,,,,,,,,,,,,,,,,,,,,,,,,,,,,,,,,,,,,,,,,,,,,,,,,0,,,,,,,,,,,,,,,,,,,,,,,,,,,,left,0,130,30,160,0,2112.254144,2112.254144,2112.254144,None,None,2,0,1.0376936,,,,,,,,,,,,,,,,,,,10,15,1,2024-10-30_13h31.42.012,uWM_experiment,2022.2.3,59.99311279
,,,,,,,,,,,,,,,,,,,,5,0,5,0,14,0,14,0,,,,,,,,,,,,,,,,,,,,,,,,,,,,,,,,,,,,,,,,,,,,,,,,,,,,,,,,,,,,,,,,,,,,,,0.112191504,,,,,,,,,,,,,,,,,,,,,,,,,,,,left,1,160,-30,130,1,2119.654514,2119.654514,2119.654514,None,None,2,0,0.7094354,,,,,,,,,,,,,,,,,,,10,15,1,2024-10-30_13h31.42.012,uWM_experiment,2022.2.3,59.99311279
,,,,,,,,,,,,,,,,,,,,5,0,5,0,15,0,15,0,,,,,,,,,,,,,,,,,,,,,,,,,,,,,,,,,,,,,,,,,,,,,,,,,,,,,,,,,,,,,,,,,,,,,,0.102191504,,,,,,,,,,,,,,,,,,,,,,,,,,,,right,0,130,-30,100,1,2126.471491,2126.471491,2126.471491,None,None,1,1,0.3563552,,,,,,,,,,,,,,,,,,,10,15,1,2024-10-30_13h31.42.012,uWM_experiment,2022.2.3,59.99311279
,,,,,,,,,,,,,,,,,,,,5,0,5,0,16,0,16,0,,,,,,,,,,,,,,,,,,,,,,,,,,,,,,,,,,,,,,,,,,,,,,,,,,,,,,,,,,,,,,,,,,,,,,0,,,,,,,,,,,,,,,,,,,,,,,,,,,,right,1,10,30,40,0,2132.388414,2132.388414,2132.388414,None,None,1,1,0.9595741,,,,,,,,,,,,,,,,,,,10,15,1,2024-10-30_13h31.42.012,uWM_experiment,2022.2.3,59.99311279
,,,,,,,,,,,,,,,,,,,,5,0,5,0,17,0,17,0,,,,,,,,,,,,,,,,,,,,,,,,,,,,,,,,,,,,,,,,,,,,,,,,,,,,,,,,,,,,,,,,,,,,,,0.112191504,,,,,,,,,,,,,,,,,,,,,,,,,,,,right,1,70,30,100,1,2139.022043,2139.022043,2139.022043,None,None,2,0,0.4938599,,,,,,,,,,,,,,,,,,,10,15,1,2024-10-30_13h31.42.012,uWM_experiment,2022.2.3,59.99311279
,,,,,,,,,,,,,,,,,,,,5,0,5,0,18,0,18,0,,,,,,,,,,,,,,,,,,,,,,,,,,,,,,,,,,,,,,,,,,,,,,,,,,,,,,,,,,,,,,,,,,,,,,0,,,,,,,,,,,,,,,,,,,,,,,,,,,,left,0,100,30,130,0,2145.072299,2145.072299,2145.072299,None,None,2,0,1.3075841,,,,,,,,,,,,,,,,,,,10,15,1,2024-10-30_13h31.42.012,uWM_experiment,2022.2.3,59.99311279
,,,,,,,,,,,,,,,,,,,,5,0,5,0,19,0,19,0,,,,,,,,,,,,,,,,,,,,,,,,,,,,,,,,,,,,,,,,,,,,,,,,,,,,,,,,,,,,,,,,,,,,,,0.102191504,,,,,,,,,,,,,,,,,,,,,,,,,,,,right,1,40,30,70,1,2152.605976,2152.605976,2152.605976,None,None,3,0,1.4139778,,,,,,,,,,,,,,,,,,,10,15,1,2024-10-30_13h31.42.012,uWM_experiment,2022.2.3,59.99311279
,,,,,,,,,,,,,,,,,,,,5,0,5,0,20,0,20,0,,,,,,,,,,,,,,,,,,,,,,,,,,,,,,,,,,,,,,,,,,,,,,,,,,,,,,,,,,,,,,,,,,,,,,0.092191504,,,,,,,,,,,,,,,,,,,,,,,,,,,,left,0,40,30,70,1,2159.956338,2159.956338,2159.956338,None,None,3,0,0.6155347,,,,,,,,,,,,,,,,,,,10,15,1,2024-10-30_13h31.42.012,uWM_experiment,2022.2.3,59.99311279
,,,,,,,,,,,,,,,,,,,,5,0,5,0,21,0,21,0,,,,,,,,,,,,,,,,,,,,,,,,,,,,,,,,,,,,,,,,,,,,,,,,,,,,,,,,,,,,,,,,,,,,,,0.082191504,,,,,,,,,,,,,,,,,,,,,,,,,,,,left,0,100,30,130,1,2165.989912,2165.989912,2165.989912,None,None,3,0,0.653929,,,,,,,,,,,,,,,,,,,10,15,1,2024-10-30_13h31.42.012,uWM_experiment,2022.2.3,59.99311279
,,,,,,,,,,,,,,,,,,,,5,0,5,0,22,0,22,0,,,,,,,,,,,,,,,,,,,,,,,,,,,,,,,,,,,,,,,,,,,,,,,,,,,,,,,,,,,,,,,,,,,,,,0,,,,,,,,,,,,,,,,,,,,,,,,,,,,left,0,100,30,130,0,2172.306857,2172.306857,2172.306857,None,None,1,1,0.8091534,,,,,,,,,,,,,,,,,,,10,15,1,2024-10-30_13h31.42.012,uWM_experiment,2022.2.3,59.99311279
,,,,,,,,,,,,,,,,,,,,5,0,5,0,23,0,23,0,,,,,,,,,,,,,,,,,,,,,,,,,,,,,,,,,,,,,,,,,,,,,,,,,,,,,,,,,,,,,,,,,,,,,,0,,,,,,,,,,,,,,,,,,,,,,,,,,,,right,1,160,30,190,0,2178.457161,2178.457161,2178.457161,None,None,1,1,0.7228404,,,,,,,,,,,,,,,,,,,10,15,1,2024-10-30_13h31.42.012,uWM_experiment,2022.2.3,59.99311279
,,,,,,,,,,,,,,,,,,,,5,0,5,0,,,,,0,0,0,0,,,,,,,,,,,,,,,,,,,,,,,,,,,,,,,,,,,,,,,,,,,,,,,,,,,,,,,,,,,,,,,,,,,,,,,,,,,,,,,,,,,,,,,,,,,,,,,,,,,,,,,,,,,,2179.207178,2179.207178,space,19.780767,space,None,,2199.008016,2199.008016,9.7959569,,,,,,,,,10,15,1,2024-10-30_13h31.42.012,uWM_experiment,2022.2.3,59.99311279
,,,,,,,,,,,,,,,,,,,,5,0,5,0,,,,,1,0,1,0,,,,,,,,,,,,,,,,,,,,,,,,,,,,,,,,,,,,,,,,,,,,,,,,,,,,,,,,,,,,,,,,,,,,,,,,,,,,,,,,,,,,,,,,,,,,,,,,,,,,,,,,,,,,,,,,,,,,,,,,,,,,,,10,15,1,2024-10-30_13h31.42.012,uWM_experiment,2022.2.3,59.99311279
,,,,,,,,,,,,,,,,,,,,5,0,5,0,,,,,2,0,2,0,,,,,,,,,,,,,,,,,,,,,,,,,,,,,,,,,,,,,,,,,,,,,,,,,,,,,,,,,,,,,,,,,,,,,,,,,,,,,,,,,,,,,,,,,,,,,,,,,,,,,,,,,,,,,,,,,,,,,,,,,,,,,,10,15,1,2024-10-30_13h31.42.012,uWM_experiment,2022.2.3,59.99311279
,,,,,,,,,,,,,,,,,,,,6,0,6,0,0,0,0,0,,,,,,,,,,,,,,,,,,,,,,,,,,,,,,,,,,,,,,,,,,,,,,,,,,,,,,,,,,,,,,,,,,,,,,0,,,,,,,,,,,,,,,,,,,,2208.825145,2209.525176,2209.825228,2210.525228,2210.825257,2211.525267,2211.525267,2211.841951,right,0,70,-30,40,0,2216.292171,2216.292171,2216.292171,None,None,1,1,0.4398401,,,,,,,None,,,,,,,,,,,,10,15,1,2024-10-30_13h31.42.012,uWM_experiment,2022.2.3,59.99311279
,,,,,,,,,,,,,,,,,,,,6,0,6,0,1,0,1,0,,,,,,,,,,,,,,,,,,,,,,,,,,,,,,,,,,,,,,,,,,,,,,,,,,,,,,,,,,,,,,,,,,,,,,0.072191504,,,,,,,,,,,,,,,,,,,,,,,,,,,,left,0,130,30,160,1,2222.125749,2222.125749,2222.125749,None,None,1,1,0.478248,,,,,,,,,,,,,,,,,,,10,15,1,2024-10-30_13h31.42.012,uWM_experiment,2022.2.3,59.99311279
,,,,,,,,,,,,,,,,,,,,6,0,6,0,2,0,2,0,,,,,,,,,,,,,,,,,,,,,,,,,,,,,,,,,,,,,,,,,,,,,,,,,,,,,,,,,,,,,,,,,,,,,,0.082191504,,,,,,,,,,,,,,,,,,,,,,,,,,,,right,0,130,-30,100,1,2228.376039,2228.376039,2228.376039,None,None,1,1,0.4599709,,,,,,,,,,,,,,,,,,,10,15,1,2024-10-30_13h31.42.012,uWM_experiment,2022.2.3,59.99311279
,,,,,,,,,,,,,,,,,,,,6,0,6,0,3,0,3,0,,,,,,,,,,,,,,,,,,,,,,,,,,,,,,,,,,,,,,,,,,,,,,,,,,,,,,,,,,,,,,,,,,,,,,0.092191504,,,,,,,,,,,,,,,,,,,,,,,,,,,,left,1,10,-30,-20,1,2234.292954,2234.292954,2234.292954,None,None,2,0,1.0310354,,,,,,,,,,,,,,,,,,,10,15,1,2024-10-30_13h31.42.012,uWM_experiment,2022.2.3,59.99311279
,,,,,,,,,,,,,,,,,,,,6,0,6,0,4,0,4,0,,,,,,,,,,,,,,,,,,,,,,,,,,,,,,,,,,,,,,,,,,,,,,,,,,,,,,,,,,,,,,,,,,,,,,0.082191504,,,,,,,,,,,,,,,,,,,,,,,,,,,,right,1,40,30,70,1,2241.026613,2241.026613,2241.026613,None,None,1,1,0.4573911,,,,,,,,,,,,,,,,,,,10,15,1,2024-10-30_13h31.42.012,uWM_experiment,2022.2.3,59.99311279
,,,,,,,,,,,,,,,,,,,,6,0,6,0,5,0,5,0,,,,,,,,,,,,,,,,,,,,,,,,,,,,,,,,,,,,,,,,,,,,,,,,,,,,,,,,,,,,,,,,,,,,,,0.092191504,,,,,,,,,,,,,,,,,,,,,,,,,,,,right,0,70,-30,40,1,2247.076876,2247.076876,2247.076876,None,None,2,0,0.4471562,,,,,,,,,,,,,,,,,,,10,15,1,2024-10-30_13h31.42.012,uWM_experiment,2022.2.3,59.99311279
,,,,,,,,,,,,,,,,,,,,6,0,6,0,6,0,6,0,,,,,,,,,,,,,,,,,,,,,,,,,,,,,,,,,,,,,,,,,,,,,,,,,,,,,,,,,,,,,,,,,,,,,,0,,,,,,,,,,,,,,,,,,,,,,,,,,,,right,1,100,30,130,0,2253.443816,2253.443816,2253.443816,None,None,2,0,0.6161476,,,,,,,,,,,,,,,,,,,10,15,1,2024-10-30_13h31.42.012,uWM_experiment,2022.2.3,59.99311279
,,,,,,,,,,,,,,,,,,,,6,0,6,0,7,0,7,0,,,,,,,,,,,,,,,,,,,,,,,,,,,,,,,,,,,,,,,,,,,,,,,,,,,,,,,,,,,,,,,,,,,,,,0.082191504,,,,,,,,,,,,,,,,,,,,,,,,,,,,right,1,160,30,190,1,2259.5274,2259.5274,2259.5274,None,None,1,1,0.612593,,,,,,,,,,,,,,,,,,,10,15,1,2024-10-30_13h31.42.012,uWM_experiment,2022.2.3,59.99311279
,,,,,,,,,,,,,,,,,,,,6,0,6,0,8,0,8,0,,,,,,,,,,,,,,,,,,,,,,,,,,,,,,,,,,,,,,,,,,,,,,,,,,,,,,,,,,,,,,,,,,,,,,0.092191504,,,,,,,,,,,,,,,,,,,,,,,,,,,,right,1,40,30,70,1,2266.077722,2266.077722,2266.077722,None,None,2,0,0.34229,,,,,,,,,,,,,,,,,,,10,15,1,2024-10-30_13h31.42.012,uWM_experiment,2022.2.3,59.99311279
,,,,,,,,,,,,,,,,,,,,6,0,6,0,9,0,9,0,,,,,,,,,,,,,,,,,,,,,,,,,,,,,,,,,,,,,,,,,,,,,,,,,,,,,,,,,,,,,,,,,,,,,,0.082191504,,,,,,,,,,,,,,,,,,,,,,,,,,,,left,1,160,-30,130,1,2271.977987,2271.977987,2271.977987,None,None,2,0,0.8659989,,,,,,,,,,,,,,,,,,,10,15,1,2024-10-30_13h31.42.012,uWM_experiment,2022.2.3,59.99311279
,,,,,,,,,,,,,,,,,,,,6,0,6,0,10,0,10,0,,,,,,,,,,,,,,,,,,,,,,,,,,,,,,,,,,,,,,,,,,,,,,,,,,,,,,,,,,,,,,,,,,,,,,0.072191504,,,,,,,,,,,,,,,,,,,,,,,,,,,,right,1,160,30,190,1,2278.178265,2278.178265,2278.178265,None,None,2,0,0.4417224,,,,,,,,,,,,,,,,,,,10,15,1,2024-10-30_13h31.42.012,uWM_experiment,2022.2.3,59.99311279
,,,,,,,,,,,,,,,,,,,,6,0,6,0,11,0,11,0,,,,,,,,,,,,,,,,,,,,,,,,,,,,,,,,,,,,,,,,,,,,,,,,,,,,,,,,,,,,,,,,,,,,,,0.062191504,,,,,,,,,,,,,,,,,,,,,,,,,,,,right,0,100,-30,70,1,2284.345189,2284.345189,2284.345189,None,None,1,1,0.3387344,,,,,,,,,,,,,,,,,,,10,15,1,2024-10-30_13h31.42.012,uWM_experiment,2022.2.3,59.99311279
,,,,,,,,,,,,,,,,,,,,6,0,6,0,12,0,12,0,,,,,,,,,,,,,,,,,,,,,,,,,,,,,,,,,,,,,,,,,,,,,,,,,,,,,,,,,,,,,,,,,,,,,,0.072191504,,,,,,,,,,,,,,,,,,,,,,,,,,,,right,0,70,-30,40,1,2290.295475,2290.295475,2290.295475,None,None,2,0,0.3724232,,,,,,,,,,,,,,,,,,,10,15,1,2024-10-30_13h31.42.012,uWM_experiment,2022.2.3,59.99311279
,,,,,,,,,,,,,,,,,,,,6,0,6,0,13,0,13,0,,,,,,,,,,,,,,,,,,,,,,,,,,,,,,,,,,,,,,,,,,,,,,,,,,,,,,,,,,,,,,,,,,,,,,0.062191504,,,,,,,,,,,,,,,,,,,,,,,,,,,,right,1,10,30,40,1,2296.162383,2296.162383,2296.162383,None,None,1,1,1.0175751,,,,,,,,,,,,,,,,,,,10,15,1,2024-10-30_13h31.42.012,uWM_experiment,2022.2.3,59.99311279
,,,,,,,,,,,,,,,,,,,,6,0,6,0,14,0,14,0,,,,,,,,,,,,,,,,,,,,,,,,,,,,,,,,,,,,,,,,,,,,,,,,,,,,,,,,,,,,,,,,,,,,,,0.072191504,,,,,,,,,,,,,,,,,,,,,,,,,,,,left,1,160,-30,130,1,2302.696011,2302.696011,2302.696011,None,None,1,1,0.7079825,,,,,,,,,,,,,,,,,,,10,15,1,2024-10-30_13h31.42.012,uWM_experiment,2022.2.3,59.99311279
,,,,,,,,,,,,,,,,,,,,6,0,6,0,15,0,15,0,,,,,,,,,,,,,,,,,,,,,,,,,,,,,,,,,,,,,,,,,,,,,,,,,,,,,,,,,,,,,,,,,,,,,,0.082191504,,,,,,,,,,,,,,,,,,,,,,,,,,,,right,1,40,30,70,1,2308.779617,2308.779617,2308.779617,None,None,2,0,0.5124359,,,,,,,,,,,,,,,,,,,10,15,1,2024-10-30_13h31.42.012,uWM_experiment,2022.2.3,59.99311279
,,,,,,,,,,,,,,,,,,,,6,0,6,0,16,0,16,0,,,,,,,,,,,,,,,,,,,,,,,,,,,,,,,,,,,,,,,,,,,,,,,,,,,,,,,,,,,,,,,,,,,,,,0,,,,,,,,,,,,,,,,,,,,,,,,,,,,left,0,130,30,160,0,2314.946565,2314.946565,2314.946565,None,None,1,1,0.8654469,,,,,,,,,,,,,,,,,,,10,15,1,2024-10-30_13h31.42.012,uWM_experiment,2022.2.3,59.99311279
,,,,,,,,,,,,,,,,,,,,6,0,6,0,17,0,17,0,,,,,,,,,,,,,,,,,,,,,,,,,,,,,,,,,,,,,,,,,,,,,,,,,,,,,,,,,,,,,,,,,,,,,,0.072191504,,,,,,,,,,,,,,,,,,,,,,,,,,,,left,1,10,-30,-20,1,2321.296856,2321.296856,2321.296856,None,None,1,1,0.4111472,,,,,,,,,,,,,,,,,,,10,15,1,2024-10-30_13h31.42.012,uWM_experiment,2022.2.3,59.99311279
,,,,,,,,,,,,,,,,,,,,6,0,6,0,18,0,18,0,,,,,,,,,,,,,,,,,,,,,,,,,,,,,,,,,,,,,,,,,,,,,,,,,,,,,,,,,,,,,,,,,,,,,,0.082191504,,,,,,,,,,,,,,,,,,,,,,,,,,,,left,0,100,30,130,1,2327.113789,2327.113789,2327.113789,None,None,1,1,0.4582099,,,,,,,,,,,,,,,,,,,10,15,1,2024-10-30_13h31.42.012,uWM_experiment,2022.2.3,59.99311279
,,,,,,,,,,,,,,,,,,,,6,0,6,0,19,0,19,0,,,,,,,,,,,,,,,,,,,,,,,,,,,,,,,,,,,,,,,,,,,,,,,,,,,,,,,,,,,,,,,,,,,,,,0.092191504,,,,,,,,,,,,,,,,,,,,,,,,,,,,left,0,100,30,130,1,2333.080699,2333.080699,2333.080699,None,None,1,1,0.4352681,,,,,,,,,,,,,,,,,,,10,15,1,2024-10-30_13h31.42.012,uWM_experiment,2022.2.3,59.99311279
,,,,,,,,,,,,,,,,,,,,6,0,6,0,20,0,20,0,,,,,,,,,,,,,,,,,,,,,,,,,,,,,,,,,,,,,,,,,,,,,,,,,,,,,,,,,,,,,,,,,,,,,,0,,,,,,,,,,,,,,,,,,,,,,,,,,,,left,0,130,30,160,0,2339.04766,2339.04766,2339.04766,None,None,1,1,0.484293,,,,,,,,,,,,,,,,,,,10,15,1,2024-10-30_13h31.42.012,uWM_experiment,2022.2.3,59.99311279
,,,,,,,,,,,,,,,,,,,,6,0,6,0,21,0,21,0,,,,,,,,,,,,,,,,,,,,,,,,,,,,,,,,,,,,,,,,,,,,,,,,,,,,,,,,,,,,,,,,,,,,,,0.102191504,,,,,,,,,,,,,,,,,,,,,,,,,,,,left,1,10,-30,-20,1,2345.281296,2345.281296,2345.281296,None,None,3,0,0.3546964,,,,,,,,,,,,,,,,,,,10,15,1,2024-10-30_13h31.42.012,uWM_experiment,2022.2.3,59.99311279
,,,,,,,,,,,,,,,,,,,,6,0,6,0,22,0,22,0,,,,,,,,,,,,,,,,,,,,,,,,,,,,,,,,,,,,,,,,,,,,,,,,,,,,,,,,,,,,,,,,,,,,,,0,,,,,,,,,,,,,,,,,,,,,,,,,,,,right,1,10,30,40,0,2351.31486,2351.31486,2351.31486,None,None,1,1,0.3611453,,,,,,,,,,,,,,,,,,,10,15,1,2024-10-30_13h31.42.012,uWM_experiment,2022.2.3,59.99311279
,,,,,,,,,,,,,,,,,,,,6,0,6,0,23,0,23,0,,,,,,,,,,,,,,,,,,,,,,,,,,,,,,,,,,,,,,,,,,,,,,,,,,,,,,,,,,,,,,,,,,,,,,0.092191504,,,,,,,,,,,,,,,,,,,,,,,,,,,,left,1,130,-30,100,1,2357.698479,2357.698479,2357.698479,None,None,1,1,0.3215169,,,,,,,,,,,,,,,,,,,10,15,1,2024-10-30_13h31.42.012,uWM_experiment,2022.2.3,59.99311279
,,,,,,,,,,,,,,,,,,,,6,0,6,0,,,,,0,0,0,0,,,,,,,,,,,,,,,,,,,,,,,,,,,,,,,,,,,,,,,,,,,,,,,,,,,,,,,,,,,,,,,,,,,,,,,,,,,,,,,,,,,,,,,,,,,,,,,,,,,,,,,,,,,,2358.048478,2358.048478,space,42.1156151,None,space,,,,,2400.183697,2400.183697,7.5804366,,,,,,10,15,1,2024-10-30_13h31.42.012,uWM_experiment,2022.2.3,59.99311279
,,,,,,,,,,,,,,,,,,,,6,0,6,0,,,,,1,0,1,0,,,,,,,,,,,,,,,,,,,,,,,,,,,,,,,,,,,,,,,,,,,,,,,,,,,,,,,,,,,,,,,,,,,,,,,,,,,,,,,,,,,,,,,,,,,,,,,,,,,,,,,,,,,,,,,,,,,,,,,,,,,,,,10,15,1,2024-10-30_13h31.42.012,uWM_experiment,2022.2.3,59.99311279
,,,,,,,,,,,,,,,,,,,,6,0,6,0,,,,,2,0,2,0,,,,,,,,,,,,,,,,,,,,,,,,,,,,,,,,,,,,,,,,,,,,,,,,,,,,,,,,,,,,,,,,,,,,,,,,,,,,,,,,,,,,,,,,,,,,,,,,,,,,,,,,,,,,,,,,,,,,,,,,,,,,,,10,15,1,2024-10-30_13h31.42.012,uWM_experiment,2022.2.3,59.99311279
,,,,,,,,,,,,,,,,,,,,7,0,7,0,0,0,0,0,,,,,,,,,,,,,,,,,,,,,,,,,,,,,,,,,,,,,,,,,,,,,,,,,,,,,,,,,,,,,,,,,,,,,,0.102191504,,,,,,,,,,,,,,,,,,,,2420.951308,2421.65134,2421.934682,2422.634709,2422.934721,2423.634761,2423.634761,2423.951458,left,0,10,30,40,1,2429.735036,2429.735036,2429.735036,None,None,2,0,1.9730044,,,,,,,space,,,,,,,2416.151092,2416.151092,4.7729507,,,10,15,1,2024-10-30_13h31.42.012,uWM_experiment,2022.2.3,59.99311279
,,,,,,,,,,,,,,,,,,,,7,0,7,0,1,0,1,0,,,,,,,,,,,,,,,,,,,,,,,,,,,,,,,,,,,,,,,,,,,,,,,,,,,,,,,,,,,,,,,,,,,,,,0,,,,,,,,,,,,,,,,,,,,,,,,,,,,right,1,160,30,190,0,2437.402072,2437.402072,2437.402072,None,None,1,1,0.6260296,,,,,,,,,,,,,,,,,,,10,15,1,2024-10-30_13h31.42.012,uWM_experiment,2022.2.3,59.99311279
,,,,,,,,,,,,,,,,,,,,7,0,7,0,2,0,2,0,,,,,,,,,,,,,,,,,,,,,,,,,,,,,,,,,,,,,,,,,,,,,,,,,,,,,,,,,,,,,,,,,,,,,,0.092191504,,,,,,,,,,,,,,,,,,,,,,,,,,,,right,0,40,-30,10,1,2443.519016,2443.519016,2443.519016,None,None,2,0,0.4771284,,,,,,,,,,,,,,,,,,,10,15,1,2024-10-30_13h31.42.012,uWM_experiment,2022.2.3,59.99311279
,,,,,,,,,,,,,,,,,,,,7,0,7,0,3,0,3,0,,,,,,,,,,,,,,,,,,,,,,,,,,,,,,,,,,,,,,,,,,,,,,,,,,,,,,,,,,,,,,,,,,,,,,0.082191504,,,,,,,,,,,,,,,,,,,,,,,,,,,,right,0,70,-30,40,1,2449.535931,2449.535931,2449.535931,None,None,1,1,0.3161837,,,,,,,,,,,,,,,,,,,10,15,1,2024-10-30_13h31.42.012,uWM_experiment,2022.2.3,59.99311279
,,,,,,,,,,,,,,,,,,,,7,0,7,0,4,0,4,0,,,,,,,,,,,,,,,,,,,,,,,,,,,,,,,,,,,,,,,,,,,,,,,,,,,,,,,,,,,,,,,,,,,,,,0.092191504,,,,,,,,,,,,,,,,,,,,,,,,,,,,left,1,100,-30,70,1,2455.736216,2455.736216,2455.736216,None,None,2,0,0.5078702,,,,,,,,,,,,,,,,,,,10,15,1,2024-10-30_13h31.42.012,uWM_experiment,2022.2.3,59.99311279
,,,,,,,,,,,,,,,,,,,,7,0,7,0,5,0,5,0,,,,,,,,,,,,,,,,,,,,,,,,,,,,,,,,,,,,,,,,,,,,,,,,,,,,,,,,,,,,,,,,,,,,,,0.082191504,,,,,,,,,,,,,,,,,,,,,,,,,,,,left,0,100,30,130,1,2461.669804,2461.669804,2461.669804,None,None,1,1,0.4062787,,,,,,,,,,,,,,,,,,,10,15,1,2024-10-30_13h31.42.012,uWM_experiment,2022.2.3,59.99311279
,,,,,,,,,,,,,,,,,,,,7,0,7,0,6,0,6,0,,,,,,,,,,,,,,,,,,,,,,,,,,,,,,,,,,,,,,,,,,,,,,,,,,,,,,,,,,,,,,,,,,,,,,0.092191504,,,,,,,,,,,,,,,,,,,,,,,,,,,,right,1,160,30,190,1,2467.820082,2467.820082,2467.820082,None,None,3,0,1.0558911,,,,,,,,,,,,,,,,,,,10,15,1,2024-10-30_13h31.42.012,uWM_experiment,2022.2.3,59.99311279
,,,,,,,,,,,,,,,,,,,,7,0,7,0,7,0,7,0,,,,,,,,,,,,,,,,,,,,,,,,,,,,,,,,,,,,,,,,,,,,,,,,,,,,,,,,,,,,,,,,,,,,,,0.082191504,,,,,,,,,,,,,,,,,,,,,,,,,,,,left,1,100,-30,70,1,2474.520369,2474.520369,2474.520369,None,None,1,1,0.4676749,,,,,,,,,,,,,,,,,,,10,15,1,2024-10-30_13h31.42.012,uWM_experiment,2022.2.3,59.99311279
,,,,,,,,,,,,,,,,,,,,7,0,7,0,8,0,8,0,,,,,,,,,,,,,,,,,,,,,,,,,,,,,,,,,,,,,,,,,,,,,,,,,,,,,,,,,,,,,,,,,,,,,,0,,,,,,,,,,,,,,,,,,,,,,,,,,,,right,1,160,30,190,0,2480.437322,2480.437322,2480.437322,None,None,1,1,0.4147281,,,,,,,,,,,,,,,,,,,10,15,1,2024-10-30_13h31.42.012,uWM_experiment,2022.2.3,59.99311279
,,,,,,,,,,,,,,,,,,,,7,0,7,0,9,0,9,0,,,,,,,,,,,,,,,,,,,,,,,,,,,,,,,,,,,,,,,,,,,,,,,,,,,,,,,,,,,,,,,,,,,,,,0.092191504,,,,,,,,,,,,,,,,,,,,,,,,,,,,right,1,160,30,190,1,2486.570899,2486.570899,2486.570899,None,None,3,0,0.449142,,,,,,,,,,,,,,,,,,,10,15,1,2024-10-30_13h31.42.012,uWM_experiment,2022.2.3,59.99311279
,,,,,,,,,,,,,,,,,,,,7,0,7,0,10,0,10,0,,,,,,,,,,,,,,,,,,,,,,,,,,,,,,,,,,,,,,,,,,,,,,,,,,,,,,,,,,,,,,,,,,,,,,0.082191504,,,,,,,,,,,,,,,,,,,,,,,,,,,,left,1,10,-30,-20,1,2492.687875,2492.687875,2492.687875,None,None,2,0,0.3001863,,,,,,,,,,,,,,,,,,,10,15,1,2024-10-30_13h31.42.012,uWM_experiment,2022.2.3,59.99311279
,,,,,,,,,,,,,,,,,,,,7,0,7,0,11,0,11,0,,,,,,,,,,,,,,,,,,,,,,,,,,,,,,,,,,,,,,,,,,,,,,,,,,,,,,,,,,,,,,,,,,,,,,0.072191504,,,,,,,,,,,,,,,,,,,,,,,,,,,,left,0,70,30,100,1,2498.471438,2498.471438,2498.471438,None,None,1,1,0.4205816,,,,,,,,,,,,,,,,,,,10,15,1,2024-10-30_13h31.42.012,uWM_experiment,2022.2.3,59.99311279
,,,,,,,,,,,,,,,,,,,,7,0,7,0,12,0,12,0,,,,,,,,,,,,,,,,,,,,,,,,,,,,,,,,,,,,,,,,,,,,,,,,,,,,,,,,,,,,,,,,,,,,,,0.082191504,,,,,,,,,,,,,,,,,,,,,,,,,,,,right,0,40,-30,10,1,2504.38838,2504.38838,2504.38838,None,None,2,0,0.5676849,,,,,,,,,,,,,,,,,,,10,15,1,2024-10-30_13h31.42.012,uWM_experiment,2022.2.3,59.99311279
,,,,,,,,,,,,,,,,,,,,7,0,7,0,13,0,13,0,,,,,,,,,,,,,,,,,,,,,,,,,,,,,,,,,,,,,,,,,,,,,,,,,,,,,,,,,,,,,,,,,,,,,,0.072191504,,,,,,,,,,,,,,,,,,,,,,,,,,,,left,0,100,30,130,1,2510.621997,2510.621997,2510.621997,None,None,2,0,1.0621576,,,,,,,,,,,,,,,,,,,10,15,1,2024-10-30_13h31.42.012,uWM_experiment,2022.2.3,59.99311279
,,,,,,,,,,,,,,,,,,,,7,0,7,0,14,0,14,0,,,,,,,,,,,,,,,,,,,,,,,,,,,,,,,,,,,,,,,,,,,,,,,,,,,,,,,,,,,,,,,,,,,,,,0.062191504,,,,,,,,,,,,,,,,,,,,,,,,,,,,right,0,70,-30,40,1,2517.372314,2517.372314,2517.372314,None,None,1,1,0.4398433,,,,,,,,,,,,,,,,,,,10,15,1,2024-10-30_13h31.42.012,uWM_experiment,2022.2.3,59.99311279
,,,,,,,,,,,,,,,,,,,,7,0,7,0,15,0,15,0,,,,,,,,,,,,,,,,,,,,,,,,,,,,,,,,,,,,,,,,,,,,,,,,,,,,,,,,,,,,,,,,,,,,,,0.072191504,,,,,,,,,,,,,,,,,,,,,,,,,,,,left,0,40,30,70,1,2523.689242,2523.689242,2523.689242,None,None,1,1,0.3868268,,,,,,,,,,,,,,,,,,,10,15,1,2024-10-30_13h31.42.012,uWM_experiment,2022.2.3,59.99311279
,,,,,,,,,,,,,,,,,,,,7,0,7,0,16,0,16,0,,,,,,,,,,,,,,,,,,,,,,,,,,,,,,,,,,,,,,,,,,,,,,,,,,,,,,,,,,,,,,,,,,,,,,0.082191504,,,,,,,,,,,,,,,,,,,,,,,,,,,,left,0,130,30,160,1,2529.456169,2529.456169,2529.456169,None,None,2,0,0.4839271,,,,,,,,,,,,,,,,,,,10,15,1,2024-10-30_13h31.42.012,uWM_experiment,2022.2.3,59.99311279
,,,,,,,,,,,,,,,,,,,,7,0,7,0,17,0,17,0,,,,,,,,,,,,,,,,,,,,,,,,,,,,,,,,,,,,,,,,,,,,,,,,,,,,,,,,,,,,,,,,,,,,,,0.072191504,,,,,,,,,,,,,,,,,,,,,,,,,,,,right,1,10,30,40,1,2535.556459,2535.556459,2535.556459,None,None,1,1,0.3917055,,,,,,,,,,,,,,,,,,,10,15,1,2024-10-30_13h31.42.012,uWM_experiment,2022.2.3,59.99311279
,,,,,,,,,,,,,,,,,,,,7,0,7,0,18,0,18,0,,,,,,,,,,,,,,,,,,,,,,,,,,,,,,,,,,,,,,,,,,,,,,,,,,,,,,,,,,,,,,,,,,,,,,0,,,,,,,,,,,,,,,,,,,,,,,,,,,,left,0,130,30,160,0,2541.440055,2541.440055,2541.440055,None,None,1,1,0.6679881,,,,,,,,,,,,,,,,,,,10,15,1,2024-10-30_13h31.42.012,uWM_experiment,2022.2.3,59.99311279
,,,,,,,,,,,,,,,,,,,,7,0,7,0,19,0,19,0,,,,,,,,,,,,,,,,,,,,,,,,,,,,,,,,,,,,,,,,,,,,,,,,,,,,,,,,,,,,,,,,,,,,,,0.082191504,,,,,,,,,,,,,,,,,,,,,,,,,,,,right,0,40,-30,10,1,2547.540296,2547.540296,2547.540296,None,None,1,1,0.3918276,,,,,,,,,,,,,,,,,,,10,15,1,2024-10-30_13h31.42.012,uWM_experiment,2022.2.3,59.99311279
,,,,,,,,,,,,,,,,,,,,7,0,7,0,20,0,20,0,,,,,,,,,,,,,,,,,,,,,,,,,,,,,,,,,,,,,,,,,,,,,,,,,,,,,,,,,,,,,,,,,,,,,,0,,,,,,,,,,,,,,,,,,,,,,,,,,,,left,0,40,30,70,0,2553.540595,2553.540595,2553.540595,None,None,1,1,0.3595416,,,,,,,,,,,,,,,,,,,10,15,1,2024-10-30_13h31.42.012,uWM_experiment,2022.2.3,59.99311279
,,,,,,,,,,,,,,,,,,,,7,0,7,0,21,0,21,0,,,,,,,,,,,,,,,,,,,,,,,,,,,,,,,,,,,,,,,,,,,,,,,,,,,,,,,,,,,,,,,,,,,,,,0.092191504,,,,,,,,,,,,,,,,,,,,,,,,,,,,left,1,160,-30,130,1,2559.374181,2559.374181,2559.374181,None,None,2,0,1.0459898,,,,,,,,,,,,,,,,,,,10,15,1,2024-10-30_13h31.42.012,uWM_experiment,2022.2.3,59.99311279
,,,,,,,,,,,,,,,,,,,,7,0,7,0,22,0,22,0,,,,,,,,,,,,,,,,,,,,,,,,,,,,,,,,,,,,,,,,,,,,,,,,,,,,,,,,,,,,,,,,,,,,,,0.082191504,,,,,,,,,,,,,,,,,,,,,,,,,,,,right,1,10,30,40,1,2565.757789,2565.757789,2565.757789,None,None,1,1,0.4862919,,,,,,,,,,,,,,,,,,,10,15,1,2024-10-30_13h31.42.012,uWM_experiment,2022.2.3,59.99311279
,,,,,,,,,,,,,,,,,,,,7,0,7,0,23,0,23,0,,,,,,,,,,,,,,,,,,,,,,,,,,,,,,,,,,,,,,,,,,,,,,,,,,,,,,,,,,,,,,,,,,,,,,0,,,,,,,,,,,,,,,,,,,,,,,,,,,,right,1,10,30,40,0,2571.641418,2571.641418,2571.641418,None,None,1,1,0.722722,,,,,,,,,,,,,,,,,,,10,15,1,2024-10-30_13h31.42.012,uWM_experiment,2022.2.3,59.99311279
,,,,,,,,,,,,,,,,,,,,7,0,7,0,,,,,0,0,0,0,,,,,,,,,,,,,,,,,,,,,,,,,,,,,,,,,,,,,,,,,,,,,,,,,,,,,,,,,,,,,,,,,,,,,,,,,,,,,,,,,,,,,,,,,,,,,,,,,,,,,,,,,,,,2572.39141,2572.39141,space,20.932777,None,None,,,,,,,,,,,,,10,15,1,2024-10-30_13h31.42.012,uWM_experiment,2022.2.3,59.99311279
,,,,,,,,,,,,,,,,,,,,7,0,7,0,,,,,1,0,1,0,,,,,,,,,,,,,,,,,,,,,,,,,,,,,,,,,,,,,,,,,,,,,,,,,,,,,,,,,,,,,,,,,,,,,,,,,,,,,,,,,,,,,,,,,,,,,,,,,,,,,,,,,,,,,,,,,,,,,,,,,,,,,,10,15,1,2024-10-30_13h31.42.012,uWM_experiment,2022.2.3,59.99311279
,,,,,,,,,,,,,,,,,,,,7,0,7,0,,,,,2,0,2,0,,,,,,,,,,,,,,,,,,,,,,,,,,,,,,,,,,,,,,,,,,,,,,,,,,,,,,,,,,,,,,,,,,,,,,,,,,,,,,,,,,,,,,,,,,,,,,,,,,,,,,,,,,,,,,,,,,,,,,,,,,,,,,10,15,1,2024-10-30_13h31.42.012,uWM_experiment,2022.2.3,59.99311279
,,,,,,,,,,,,,,,,,,,,8,0,8,0,0,0,0,0,,,,,,,,,,,,,,,,,,,,,,,,,,,,,,,,,,,,,,,,,,,,,,,,,,,,,,,,,,,,,,,,,,,,,,0.092191504,,,,,,,,,,,,,,,,,,,,2593.342362,2594.042392,2594.342397,2595.042435,2595.342442,2596.042486,2596.042486,2596.359158,left,0,40,30,70,1,2600.976038,2600.976038,2600.976038,None,None,1,1,0.4121641,,,,,,,None,,,,,,,,,,,,10,15,1,2024-10-30_13h31.42.012,uWM_experiment,2022.2.3,59.99311279
,,,,,,,,,,,,,,,,,,,,8,0,8,0,1,0,1,0,,,,,,,,,,,,,,,,,,,,,,,,,,,,,,,,,,,,,,,,,,,,,,,,,,,,,,,,,,,,,,,,,,,,,,0.102191504,,,,,,,,,,,,,,,,,,,,,,,,,,,,left,0,70,30,100,1,2606.826328,2606.826328,2606.826328,None,None,1,1,0.3937866,,,,,,,,,,,,,,,,,,,10,15,1,2024-10-30_13h31.42.012,uWM_experiment,2022.2.3,59.99311279
,,,,,,,,,,,,,,,,,,,,8,0,8,0,2,0,2,0,,,,,,,,,,,,,,,,,,,,,,,,,,,,,,,,,,,,,,,,,,,,,,,,,,,,,,,,,,,,,,,,,,,,,,0,,,,,,,,,,,,,,,,,,,,,,,,,,,,left,1,10,-30,-20,0,2612.676567,2612.676567,2612.676567,None,None,1,1,0.3835823,,,,,,,,,,,,,,,,,,,10,15,1,2024-10-30_13h31.42.012,uWM_experiment,2022.2.3,59.99311279
,,,,,,,,,,,,,,,,,,,,8,0,8,0,3,0,3,0,,,,,,,,,,,,,,,,,,,,,,,,,,,,,,,,,,,,,,,,,,,,,,,,,,,,,,,,,,,,,,,,,,,,,,0,,,,,,,,,,,,,,,,,,,,,,,,,,,,right,0,70,-30,40,0,2619.160197,2619.160197,2619.160197,None,None,1,1,0.4279965,,,,,,,,,,,,,,,,,,,10,15,1,2024-10-30_13h31.42.012,uWM_experiment,2022.2.3,59.99311279
,,,,,,,,,,,,,,,,,,,,8,0,8,0,4,0,4,0,,,,,,,,,,,,,,,,,,,,,,,,,,,,,,,,,,,,,,,,,,,,,,,,,,,,,,,,,,,,,,,,,,,,,,0.112191504,,,,,,,,,,,,,,,,,,,,,,,,,,,,right,1,10,30,40,1,2625.160466,2625.160466,2625.160466,None,None,1,1,0.7797467,,,,,,,,,,,,,,,,,,,10,15,1,2024-10-30_13h31.42.012,uWM_experiment,2022.2.3,59.99311279
,,,,,,,,,,,,,,,,,,,,8,0,8,0,5,0,5,0,,,,,,,,,,,,,,,,,,,,,,,,,,,,,,,,,,,,,,,,,,,,,,,,,,,,,,,,,,,,,,,,,,,,,,0.122191504,,,,,,,,,,,,,,,,,,,,,,,,,,,,right,1,10,30,40,1,2631.360724,2631.360724,2631.360724,None,None,2,0,0.3635127,,,,,,,,,,,,,,,,,,,10,15,1,2024-10-30_13h31.42.012,uWM_experiment,2022.2.3,59.99311279
,,,,,,,,,,,,,,,,,,,,8,0,8,0,6,0,6,0,,,,,,,,,,,,,,,,,,,,,,,,,,,,,,,,,,,,,,,,,,,,,,,,,,,,,,,,,,,,,,,,,,,,,,0.112191504,,,,,,,,,,,,,,,,,,,,,,,,,,,,right,0,40,-30,10,1,2637.360995,2637.360995,2637.360995,None,None,2,0,0.4111933,,,,,,,,,,,,,,,,,,,10,15,1,2024-10-30_13h31.42.012,uWM_experiment,2022.2.3,59.99311279
,,,,,,,,,,,,,,,,,,,,8,0,8,0,7,0,7,0,,,,,,,,,,,,,,,,,,,,,,,,,,,,,,,,,,,,,,,,,,,,,,,,,,,,,,,,,,,,,,,,,,,,,,0,,,,,,,,,,,,,,,,,,,,,,,,,,,,left,1,10,-30,-20,0,2643.477937,2643.477937,2643.477937,None,None,1,1,0.3503085,,,,,,,,,,,,,,,,,,,10,15,1,2024-10-30_13h31.42.012,uWM_experiment,2022.2.3,59.99311279
,,,,,,,,,,,,,,,,,,,,8,0,8,0,8,0,8,0,,,,,,,,,,,,,,,,,,,,,,,,,,,,,,,,,,,,,,,,,,,,,,,,,,,,,,,,,,,,,,,,,,,,,,0.102191504,,,,,,,,,,,,,,,,,,,,,,,,,,,,left,1,100,-30,70,1,2649.711553,2649.711553,2649.711553,None,None,1,1,0.7646017,,,,,,,,,,,,,,,,,,,10,15,1,2024-10-30_13h31.42.012,uWM_experiment,2022.2.3,59.99311279
,,,,,,,,,,,,,,,,,,,,8,0,8,0,9,0,9,0,,,,,,,,,,,,,,,,,,,,,,,,,,,,,,,,,,,,,,,,,,,,,,,,,,,,,,,,,,,,,,,,,,,,,,0,,,,,,,,,,,,,,,,,,,,,,,,,,,,left,1,10,-30,-20,0,2655.895152,2655.895152,2655.895152,None,None,1,1,0.4930148,,,,,,,,,,,,,,,,,,,10,15,1,2024-10-30_13h31.42.012,uWM_experiment,2022.2.3,59.99311279
,,,,,,,,,,,,,,,,,,,,8,0,8,0,10,0,10,0,,,,,,,,,,,,,,,,,,,,,,,,,,,,,,,,,,,,,,,,,,,,,,,,,,,,,,,,,,,,,,,,,,,,,,0.112191504,,,,,,,,,,,,,,,,,,,,,,,,,,,,right,0,100,-30,70,1,2662.162106,2662.162106,2662.162106,None,None,1,1,1.0100476,,,,,,,,,,,,,,,,,,,10,15,1,2024-10-30_13h31.42.012,uWM_experiment,2022.2.3,59.99311279
,,,,,,,,,,,,,,,,,,,,8,0,8,0,11,0,11,0,,,,,,,,,,,,,,,,,,,,,,,,,,,,,,,,,,,,,,,,,,,,,,,,,,,,,,,,,,,,,,,,,,,,,,0,,,,,,,,,,,,,,,,,,,,,,,,,,,,right,1,10,30,40,0,2668.779075,2668.779075,2668.779075,None,None,1,1,0.5370512,,,,,,,,,,,,,,,,,,,10,15,1,2024-10-30_13h31.42.012,uWM_experiment,2022.2.3,59.99311279
,,,,,,,,,,,,,,,,,,,,8,0,8,0,12,0,12,0,,,,,,,,,,,,,,,,,,,,,,,,,,,,,,,,,,,,,,,,,,,,,,,,,,,,,,,,,,,,,,,,,,,,,,0.122191504,,,,,,,,,,,,,,,,,,,,,,,,,,,,left,0,100,30,130,1,2674.729349,2674.729349,2674.729349,None,None,2,0,0.3949125,,,,,,,,,,,,,,,,,,,10,15,1,2024-10-30_13h31.42.012,uWM_experiment,2022.2.3,59.99311279
,,,,,,,,,,,,,,,,,,,,8,0,8,0,13,0,13,0,,,,,,,,,,,,,,,,,,,,,,,,,,,,,,,,,,,,,,,,,,,,,,,,,,,,,,,,,,,,,,,,,,,,,,0.112191504,,,,,,,,,,,,,,,,,,,,,,,,,,,,right,1,40,30,70,1,2680.796298,2680.796298,2680.796298,None,None,2,0,0.4159126,,,,,,,,,,,,,,,,,,,10,15,1,2024-10-30_13h31.42.012,uWM_experiment,2022.2.3,59.99311279
,,,,,,,,,,,,,,,,,,,,8,0,8,0,14,0,14,0,,,,,,,,,,,,,,,,,,,,,,,,,,,,,,,,,,,,,,,,,,,,,,,,,,,,,,,,,,,,,,,,,,,,,,0.102191504,,,,,,,,,,,,,,,,,,,,,,,,,,,,right,0,40,-30,10,1,2686.613208,2686.613208,2686.613208,None,None,1,1,0.4149632,,,,,,,,,,,,,,,,,,,10,15,1,2024-10-30_13h31.42.012,uWM_experiment,2022.2.3,59.99311279
,,,,,,,,,,,,,,,,,,,,8,0,8,0,15,0,15,0,,,,,,,,,,,,,,,,,,,,,,,,,,,,,,,,,,,,,,,,,,,,,,,,,,,,,,,,,,,,,,,,,,,,,,0,,,,,,,,,,,,,,,,,,,,,,,,,,,,right,1,40,30,70,0,2692.496826,2692.496826,2692.496826,None,None,1,1,0.3552997,,,,,,,,,,,,,,,,,,,10,15,1,2024-10-30_13h31.42.012,uWM_experiment,2022.2.3,59.99311279
,,,,,,,,,,,,,,,,,,,,8,0,8,0,16,0,16,0,,,,,,,,,,,,,,,,,,,,,,,,,,,,,,,,,,,,,,,,,,,,,,,,,,,,,,,,,,,,,,,,,,,,,,0.112191504,,,,,,,,,,,,,,,,,,,,,,,,,,,,right,0,70,-30,40,1,2698.28041,2698.28041,2698.28041,None,None,2,0,0.3958049,,,,,,,,,,,,,,,,,,,10,15,1,2024-10-30_13h31.42.012,uWM_experiment,2022.2.3,59.99311279
,,,,,,,,,,,,,,,,,,,,8,0,8,0,17,0,17,0,,,,,,,,,,,,,,,,,,,,,,,,,,,,,,,,,,,,,,,,,,,,,,,,,,,,,,,,,,,,,,,,,,,,,,0,,,,,,,,,,,,,,,,,,,,,,,,,,,,left,0,70,30,100,0,2704.064007,2704.064007,2704.064007,None,None,1,1,0.3321751,,,,,,,,,,,,,,,,,,,10,15,1,2024-10-30_13h31.42.012,uWM_experiment,2022.2.3,59.99311279
,,,,,,,,,,,,,,,,,,,,8,0,8,0,18,0,18,0,,,,,,,,,,,,,,,,,,,,,,,,,,,,,,,,,,,,,,,,,,,,,,,,,,,,,,,,,,,,,,,,,,,,,,0.102191504,,,,,,,,,,,,,,,,,,,,,,,,,,,,right,0,70,-30,40,1,2709.897575,2709.897575,2709.897575,None,None,1,1,0.6427019,,,,,,,,,,,,,,,,,,,10,15,1,2024-10-30_13h31.42.012,uWM_experiment,2022.2.3,59.99311279
,,,,,,,,,,,,,,,,,,,,8,0,8,0,19,0,19,0,,,,,,,,,,,,,,,,,,,,,,,,,,,,,,,,,,,,,,,,,,,,,,,,,,,,,,,,,,,,,,,,,,,,,,0.112191504,,,,,,,,,,,,,,,,,,,,,,,,,,,,left,1,10,-30,-20,1,2715.964532,2715.964532,2715.964532,None,None,1,1,0.3437123,,,,,,,,,,,,,,,,,,,10,15,1,2024-10-30_13h31.42.012,uWM_experiment,2022.2.3,59.99311279
,,,,,,,,,,,,,,,,,,,,8,0,8,0,20,0,20,0,,,,,,,,,,,,,,,,,,,,,,,,,,,,,,,,,,,,,,,,,,,,,,,,,,,,,,,,,,,,,,,,,,,,,,0.122191504,,,,,,,,,,,,,,,,,,,,,,,,,,,,right,1,160,30,190,1,2721.781438,2721.781438,2721.781438,None,None,3,0,0.5748548,,,,,,,,,,,,,,,,,,,10,15,1,2024-10-30_13h31.42.012,uWM_experiment,2022.2.3,59.99311279
,,,,,,,,,,,,,,,,,,,,8,0,8,0,21,0,21,0,,,,,,,,,,,,,,,,,,,,,,,,,,,,,,,,,,,,,,,,,,,,,,,,,,,,,,,,,,,,,,,,,,,,,,0,,,,,,,,,,,,,,,,,,,,,,,,,,,,right,1,160,30,190,0,2727.748386,2727.748386,2727.748386,None,None,1,1,0.3518378,,,,,,,,,,,,,,,,,,,10,15,1,2024-10-30_13h31.42.012,uWM_experiment,2022.2.3,59.99311279
,,,,,,,,,,,,,,,,,,,,8,0,8,0,22,0,22,0,,,,,,,,,,,,,,,,,,,,,,,,,,,,,,,,,,,,,,,,,,,,,,,,,,,,,,,,,,,,,,,,,,,,,,0.1,,,,,,,,,,,,,,,,,,,,,,,,,,,,left,1,160,-30,130,2,2733.882,2733.882,2733.882,None,None,4,0,0.4982139,,,,,,,,,,,,,,,,,,,10,15,1,2024-10-30_13h31.42.012,uWM_experiment,2022.2.3,59.99311279
,,,,,,,,,,,,,,,,,,,,8,0,8,0,23,0,23,0,,,,,,,,,,,,,,,,,,,,,,,,,,,,,,,,,,,,,,,,,,,,,,,,,,,,,,,,,,,,,,,,,,,,,,0.112191504,,,,,,,,,,,,,,,,,,,,,,,,,,,,left,0,70,30,100,1,2739.81558,2739.81558,2739.81558,None,None,2,0,0.4686,,,,,,,,,,,,,,,,,,,10,15,1,2024-10-30_13h31.42.012,uWM_experiment,2022.2.3,59.99311279
,,,,,,,,,,,,,,,,,,,,8,0,8,0,,,,,0,0,0,0,,,,,,,,,,,,,,,,,,,,,,,,,,,,,,,,,,,,,,,,,,,,,,,,,,,,,,,,,,,,,,,,,,,,,,,,,,,,,,,,,,,,,,,,,,,,,,,,,,,,,,,,,,,,2740.315605,2740.315605,space,7.3126091,space,None,,2747.649256,2747.649256,8.8110439,,,,,,,,,10,15,1,2024-10-30_13h31.42.012,uWM_experiment,2022.2.3,59.99311279
,,,,,,,,,,,,,,,,,,,,8,0,8,0,,,,,1,0,1,0,,,,,,,,,,,,,,,,,,,,,,,,,,,,,,,,,,,,,,,,,,,,,,,,,,,,,,,,,,,,,,,,,,,,,,,,,,,,,,,,,,,,,,,,,,,,,,,,,,,,,,,,,,,,,,,,,,,,,,,,,,,,,,10,15,1,2024-10-30_13h31.42.012,uWM_experiment,2022.2.3,59.99311279
,,,,,,,,,,,,,,,,,,,,8,0,8,0,,,,,2,0,2,0,,,,,,,,,,,,,,,,,,,,,,,,,,,,,,,,,,,,,,,,,,,,,,,,,,,,,,,,,,,,,,,,,,,,,,,,,,,,,,,,,,,,,,,,,,,,,,,,,,,,,,,,,,,,,,,,,,,,,,,,,,,,,,10,15,1,2024-10-30_13h31.42.012,uWM_experiment,2022.2.3,59.99311279
,,,,,,,,,,,,,,,,,,,,9,0,9,0,0,0,0,0,,,,,,,,,,,,,,,,,,,,,,,,,,,,,,,,,,,,,,,,,,,,,,,,,,,,,,,,,,,,,,,,,,,,,,0.1,,,,,,,,,,,,,,,,,,,,2756.482987,2757.183017,2757.48303,2758.183063,2758.483074,2759.183126,2759.183126,2759.499794,right,0,70,-30,40,2,2764.983435,2764.983435,2764.983435,None,None,4,0,0.4687513,,,,,,,None,,,,,,,,,,,,10,15,1,2024-10-30_13h31.42.012,uWM_experiment,2022.2.3,59.99311279
,,,,,,,,,,,,,,,,,,,,9,0,9,0,1,0,1,0,,,,,,,,,,,,,,,,,,,,,,,,,,,,,,,,,,,,,,,,,,,,,,,,,,,,,,,,,,,,,,,,,,,,,,0.102191504,,,,,,,,,,,,,,,,,,,,,,,,,,,,left,0,100,30,130,1,2770.88365,2770.88365,2770.88365,None,None,1,1,0.368561,,,,,,,,,,,,,,,,,,,10,15,1,2024-10-30_13h31.42.012,uWM_experiment,2022.2.3,59.99311279
,,,,,,,,,,,,,,,,,,,,9,0,9,0,2,0,2,0,,,,,,,,,,,,,,,,,,,,,,,,,,,,,,,,,,,,,,,,,,,,,,,,,,,,,,,,,,,,,,,,,,,,,,0.112191504,,,,,,,,,,,,,,,,,,,,,,,,,,,,right,0,40,-30,10,1,2776.683904,2776.683904,2776.683904,None,None,2,0,0.424368,,,,,,,,,,,,,,,,,,,10,15,1,2024-10-30_13h31.42.012,uWM_experiment,2022.2.3,59.99311279
,,,,,,,,,,,,,,,,,,,,9,0,9,0,3,0,3,0,,,,,,,,,,,,,,,,,,,,,,,,,,,,,,,,,,,,,,,,,,,,,,,,,,,,,,,,,,,,,,,,,,,,,,0.102191504,,,,,,,,,,,,,,,,,,,,,,,,,,,,right,0,130,-30,100,1,2783.250871,2783.250871,2783.250871,None,None,2,0,0.3293883,,,,,,,,,,,,,,,,,,,10,15,1,2024-10-30_13h31.42.012,uWM_experiment,2022.2.3,59.99311279
,,,,,,,,,,,,,,,,,,,,9,0,9,0,4,0,4,0,,,,,,,,,,,,,,,,,,,,,,,,,,,,,,,,,,,,,,,,,,,,,,,,,,,,,,,,,,,,,,,,,,,,,,0.092191504,,,,,,,,,,,,,,,,,,,,,,,,,,,,right,1,10,30,40,1,2789.001108,2789.001108,2789.001108,None,None,2,0,0.4592158,,,,,,,,,,,,,,,,,,,10,15,1,2024-10-30_13h31.42.012,uWM_experiment,2022.2.3,59.99311279
,,,,,,,,,,,,,,,,,,,,9,0,9,0,5,0,5,0,,,,,,,,,,,,,,,,,,,,,,,,,,,,,,,,,,,,,,,,,,,,,,,,,,,,,,,,,,,,,,,,,,,,,,0,,,,,,,,,,,,,,,,,,,,,,,,,,,,left,1,160,-30,130,0,2794.768038,2794.768038,2794.768038,None,None,1,1,0.6922767,,,,,,,,,,,,,,,,,,,10,15,1,2024-10-30_13h31.42.012,uWM_experiment,2022.2.3,59.99311279
,,,,,,,,,,,,,,,,,,,,9,0,9,0,6,0,6,0,,,,,,,,,,,,,,,,,,,,,,,,,,,,,,,,,,,,,,,,,,,,,,,,,,,,,,,,,,,,,,,,,,,,,,0.082191504,,,,,,,,,,,,,,,,,,,,,,,,,,,,left,0,130,30,160,1,2800.934995,2800.934995,2800.934995,None,None,2,0,0.5412663,,,,,,,,,,,,,,,,,,,10,15,1,2024-10-30_13h31.42.012,uWM_experiment,2022.2.3,59.99311279
,,,,,,,,,,,,,,,,,,,,9,0,9,0,7,0,7,0,,,,,,,,,,,,,,,,,,,,,,,,,,,,,,,,,,,,,,,,,,,,,,,,,,,,,,,,,,,,,,,,,,,,,,0.072191504,,,,,,,,,,,,,,,,,,,,,,,,,,,,left,0,70,30,100,1,2807.018605,2807.018605,2807.018605,None,None,1,1,0.401561,,,,,,,,,,,,,,,,,,,10,15,1,2024-10-30_13h31.42.012,uWM_experiment,2022.2.3,59.99311279
,,,,,,,,,,,,,,,,,,,,9,0,9,0,8,0,8,0,,,,,,,,,,,,,,,,,,,,,,,,,,,,,,,,,,,,,,,,,,,,,,,,,,,,,,,,,,,,,,,,,,,,,,0,,,,,,,,,,,,,,,,,,,,,,,,,,,,right,1,40,30,70,0,2813.252215,2813.252215,2813.252215,None,None,1,1,0.3359874,,,,,,,,,,,,,,,,,,,10,15,1,2024-10-30_13h31.42.012,uWM_experiment,2022.2.3,59.99311279
,,,,,,,,,,,,,,,,,,,,9,0,9,0,9,0,9,0,,,,,,,,,,,,,,,,,,,,,,,,,,,,,,,,,,,,,,,,,,,,,,,,,,,,,,,,,,,,,,,,,,,,,,0.082191504,,,,,,,,,,,,,,,,,,,,,,,,,,,,right,0,70,-30,40,1,2819.035807,2819.035807,2819.035807,None,None,1,1,0.3844572,,,,,,,,,,,,,,,,,,,10,15,1,2024-10-30_13h31.42.012,uWM_experiment,2022.2.3,59.99311279
,,,,,,,,,,,,,,,,,,,,9,0,9,0,10,0,10,0,,,,,,,,,,,,,,,,,,,,,,,,,,,,,,,,,,,,,,,,,,,,,,,,,,,,,,,,,,,,,,,,,,,,,,0.092191504,,,,,,,,,,,,,,,,,,,,,,,,,,,,left,0,70,30,100,1,2824.836062,2824.836062,2824.836062,None,None,1,1,0.3282964,,,,,,,,,,,,,,,,,,,10,15,1,2024-10-30_13h31.42.012,uWM_experiment,2022.2.3,59.99311279
,,,,,,,,,,,,,,,,,,,,9,0,9,0,11,0,11,0,,,,,,,,,,,,,,,,,,,,,,,,,,,,,,,,,,,,,,,,,,,,,,,,,,,,,,,,,,,,,,,,,,,,,,0.102191504,,,,,,,,,,,,,,,,,,,,,,,,,,,,right,1,70,30,100,1,2830.719671,2830.719671,2830.719671,None,None,2,0,0.3885491,,,,,,,,,,,,,,,,,,,10,15,1,2024-10-30_13h31.42.012,uWM_experiment,2022.2.3,59.99311279
,,,,,,,,,,,,,,,,,,,,9,0,9,0,12,0,12,0,,,,,,,,,,,,,,,,,,,,,,,,,,,,,,,,,,,,,,,,,,,,,,,,,,,,,,,,,,,,,,,,,,,,,,0.092191504,,,,,,,,,,,,,,,,,,,,,,,,,,,,right,0,100,-30,70,1,2836.786574,2836.786574,2836.786574,None,None,3,0,0.4096512,,,,,,,,,,,,,,,,,,,10,15,1,2024-10-30_13h31.42.012,uWM_experiment,2022.2.3,59.99311279
,,,,,,,,,,,,,,,,,,,,9,0,9,0,13,0,13,0,,,,,,,,,,,,,,,,,,,,,,,,,,,,,,,,,,,,,,,,,,,,,,,,,,,,,,,,,,,,,,,,,,,,,,0.082191504,,,,,,,,,,,,,,,,,,,,,,,,,,,,left,1,10,-30,-20,1,2842.803513,2842.803513,2842.803513,None,None,2,0,0.2647582,,,,,,,,,,,,,,,,,,,10,15,1,2024-10-30_13h31.42.012,uWM_experiment,2022.2.3,59.99311279
,,,,,,,,,,,,,,,,,,,,9,0,9,0,14,0,14,0,,,,,,,,,,,,,,,,,,,,,,,,,,,,,,,,,,,,,,,,,,,,,,,,,,,,,,,,,,,,,,,,,,,,,,0,,,,,,,,,,,,,,,,,,,,,,,,,,,,right,1,40,30,70,0,2848.387111,2848.387111,2848.387111,None,None,1,1,0.3772534,,,,,,,,,,,,,,,,,,,10,15,1,2024-10-30_13h31.42.012,uWM_experiment,2022.2.3,59.99311279
,,,,,,,,,,,,,,,,,,,,9,0,9,0,15,0,15,0,,,,,,,,,,,,,,,,,,,,,,,,,,,,,,,,,,,,,,,,,,,,,,,,,,,,,,,,,,,,,,,,,,,,,,0.072191504,,,,,,,,,,,,,,,,,,,,,,,,,,,,left,0,100,30,130,1,2854.420723,2854.420723,2854.420723,None,None,2,0,0.3275639,,,,,,,,,,,,,,,,,,,10,15,1,2024-10-30_13h31.42.012,uWM_experiment,2022.2.3,59.99311279
,,,,,,,,,,,,,,,,,,,,9,0,9,0,16,0,16,0,,,,,,,,,,,,,,,,,,,,,,,,,,,,,,,,,,,,,,,,,,,,,,,,,,,,,,,,,,,,,,,,,,,,,,0.062191504,,,,,,,,,,,,,,,,,,,,,,,,,,,,left,1,160,-30,130,1,2860.187653,2860.187653,2860.187653,None,None,3,0,0.5286242,,,,,,,,,,,,,,,,,,,10,15,1,2024-10-30_13h31.42.012,uWM_experiment,2022.2.3,59.99311279
,,,,,,,,,,,,,,,,,,,,9,0,9,0,17,0,17,0,,,,,,,,,,,,,,,,,,,,,,,,,,,,,,,,,,,,,,,,,,,,,,,,,,,,,,,,,,,,,,,,,,,,,,0,,,,,,,,,,,,,,,,,,,,,,,,,,,,left,1,160,-30,130,0,2866.087917,2866.087917,2866.087917,None,None,1,1,0.4203246,,,,,,,,,,,,,,,,,,,10,15,1,2024-10-30_13h31.42.012,uWM_experiment,2022.2.3,59.99311279
,,,,,,,,,,,,,,,,,,,,9,0,9,0,18,0,18,0,,,,,,,,,,,,,,,,,,,,,,,,,,,,,,,,,,,,,,,,,,,,,,,,,,,,,,,,,,,,,,,,,,,,,,0,,,,,,,,,,,,,,,,,,,,,,,,,,,,right,1,10,30,40,0,2871.888166,2871.888166,2871.888166,None,None,2,0,1.1481917,,,,,,,,,,,,,,,,,,,10,15,1,2024-10-30_13h31.42.012,uWM_experiment,2022.2.3,59.99311279
,,,,,,,,,,,,,,,,,,,,9,0,9,0,19,0,19,0,,,,,,,,,,,,,,,,,,,,,,,,,,,,,,,,,,,,,,,,,,,,,,,,,,,,,,,,,,,,,,,,,,,,,,0.052191504,,,,,,,,,,,,,,,,,,,,,,,,,,,,left,1,10,-30,-20,1,2878.588484,2878.588484,2878.588484,None,None,1,1,0.3197309,,,,,,,,,,,,,,,,,,,10,15,1,2024-10-30_13h31.42.012,uWM_experiment,2022.2.3,59.99311279
