PreTrainingPAS4_loop.thisRepN,PreTrainingPAS4_loop.thisTrialN,PreTrainingPAS4_loop.thisN,PreTrainingPAS4_loop.thisIndex,PreTrainingPAS1_loop.thisRepN,PreTrainingPAS1_loop.thisTrialN,PreTrainingPAS1_loop.thisN,PreTrainingPAS1_loop.thisIndex,RepeatCV_loop.thisRepN,RepeatCV_loop.thisTrialN,RepeatCV_loop.thisN,RepeatCV_loop.thisIndex,TrainingCV_loop.thisRepN,TrainingCV_loop.thisTrialN,TrainingCV_loop.thisN,TrainingCV_loop.thisIndex,TrainingCAL_loop.thisRepN,TrainingCAL_loop.thisTrialN,TrainingCAL_loop.thisN,TrainingCAL_loop.thisIndex,blocks_loop.thisRepN,blocks_loop.thisTrialN,blocks_loop.thisN,blocks_loop.thisIndex,trials_loop.thisRepN,trials_loop.thisTrialN,trials_loop.thisN,trials_loop.thisIndex,TrainingPAS1_loop.thisRepN,TrainingPAS1_loop.thisTrialN,TrainingPAS1_loop.thisN,TrainingPAS1_loop.thisIndex,spacebarWelcome0.started,spacebarWelcome0.keys,spacebarWelcome0.rt,spacebarWelcome1.started,gaborWelcome1.started,maskWelcome1.started,textMaskWelcome1.started,spacebarWelcome1.keys,spacebarWelcome1.rt,spacebarWelcome2.started,spacebarWelcome2.keys,spacebarWelcome2.rt,textInst_PreTrainingPAS4.started,spacebarPreTrainingPAS4.started,spacebarPreTrainingPAS4.keys,spacebarPreTrainingPAS4.rt,textPreTrainingPAS1.started,spacebarPreTrainingPAS1.started,spacebarPreTrainingPAS1.keys,spacebarPreTrainingPAS1.rt,textQUEST0.started,spacebarQUEST0.started,spacebarQUEST0.keys,spacebarQUEST0.rt,spacebar0.started,spacebar0.keys,spacebar0.rt,spacebar1.started,spacebar1.keys,spacebar1.rt,textInstructions2.started,spacebar2.started,Gabor1Inst2.started,Gabor2Inst2.started,Gabor3Inst2.started,Gabor4Inst2.started,spacebar2.keys,spacebar2.rt,textInstructionsPAS.started,spacebarInstPAS.started,spacebarInstPAS.keys,spacebarInstPAS.rt,textInstructions3.started,spacebar3.started,spacebar3.keys,spacebar3.rt,WMresp_CV,WMresp_CV_acc,oriMemo_CV,gyre_CV,oriTest_CV,feedbackText.started,feedbackText.stopped,sliderCV.started,PAStextCV.started,PASkeyCV.started,sliderCV.response,sliderCV.rt,PASkeyCV.keys,PASkeyCV.corr,PASkeyCV.rt,TextInstructionsCAL.started,spacebarCAL.started,spacebarCAL.keys,spacebarCAL.rt,contrast,WMresp_CAL,WMresp_CAL_acc,oriMemo_CAL,gyre_CAL,oriTest_CAL,cue_CAL,sliderCAL.started,PAStextCAL.started,PASkeyCAL.started,sliderCAL.response,sliderCAL.rt,PASkeyCAL.keys,PASkeyCAL.corr,PASkeyCAL.rt,propUnseen_CAL,textStart.started,spacebar4.started,spacebar4.keys,spacebar4.rt,three.started,three.stopped,two.started,two.stopped,one.started,one.stopped,blank_countdown.started,blank_countdown.stopped,WMresp,WMresp_acc,oriMemo,gyre,oriTest,cue,slider.started,textPAS_firstGabor.started,PASkey.started,slider.response,slider.rt,PASkey.keys,PASkey.corr,PASkey.rt,spacebarContinue.started,textBreak.started,spacebarContinue.keys,spacebarContinue.rt,spacebar_reminder.keys,spacebar_TrainingPAS1.keys,spacebar_endpractice.keys,spacebar_reminder.started,textReminder.started,spacebar_reminder.rt,textInst_TrainingPAS1.started,spacebar_TrainingPAS1.started,spacebar_TrainingPAS1.rt,textend_practicePAS1.started,spacebar_endpractice.started,spacebar_endpractice.rt,textThanks.started,buttonURL.started,buttonURL.numClicks,buttonURL.timesOn,buttonURL.timesOff,laboratory,participant,session,date,expName,psychopyVersion,frameRate
,,,,,,,,,,,,,,,,,,,,,,,,,,,,,,,,36.4665829,space,45.2462984,,,,,,,,,,,,,,,,,,,,,,,,,,,,,,,,,,,,,,,,,,,,,,,,,,,,,,,,,,,,,,,,,,,,,,,,,,,,,,,,,,,,,,,,,,,,,,,,,,,,,,,,,,,,,,,,,,,,,,,,,,,,,,10,16,2,2024-10-31_15h37.34.255,uWM_experiment,2022.2.3,59.99325676
,,,,,,,,,,,,,,,,,,,,,,,,,,,,,,,,,,,81.7516655,81.7516655,81.7516655,81.7516655,space,20.7772039,,,,,,,,,,,,,,,,,,,,,,,,,,,,,,,,,,,,,,,,,,,,,,,,,,,,,,,,,,,,,,,,,,,,,,,,,,,,,,,,,,,,,,,,,,,,,,,,,,,,,,,,,,,,,,,,,,,,,,,,10,16,2,2024-10-31_15h37.34.255,uWM_experiment,2022.2.3,59.99325676
,,,,,,,,,,,,,,,,,,,,,,,,,,,,,,,,,,,,,,,,,102.5525839,space,9.0323468,,,,,,,,,,,,,,,,,,,,,,,,,,,,,,,,,,,,,,,,,,,,,,,,,,,,,,,,,,,,,,,,,,,,,,,,,,,,,,,,,,,,,,,,,,,,,,,,,,,,,,,,,,,,,,,,,,,,,10,16,2,2024-10-31_15h37.34.255,uWM_experiment,2022.2.3,59.99325676
,,,,,,,,,,,,,,,,,,,,,,,,,,,,,,,,,,,,,,,,,,,,111.6029759,111.6029759,space,4.6218562,,,,,,,,,,,,,,,,,,,,,,,,,,,,,,,,,,,,,,,,,,,,,,,,,,,,,,,,,,,,,,,,,,,,,,,,,,,,,,,,,,,,,,,,,,,,,,,,,,,,,,,,,,,,,,,,,10,16,2,2024-10-31_15h37.34.255,uWM_experiment,2022.2.3,59.99325676
0,0,0,0,,,,,,,,,,,,,,,,,,,,,,,,,,,,,,,,,,,,,,,,,,,,,,,,,,,,,,,,,,,,,,,,,,,,,,,,,,,,,,,,,,,,,,,,,,,,,,,,,,,,,,,,,,,,,,,,,,,,,,,,,,,,,,,,,,,,,,,,,,,,,,,,,,,,,,,,,,,,,10,16,2,2024-10-31_15h37.34.255,uWM_experiment,2022.2.3,59.99325676
1,0,1,0,,,,,,,,,,,,,,,,,,,,,,,,,,,,,,,,,,,,,,,,,,,,,,,,,,,,,,,,,,,,,,,,,,,,,,,,,,,,,,,,,,,,,,,,,,,,,,,,,,,,,,,,,,,,,,,,,,,,,,,,,,,,,,,,,,,,,,,,,,,,,,,,,,,,,,,,,,,,,10,16,2,2024-10-31_15h37.34.255,uWM_experiment,2022.2.3,59.99325676
2,0,2,0,,,,,,,,,,,,,,,,,,,,,,,,,,,,,,,,,,,,,,,,,,,,,,,,,,,,,,,,,,,,,,,,,,,,,,,,,,,,,,,,,,,,,,,,,,,,,,,,,,,,,,,,,,,,,,,,,,,,,,,,,,,,,,,,,,,,,,,,,,,,,,,,,,,,,,,,,,,,,10,16,2,2024-10-31_15h37.34.255,uWM_experiment,2022.2.3,59.99325676
,,,,,,,,,,,,,,,,,,,,,,,,,,,,,,,,,,,,,,,,,,,,,,,,126.3870193,126.3870193,space,5.9339319,,,,,,,,,,,,,,,,,,,,,,,,,,,,,,,,,,,,,,,,,,,,,,,,,,,,,,,,,,,,,,,,,,,,,,,,,,,,,,,,,,,,,,,,,,,,,,,,,,,,,,,,,,,,,10,16,2,2024-10-31_15h37.34.255,uWM_experiment,2022.2.3,59.99325676
,,,,0,0,0,0,,,,,,,,,,,,,,,,,,,,,,,,,,,,,,,,,,,,,,,,,,,,,,,,,,,,,,,,,,,,,,,,,,,,,,,,,,,,,,,,,,,,,,,,,,,,,,,,,,,,,,,,,,,,,,,,,,,,,,,,,,,,,,,,,,,,,,,,,,,,,,,,,,,,,,,,,10,16,2,2024-10-31_15h37.34.255,uWM_experiment,2022.2.3,59.99325676
,,,,1,0,1,0,,,,,,,,,,,,,,,,,,,,,,,,,,,,,,,,,,,,,,,,,,,,,,,,,,,,,,,,,,,,,,,,,,,,,,,,,,,,,,,,,,,,,,,,,,,,,,,,,,,,,,,,,,,,,,,,,,,,,,,,,,,,,,,,,,,,,,,,,,,,,,,,,,,,,,,,,10,16,2,2024-10-31_15h37.34.255,uWM_experiment,2022.2.3,59.99325676
,,,,2,0,2,0,,,,,,,,,,,,,,,,,,,,,,,,,,,,,,,,,,,,,,,,,,,,,,,,,,,,,,,,,,,,,,,,,,,,,,,,,,,,,,,,,,,,,,,,,,,,,,,,,,,,,,,,,,,,,,,,,,,,,,,,,,,,,,,,,,,,,,,,,,,,,,,,,,,,,,,,,10,16,2,2024-10-31_15h37.34.255,uWM_experiment,2022.2.3,59.99325676
,,,,,,,,,,,,,,,,,,,,,,,,,,,,,,,,,,,,,,,,,,,,,,,,,,,,141.8043321,141.8043321,space,4.5805725,,,,,,,,,,,,,,,,,,,,,,,,,,,,,,,,,,,,,,,,,,,,,,,,,,,,,,,,,,,,,,,,,,,,,,,,,,,,,,,,,,,,,,,,,,,,,,,,,,,,,,,,,10,16,2,2024-10-31_15h37.34.255,uWM_experiment,2022.2.3,59.99325676
,,,,,,,,,,,,,,,,,,,,,,,,,,,,,,,,,,,,,,,,,,,,,,,,,,,,,,,,308.4118079,space,34.2291868,,,,,,,,,,,,,,,,,,,,,,,,,,,,,,,,,,,,,,,,,,,,,,,,,,,,,,,,,,,,,,,,,,,,,,,,,,,,,,,,,,,,,,,,,,,,,,,,,,,,,,10,16,2,2024-10-31_15h37.34.255,uWM_experiment,2022.2.3,59.99325676
,,,,,,,,,,,,,,,,,,,,,,,,,,,,,,,,,,,,,,,,,,,,,,,,,,,,,,,,,,,342.6633495,space,26.6495934,,,,,,,,,,,,,,,,,,,,,,,,,,,,,,,,,,,,,,,,,,,,,,,,,,,,,,,,,,,,,,,,,,,,,,,,,,,,,,,,,,,,,,,,,,,,,,,,,,,10,16,2,2024-10-31_15h37.34.255,uWM_experiment,2022.2.3,59.99325676
,,,,,,,,,,,,,,,,,,,,,,,,,,,,,,,,,,,,,,,,,,,,,,,,,,,,,,,,,,,,,,369.3312211,369.3312211,369.3312211,369.3312211,369.3312211,369.3312211,space,37.3817846,,,,,,,,,,,,,,,,,,,,,,,,,,,,,,,,,,,,,,,,,,,,,,,,,,,,,,,,,,,,,,,,,,,,,,,,,,,,,,,,,,,,,,,,,,,10,16,2,2024-10-31_15h37.34.255,uWM_experiment,2022.2.3,59.99325676
,,,,,,,,,,,,,,,,,,,,,,,,,,,,,,,,,,,,,,,,,,,,,,,,,,,,,,,,,,,,,,,,,,,,,,406.7329232,406.7329232,space,7.8040204,,,,,,,,,,,,,,,,,,,,,,,,,,,,,,,,,,,,,,,,,,,,,,,,,,,,,,,,,,,,,,,,,,,,,,,,,,,,,,,,,,,,,,,10,16,2,2024-10-31_15h37.34.255,uWM_experiment,2022.2.3,59.99325676
,,,,,,,,,,,,,,,,,,,,,,,,,,,,,,,,,,,,,,,,,,,,,,,,,,,,,,,,,,,,,,,,,,,,,,,,,,414.5665979,414.5665979,space,5.9144179,,,,,,,,,,,,,,,,,,,,,,,,,,,,,,,,,,,,,,,,,,,,,,,,,,,,,,,,,,,,,,,,,,,,,,,,,,,,,,,,,,,10,16,2,2024-10-31_15h37.34.255,uWM_experiment,2022.2.3,59.99325676
,,,,,,,,0,0,0,0,0,0,0,0,,,,,,,,,,,,,,,,,,,,,,,,,,,,,,,,,,,,,,,,,,,,,,,,,,,,,,,,,,,,,,,left,1,40,-30,10,428.0338757,429.0339404,429.0339404,429.0339404,429.0339404,None,None,4,0,2.0389592,,,,,,,,,,,,,,,,,,,,,,,,,,,,,,,,,,,,,,,,,,,,,,,,,,,,,,,,,,,,,,,,,,,,10,16,2,2024-10-31_15h37.34.255,uWM_experiment,2022.2.3,59.99325676
,,,,,,,,0,0,0,0,1,0,1,0,,,,,,,,,,,,,,,,,,,,,,,,,,,,,,,,,,,,,,,,,,,,,,,,,,,,,,,,,,,,,,,left,1,70,-30,40,438.4343468,439.4343878,439.4343878,439.4343878,439.4343878,None,None,4,0,0.8705544,,,,,,,,,,,,,,,,,,,,,,,,,,,,,,,,,,,,,,,,,,,,,,,,,,,,,,,,,,,,,,,,,,,,10,16,2,2024-10-31_15h37.34.255,uWM_experiment,2022.2.3,59.99325676
,,,,,,,,0,0,0,0,2,0,2,0,,,,,,,,,,,,,,,,,,,,,,,,,,,,,,,,,,,,,,,,,,,,,,,,,,,,,,,,,,,,,,,right,1,10,30,40,446.5180692,447.5181023,447.5181023,447.5181023,447.5181023,None,None,4,0,0.610897,,,,,,,,,,,,,,,,,,,,,,,,,,,,,,,,,,,,,,,,,,,,,,,,,,,,,,,,,,,,,,,,,,,,10,16,2,2024-10-31_15h37.34.255,uWM_experiment,2022.2.3,59.99325676
,,,,,,,,0,0,0,0,3,0,3,0,,,,,,,,,,,,,,,,,,,,,,,,,,,,,,,,,,,,,,,,,,,,,,,,,,,,,,,,,,,,,,,right,1,100,30,130,455.6018113,456.6018338,456.6018338,456.6018338,456.6018338,None,None,4,0,0.4312127,,,,,,,,,,,,,,,,,,,,,,,,,,,,,,,,,,,,,,,,,,,,,,,,,,,,,,,,,,,,,,,,,,,,10,16,2,2024-10-31_15h37.34.255,uWM_experiment,2022.2.3,59.99325676
,,,,,,,,0,0,0,0,4,0,4,0,,,,,,,,,,,,,,,,,,,,,,,,,,,,,,,,,,,,,,,,,,,,,,,,,,,,,,,,,,,,,,,right,1,10,30,40,462.9188044,463.9188304,463.9188304,463.9188304,463.9188304,None,None,4,0,0.4102559,,,,,,,,,,,,,,,,,,,,,,,,,,,,,,,,,,,,,,,,,,,,,,,,,,,,,,,,,,,,,,,,,,,,10,16,2,2024-10-31_15h37.34.255,uWM_experiment,2022.2.3,59.99325676
,,,,,,,,0,0,0,0,5,0,5,0,,,,,,,,,,,,,,,,,,,,,,,,,,,,,,,,,,,,,,,,,,,,,,,,,,,,,,,,,,,,,,,left,1,40,-30,10,470.3191282,471.3191566,471.3191566,471.3191566,471.3191566,None,None,4,0,0.434119,,,,,,,,,,,,,,,,,,,,,,,,,,,,,,,,,,,,,,,,,,,,,,,,,,,,,,,,,,,,,,,,,,,,10,16,2,2024-10-31_15h37.34.255,uWM_experiment,2022.2.3,59.99325676
,,,,,,,,0,0,0,0,,,,,,,,,,,,,,,,,,,,,,,,,,,,,,,,,,,,,,,,,,,,,,,,,,,,,,,,,,,,,,,,,,,,,,,,,,,,,,,,,,,,,,,,,,,,,,,,,,,,,,,,,,,,,,,,,,,,,,,,,,,,,,,,,,,,,,,,,,,,,,,,,,,,,10,16,2,2024-10-31_15h37.34.255,uWM_experiment,2022.2.3,59.99325676
,,,,,,,,,,,,,,,,,,,,,,,,,,,,,,,,,,,,,,,,,,,,,,,,,,,,,,,,,,,,,,,,,,,,,,,,,,,,,,,,,,,,,,,,,,,,,477.169439,477.169439,space,2.975725,,,,,,,,,,,,,,,,,,,,,,,,,,,,,,,,,,,,,,,,,,,,,,,,,,,,,,,,,,,,,,,,10,16,2,2024-10-31_15h37.34.255,uWM_experiment,2022.2.3,59.99325676
,,,,,,,,,,,,,,,,0,0,0,0,,,,,,,,,,,,,,,,,,,,,,,,,,,,,,,,,,,,,,,,,,,,,,,,,,,,,,,,,,,,,,,,,,,,,,,,,,,,,,0.102481857,left,1,40,-30,10,1,486.2531939,486.2531939,486.2531939,None,None,3,0,6.1798339,,,,,,,,,,,,,,,,,,,,,,,,,,,,,,,,,,,,,,,,,,,,,,,,,10,16,2,2024-10-31_15h37.34.255,uWM_experiment,2022.2.3,59.99325676
,,,,,,,,,,,,,,,,1,0,1,0,,,,,,,,,,,,,,,,,,,,,,,,,,,,,,,,,,,,,,,,,,,,,,,,,,,,,,,,,,,,,,,,,,,,,,,,,,,,,,0.092481857,left,0,100,30,130,1,500.0037741,500.0037741,500.0037741,None,None,1,1,1.3093038,0,,,,,,,,,,,,,,,,,,,,,,,,,,,,,,,,,,,,,,,,,,,,,,,,10,16,2,2024-10-31_15h37.34.255,uWM_experiment,2022.2.3,59.99325676
,,,,,,,,,,,,,,,,2,0,2,0,,,,,,,,,,,,,,,,,,,,,,,,,,,,,,,,,,,,,,,,,,,,,,,,,,,,,,,,,,,,,,,,,,,,,,,,,,,,,,0.1,right,1,10,30,40,2,508.6375509,508.6375509,508.6375509,None,None,4,0,0.7394636,0.5,,,,,,,,,,,,,,,,,,,,,,,,,,,,,,,,,,,,,,,,,,,,,,,,10,16,2,2024-10-31_15h37.34.255,uWM_experiment,2022.2.3,59.99325676
,,,,,,,,,,,,,,,,3,0,3,0,,,,,,,,,,,,,,,,,,,,,,,,,,,,,,,,,,,,,,,,,,,,,,,,,,,,,,,,,,,,,,,,,,,,,,,,,,,,,,0.102481857,left,1,70,-30,40,1,517.0045862,517.0045862,517.0045862,None,None,2,0,2.6843928,0.333333333,,,,,,,,,,,,,,,,,,,,,,,,,,,,,,,,,,,,,,,,,,,,,,,,10,16,2,2024-10-31_15h37.34.255,uWM_experiment,2022.2.3,59.99325676
,,,,,,,,,,,,,,,,4,0,4,0,,,,,,,,,,,,,,,,,,,,,,,,,,,,,,,,,,,,,,,,,,,,,,,,,,,,,,,,,,,,,,,,,,,,,,,,,,,,,,0.1,left,1,130,-30,100,2,526.7216905,526.7216905,526.7216905,None,None,4,0,1.431433,0.25,,,,,,,,,,,,,,,,,,,,,,,,,,,,,,,,,,,,,,,,,,,,,,,,10,16,2,2024-10-31_15h37.34.255,uWM_experiment,2022.2.3,59.99325676
,,,,,,,,,,,,,,,,5,0,5,0,,,,,,,,,,,,,,,,,,,,,,,,,,,,,,,,,,,,,,,,,,,,,,,,,,,,,,,,,,,,,,,,,,,,,,,,,,,,,,0.1,left,0,160,30,190,2,539.8389511,539.8389511,539.8389511,None,None,4,0,1.1061692,0.2,,,,,,,,,,,,,,,,,,,,,,,,,,,,,,,,,,,,,,,,,,,,,,,,10,16,2,2024-10-31_15h37.34.255,uWM_experiment,2022.2.3,59.99325676
,,,,,,,,,,,,,,,,,,,,,,,,,,,,,,,,,,,,,,,,,,,,,,,,,,,,,,,,,,,,,,,,,,,,,,,,,,,,,,,,,,,,,,,,,,,,,,,,,,,,,,,,,,,,,,,,,540.9723071,541.9556805,space,39.1975165,,,,,,,,,,,,,,,,,,,,,,,,,,,,,,,,,,,,,,,,,,,,10,16,2,2024-10-31_15h37.34.255,uWM_experiment,2022.2.3,59.99325676
,,,,,,,,,,,,,,,,,,,,0,0,0,0,0,0,0,0,,,,,,,,,,,,,,,,,,,,,,,,,,,,,,,,,,,,,,,,,,,,,,,,,,,,,,,,,,,,,,,,,,,,,,0.102481857,,,,,,,,,,,,,,,,,,,,581.1741295,581.8741635,582.1575101,582.8575356,583.1575543,583.8575808,583.8575808,584.2076016,right,1,160,30,190,1,590.6079093,590.6079093,590.6079093,None,None,2,0,1.4172938,,,,,,,,,,,,,,,,,,,,,,10,16,2,2024-10-31_15h37.34.255,uWM_experiment,2022.2.3,59.99325676
,,,,,,,,,,,,,,,,,,,,0,0,0,0,1,0,1,0,,,,,,,,,,,,,,,,,,,,,,,,,,,,,,,,,,,,,,,,,,,,,,,,,,,,,,,,,,,,,,,,,,,,,,0.092481857,,,,,,,,,,,,,,,,,,,,,,,,,,,,left,1,130,-30,100,1,599.2083003,599.2083003,599.2083003,None,None,2,0,4.9367285,,,,,,,,,,,,,,,,,,,,,,10,16,2,2024-10-31_15h37.34.255,uWM_experiment,2022.2.3,59.99325676
,,,,,,,,,,,,,,,,,,,,0,0,0,0,2,0,2,0,,,,,,,,,,,,,,,,,,,,,,,,,,,,,,,,,,,,,,,,,,,,,,,,,,,,,,,,,,,,,,,,,,,,,,0.082481857,,,,,,,,,,,,,,,,,,,,,,,,,,,,left,0,160,30,190,1,613.2756443,613.2756443,613.2756443,None,None,1,1,0.8134567,,,,,,,,,,,,,,,,,,,,,,10,16,2,2024-10-31_15h37.34.255,uWM_experiment,2022.2.3,59.99325676
,,,,,,,,,,,,,,,,,,,,0,0,0,0,3,0,3,0,,,,,,,,,,,,,,,,,,,,,,,,,,,,,,,,,,,,,,,,,,,,,,,,,,,,,,,,,,,,,,,,,,,,,,0,,,,,,,,,,,,,,,,,,,,,,,,,,,,left,1,10,-30,-20,0,621.2926267,621.2926267,621.2926267,None,None,1,1,1.5404784,,,,,,,,,,,,,,,,,,,,,,10,16,2,2024-10-31_15h37.34.255,uWM_experiment,2022.2.3,59.99325676
,,,,,,,,,,,,,,,,,,,,0,0,0,0,4,0,4,0,,,,,,,,,,,,,,,,,,,,,,,,,,,,,,,,,,,,,,,,,,,,,,,,,,,,,,,,,,,,,,,,,,,,,,0.092481857,,,,,,,,,,,,,,,,,,,,,,,,,,,,left,1,130,-30,100,1,629.3596506,629.3596506,629.3596506,None,None,2,0,1.3295025,,,,,,,,,,,,,,,,,,,,,,10,16,2,2024-10-31_15h37.34.255,uWM_experiment,2022.2.3,59.99325676
,,,,,,,,,,,,,,,,,,,,0,0,0,0,5,0,5,0,,,,,,,,,,,,,,,,,,,,,,,,,,,,,,,,,,,,,,,,,,,,,,,,,,,,,,,,,,,,,,,,,,,,,,0.082481857,,,,,,,,,,,,,,,,,,,,,,,,,,,,right,1,160,30,190,1,638.9767674,638.9767674,638.9767674,None,None,1,1,2.1284331,,,,,,,,,,,,,,,,,,,,,,10,16,2,2024-10-31_15h37.34.255,uWM_experiment,2022.2.3,59.99325676
,,,,,,,,,,,,,,,,,,,,0,0,0,0,6,0,6,0,,,,,,,,,,,,,,,,,,,,,,,,,,,,,,,,,,,,,,,,,,,,,,,,,,,,,,,,,,,,,,,,,,,,,,0.092481857,,,,,,,,,,,,,,,,,,,,,,,,,,,,right,0,10,-30,-20,1,648.4604994,648.4604994,648.4604994,None,None,2,0,2.0126167,,,,,,,,,,,,,,,,,,,,,,10,16,2,2024-10-31_15h37.34.255,uWM_experiment,2022.2.3,59.99325676
,,,,,,,,,,,,,,,,,,,,0,0,0,0,7,0,7,0,,,,,,,,,,,,,,,,,,,,,,,,,,,,,,,,,,,,,,,,,,,,,,,,,,,,,,,,,,,,,,,,,,,,,,0,,,,,,,,,,,,,,,,,,,,,,,,,,,,right,1,40,30,70,0,656.4442001,656.4442001,656.4442001,None,None,1,1,0.6770719,,,,,,,,,,,,,,,,,,,,,,10,16,2,2024-10-31_15h37.34.255,uWM_experiment,2022.2.3,59.99325676
,,,,,,,,,,,,,,,,,,,,0,0,0,0,8,0,8,0,,,,,,,,,,,,,,,,,,,,,,,,,,,,,,,,,,,,,,,,,,,,,,,,,,,,,,,,,,,,,,,,,,,,,,0.082481857,,,,,,,,,,,,,,,,,,,,,,,,,,,,right,0,100,-30,70,1,665.1945916,665.1945916,665.1945916,None,None,1,1,0.5105976,,,,,,,,,,,,,,,,,,,,,,10,16,2,2024-10-31_15h37.34.255,uWM_experiment,2022.2.3,59.99325676
,,,,,,,,,,,,,,,,,,,,0,0,0,0,9,0,9,0,,,,,,,,,,,,,,,,,,,,,,,,,,,,,,,,,,,,,,,,,,,,,,,,,,,,,,,,,,,,,,,,,,,,,,0.092481857,,,,,,,,,,,,,,,,,,,,,,,,,,,,left,1,130,-30,100,1,671.7115783,671.7115783,671.7115783,None,None,2,0,5.7854829,,,,,,,,,,,,,,,,,,,,,,10,16,2,2024-10-31_15h37.34.255,uWM_experiment,2022.2.3,59.99325676
,,,,,,,,,,,,,,,,,,,,0,0,0,0,10,0,10,0,,,,,,,,,,,,,,,,,,,,,,,,,,,,,,,,,,,,,,,,,,,,,,,,,,,,,,,,,,,,,,,,,,,,,,0.082481857,,,,,,,,,,,,,,,,,,,,,,,,,,,,right,0,10,-30,-20,1,688.829002,688.829002,688.829002,None,None,2,0,1.1721039,,,,,,,,,,,,,,,,,,,,,,10,16,2,2024-10-31_15h37.34.255,uWM_experiment,2022.2.3,59.99325676
,,,,,,,,,,,,,,,,,,,,0,0,0,0,11,0,11,0,,,,,,,,,,,,,,,,,,,,,,,,,,,,,,,,,,,,,,,,,,,,,,,,,,,,,,,,,,,,,,,,,,,,,,0.072481857,,,,,,,,,,,,,,,,,,,,,,,,,,,,right,1,160,30,190,1,697.1460568,697.1460568,697.1460568,None,None,1,1,1.4231832,,,,,,,,,,,,,,,,,,,,,,10,16,2,2024-10-31_15h37.34.255,uWM_experiment,2022.2.3,59.99325676
,,,,,,,,,,,,,,,,,,,,0,0,0,0,12,0,12,0,,,,,,,,,,,,,,,,,,,,,,,,,,,,,,,,,,,,,,,,,,,,,,,,,,,,,,,,,,,,,,,,,,,,,,0,,,,,,,,,,,,,,,,,,,,,,,,,,,,right,1,160,30,190,0,707.5965348,707.5965348,707.5965348,None,None,1,1,0.4365658,,,,,,,,,,,,,,,,,,,,,,10,16,2,2024-10-31_15h37.34.255,uWM_experiment,2022.2.3,59.99325676
,,,,,,,,,,,,,,,,,,,,0,0,0,0,13,0,13,0,,,,,,,,,,,,,,,,,,,,,,,,,,,,,,,,,,,,,,,,,,,,,,,,,,,,,,,,,,,,,,,,,,,,,,0.082481857,,,,,,,,,,,,,,,,,,,,,,,,,,,,left,0,130,30,160,1,715.0135043,715.0135043,715.0135043,None,None,2,0,0.9957393,,,,,,,,,,,,,,,,,,,,,,10,16,2,2024-10-31_15h37.34.255,uWM_experiment,2022.2.3,59.99325676
,,,,,,,,,,,,,,,,,,,,0,0,0,0,14,0,14,0,,,,,,,,,,,,,,,,,,,,,,,,,,,,,,,,,,,,,,,,,,,,,,,,,,,,,,,,,,,,,,,,,,,,,,0.072481857,,,,,,,,,,,,,,,,,,,,,,,,,,,,right,1,10,30,40,1,725.430668,725.430668,725.430668,None,None,2,0,1.1704231,,,,,,,,,,,,,,,,,,,,,,10,16,2,2024-10-31_15h37.34.255,uWM_experiment,2022.2.3,59.99325676
,,,,,,,,,,,,,,,,,,,,0,0,0,0,15,0,15,0,,,,,,,,,,,,,,,,,,,,,,,,,,,,,,,,,,,,,,,,,,,,,,,,,,,,,,,,,,,,,,,,,,,,,,0.062481857,,,,,,,,,,,,,,,,,,,,,,,,,,,,right,1,40,30,70,1,733.2643418,733.2643418,733.2643418,None,None,1,1,0.3207678,,,,,,,,,,,,,,,,,,,,,,10,16,2,2024-10-31_15h37.34.255,uWM_experiment,2022.2.3,59.99325676
,,,,,,,,,,,,,,,,,,,,0,0,0,0,16,0,16,0,,,,,,,,,,,,,,,,,,,,,,,,,,,,,,,,,,,,,,,,,,,,,,,,,,,,,,,,,,,,,,,,,,,,,,0,,,,,,,,,,,,,,,,,,,,,,,,,,,,left,0,100,30,130,0,742.1814277,742.1814277,742.1814277,None,None,1,1,0.827829,,,,,,,,,,,,,,,,,,,,,,10,16,2,2024-10-31_15h37.34.255,uWM_experiment,2022.2.3,59.99325676
,,,,,,,,,,,,,,,,,,,,0,0,0,0,17,0,17,0,,,,,,,,,,,,,,,,,,,,,,,,,,,,,,,,,,,,,,,,,,,,,,,,,,,,,,,,,,,,,,,,,,,,,,0.072481857,,,,,,,,,,,,,,,,,,,,,,,,,,,,left,1,10,-30,-20,1,748.7983692,748.7983692,748.7983692,None,None,1,1,0.8988877,,,,,,,,,,,,,,,,,,,,,,10,16,2,2024-10-31_15h37.34.255,uWM_experiment,2022.2.3,59.99325676
,,,,,,,,,,,,,,,,,,,,0,0,0,0,18,0,18,0,,,,,,,,,,,,,,,,,,,,,,,,,,,,,,,,,,,,,,,,,,,,,,,,,,,,,,,,,,,,,,,,,,,,,,0,,,,,,,,,,,,,,,,,,,,,,,,,,,,left,1,160,-30,130,0,755.5820062,755.5820062,755.5820062,None,None,1,1,0.4432038,,,,,,,,,,,,,,,,,,,,,,10,16,2,2024-10-31_15h37.34.255,uWM_experiment,2022.2.3,59.99325676
,,,,,,,,,,,,,,,,,,,,0,0,0,0,19,0,19,0,,,,,,,,,,,,,,,,,,,,,,,,,,,,,,,,,,,,,,,,,,,,,,,,,,,,,,,,,,,,,,,,,,,,,,0,,,,,,,,,,,,,,,,,,,,,,,,,,,,left,0,130,30,160,0,762.1990048,762.1990048,762.1990048,None,None,1,1,0.4422387,,,,,,,,,,,,,,,,,,,,,,10,16,2,2024-10-31_15h37.34.255,uWM_experiment,2022.2.3,59.99325676
,,,,,,,,,,,,,,,,,,,,0,0,0,0,20,0,20,0,,,,,,,,,,,,,,,,,,,,,,,,,,,,,,,,,,,,,,,,,,,,,,,,,,,,,,,,,,,,,,,,,,,,,,0.1,,,,,,,,,,,,,,,,,,,,,,,,,,,,left,1,160,-30,130,2,774.2162097,774.2162097,774.2162097,None,None,4,0,0.8330124,,,,,,,,,,,,,,,,,,,,,,10,16,2,2024-10-31_15h37.34.255,uWM_experiment,2022.2.3,59.99325676
,,,,,,,,,,,,,,,,,,,,0,0,0,0,21,0,21,0,,,,,,,,,,,,,,,,,,,,,,,,,,,,,,,,,,,,,,,,,,,,,,,,,,,,,,,,,,,,,,,,,,,,,,0.082481857,,,,,,,,,,,,,,,,,,,,,,,,,,,,right,1,130,30,160,1,783.9999781,783.9999781,783.9999781,None,None,2,0,1.8732727,,,,,,,,,,,,,,,,,,,,,,10,16,2,2024-10-31_15h37.34.255,uWM_experiment,2022.2.3,59.99325676
,,,,,,,,,,,,,,,,,,,,0,0,0,0,22,0,22,0,,,,,,,,,,,,,,,,,,,,,,,,,,,,,,,,,,,,,,,,,,,,,,,,,,,,,,,,,,,,,,,,,,,,,,0.072481857,,,,,,,,,,,,,,,,,,,,,,,,,,,,left,0,100,30,130,1,794.0504402,794.0504402,794.0504402,None,None,1,1,0.4788251,,,,,,,,,,,,,,,,,,,,,,10,16,2,2024-10-31_15h37.34.255,uWM_experiment,2022.2.3,59.99325676
,,,,,,,,,,,,,,,,,,,,0,0,0,0,23,0,23,0,,,,,,,,,,,,,,,,,,,,,,,,,,,,,,,,,,,,,,,,,,,,,,,,,,,,,,,,,,,,,,,,,,,,,,0.1,,,,,,,,,,,,,,,,,,,,,,,,,,,,right,1,100,30,130,2,801.9341252,801.9341252,801.9341252,None,None,4,0,2.2671596,,,,,,,,,,,,,,,,,,,,,,10,16,2,2024-10-31_15h37.34.255,uWM_experiment,2022.2.3,59.99325676
,,,,,,,,,,,,,,,,,,,,0,0,0,0,,,,,0,0,0,0,,,,,,,,,,,,,,,,,,,,,,,,,,,,,,,,,,,,,,,,,,,,,,,,,,,,,,,,,,,,,,,,,,,,,,,,,,,,,,,,,,,,,,,,,,,,,,,,,,,,,,,,,,,,804.2341943,804.2341943,space,56.4951101,None,None,,,,,,,,,,,,,,,,10,16,2,2024-10-31_15h37.34.255,uWM_experiment,2022.2.3,59.99325676
,,,,,,,,,,,,,,,,,,,,0,0,0,0,,,,,1,0,1,0,,,,,,,,,,,,,,,,,,,,,,,,,,,,,,,,,,,,,,,,,,,,,,,,,,,,,,,,,,,,,,,,,,,,,,,,,,,,,,,,,,,,,,,,,,,,,,,,,,,,,,,,,,,,,,,,,,,,,,,,,,,,,,,,,10,16,2,2024-10-31_15h37.34.255,uWM_experiment,2022.2.3,59.99325676
,,,,,,,,,,,,,,,,,,,,0,0,0,0,,,,,2,0,2,0,,,,,,,,,,,,,,,,,,,,,,,,,,,,,,,,,,,,,,,,,,,,,,,,,,,,,,,,,,,,,,,,,,,,,,,,,,,,,,,,,,,,,,,,,,,,,,,,,,,,,,,,,,,,,,,,,,,,,,,,,,,,,,,,,10,16,2,2024-10-31_15h37.34.255,uWM_experiment,2022.2.3,59.99325676
,,,,,,,,,,,,,,,,,,,,1,0,1,0,0,0,0,0,,,,,,,,,,,,,,,,,,,,,,,,,,,,,,,,,,,,,,,,,,,,,,,,,,,,,,,,,,,,,,,,,,,,,,0.082481857,,,,,,,,,,,,,,,,,,,,860.7534391,861.4535046,861.7534763,862.4535009,862.7535148,863.453553,863.453553,863.7702382,right,0,40,-30,10,1,870.3038726,870.3038726,870.3038726,None,None,1,1,1.7934605,,,,,,,None,,,,,,,,,,,,,,,10,16,2,2024-10-31_15h37.34.255,uWM_experiment,2022.2.3,59.99325676
,,,,,,,,,,,,,,,,,,,,1,0,1,0,1,0,1,0,,,,,,,,,,,,,,,,,,,,,,,,,,,,,,,,,,,,,,,,,,,,,,,,,,,,,,,,,,,,,,,,,,,,,,0.092481857,,,,,,,,,,,,,,,,,,,,,,,,,,,,left,0,70,30,100,1,879.4542871,879.4542871,879.4542871,None,None,1,1,3.8910459,,,,,,,,,,,,,,,,,,,,,,10,16,2,2024-10-31_15h37.34.255,uWM_experiment,2022.2.3,59.99325676
,,,,,,,,,,,,,,,,,,,,1,0,1,0,2,0,2,0,,,,,,,,,,,,,,,,,,,,,,,,,,,,,,,,,,,,,,,,,,,,,,,,,,,,,,,,,,,,,,,,,,,,,,0.102481857,,,,,,,,,,,,,,,,,,,,,,,,,,,,left,1,70,-30,40,1,890.5214597,890.5214597,890.5214597,None,None,2,0,1.5357699,,,,,,,,,,,,,,,,,,,,,,10,16,2,2024-10-31_15h37.34.255,uWM_experiment,2022.2.3,59.99325676
,,,,,,,,,,,,,,,,,,,,1,0,1,0,3,0,3,0,,,,,,,,,,,,,,,,,,,,,,,,,,,,,,,,,,,,,,,,,,,,,,,,,,,,,,,,,,,,,,,,,,,,,,0,,,,,,,,,,,,,,,,,,,,,,,,,,,,left,1,10,-30,-20,0,898.6051396,898.6051396,898.6051396,None,None,1,1,4.1560525,,,,,,,,,,,,,,,,,,,,,,10,16,2,2024-10-31_15h37.34.255,uWM_experiment,2022.2.3,59.99325676
,,,,,,,,,,,,,,,,,,,,1,0,1,0,4,0,4,0,,,,,,,,,,,,,,,,,,,,,,,,,,,,,,,,,,,,,,,,,,,,,,,,,,,,,,,,,,,,,,,,,,,,,,0,,,,,,,,,,,,,,,,,,,,,,,,,,,,left,1,130,-30,100,0,909.3223079,909.3223079,909.3223079,None,None,1,1,3.3429062,,,,,,,,,,,,,,,,,,,,,,10,16,2,2024-10-31_15h37.34.255,uWM_experiment,2022.2.3,59.99325676
,,,,,,,,,,,,,,,,,,,,1,0,1,0,5,0,5,0,,,,,,,,,,,,,,,,,,,,,,,,,,,,,,,,,,,,,,,,,,,,,,,,,,,,,,,,,,,,,,,,,,,,,,0.092481857,,,,,,,,,,,,,,,,,,,,,,,,,,,,left,1,10,-30,-20,1,920.3894554,920.3894554,920.3894554,None,None,1,1,0.9717434,,,,,,,,,,,,,,,,,,,,,,10,16,2,2024-10-31_15h37.34.255,uWM_experiment,2022.2.3,59.99325676
,,,,,,,,,,,,,,,,,,,,1,0,1,0,6,0,6,0,,,,,,,,,,,,,,,,,,,,,,,,,,,,,,,,,,,,,,,,,,,,,,,,,,,,,,,,,,,,,,,,,,,,,,0,,,,,,,,,,,,,,,,,,,,,,,,,,,,left,0,130,30,160,0,930.1065699,930.1065699,930.1065699,None,None,1,1,0.5026476,,,,,,,,,,,,,,,,,,,,,,10,16,2,2024-10-31_15h37.34.255,uWM_experiment,2022.2.3,59.99325676
,,,,,,,,,,,,,,,,,,,,1,0,1,0,7,0,7,0,,,,,,,,,,,,,,,,,,,,,,,,,,,,,,,,,,,,,,,,,,,,,,,,,,,,,,,,,,,,,,,,,,,,,,0,,,,,,,,,,,,,,,,,,,,,,,,,,,,right,1,10,30,40,0,937.2902445,937.2902445,937.2902445,None,None,1,1,0.8950174,,,,,,,,,,,,,,,,,,,,,,10,16,2,2024-10-31_15h37.34.255,uWM_experiment,2022.2.3,59.99325676
,,,,,,,,,,,,,,,,,,,,1,0,1,0,8,0,8,0,,,,,,,,,,,,,,,,,,,,,,,,,,,,,,,,,,,,,,,,,,,,,,,,,,,,,,,,,,,,,,,,,,,,,,0.102481857,,,,,,,,,,,,,,,,,,,,,,,,,,,,left,1,160,-30,130,1,944.7405766,944.7405766,944.7405766,None,None,2,0,0.6287594,,,,,,,,,,,,,,,,,,,,,,10,16,2,2024-10-31_15h37.34.255,uWM_experiment,2022.2.3,59.99325676
,,,,,,,,,,,,,,,,,,,,1,0,1,0,9,0,9,0,,,,,,,,,,,,,,,,,,,,,,,,,,,,,,,,,,,,,,,,,,,,,,,,,,,,,,,,,,,,,,,,,,,,,,0.092481857,,,,,,,,,,,,,,,,,,,,,,,,,,,,right,1,10,30,40,1,952.390919,952.390919,952.390919,None,None,2,0,1.0983838,,,,,,,,,,,,,,,,,,,,,,10,16,2,2024-10-31_15h37.34.255,uWM_experiment,2022.2.3,59.99325676
,,,,,,,,,,,,,,,,,,,,1,0,1,0,10,0,10,0,,,,,,,,,,,,,,,,,,,,,,,,,,,,,,,,,,,,,,,,,,,,,,,,,,,,,,,,,,,,,,,,,,,,,,0.082481857,,,,,,,,,,,,,,,,,,,,,,,,,,,,left,1,70,-30,40,1,963.3414245,963.3414245,963.3414245,None,None,2,0,0.819821,,,,,,,,,,,,,,,,,,,,,,10,16,2,2024-10-31_15h37.34.255,uWM_experiment,2022.2.3,59.99325676
,,,,,,,,,,,,,,,,,,,,1,0,1,0,11,0,11,0,,,,,,,,,,,,,,,,,,,,,,,,,,,,,,,,,,,,,,,,,,,,,,,,,,,,,,,,,,,,,,,,,,,,,,0.072481857,,,,,,,,,,,,,,,,,,,,,,,,,,,,right,1,40,30,70,1,969.991726,969.991726,969.991726,None,None,1,1,0.2896538,,,,,,,,,,,,,,,,,,,,,,10,16,2,2024-10-31_15h37.34.255,uWM_experiment,2022.2.3,59.99325676
,,,,,,,,,,,,,,,,,,,,1,0,1,0,12,0,12,0,,,,,,,,,,,,,,,,,,,,,,,,,,,,,,,,,,,,,,,,,,,,,,,,,,,,,,,,,,,,,,,,,,,,,,0.082481857,,,,,,,,,,,,,,,,,,,,,,,,,,,,right,1,10,30,40,1,977.392051,977.392051,977.392051,None,None,1,1,3.1691842,,,,,,,,,,,,,,,,,,,,,,10,16,2,2024-10-31_15h37.34.255,uWM_experiment,2022.2.3,59.99325676
,,,,,,,,,,,,,,,,,,,,1,0,1,0,13,0,13,0,,,,,,,,,,,,,,,,,,,,,,,,,,,,,,,,,,,,,,,,,,,,,,,,,,,,,,,,,,,,,,,,,,,,,,0.092481857,,,,,,,,,,,,,,,,,,,,,,,,,,,,left,0,100,30,130,1,986.7591275,986.7591275,986.7591275,None,None,1,1,4.898302,,,,,,,,,,,,,,,,,,,,,,10,16,2,2024-10-31_15h37.34.255,uWM_experiment,2022.2.3,59.99325676
,,,,,,,,,,,,,,,,,,,,1,0,1,0,14,0,14,0,,,,,,,,,,,,,,,,,,,,,,,,,,,,,,,,,,,,,,,,,,,,,,,,,,,,,,,,,,,,,,,,,,,,,,0,,,,,,,,,,,,,,,,,,,,,,,,,,,,left,1,160,-30,130,0,998.3430116,998.3430116,998.3430116,None,None,1,1,1.5542796,,,,,,,,,,,,,,,,,,,,,,10,16,2,2024-10-31_15h37.34.255,uWM_experiment,2022.2.3,59.99325676
,,,,,,,,,,,,,,,,,,,,1,0,1,0,15,0,15,0,,,,,,,,,,,,,,,,,,,,,,,,,,,,,,,,,,,,,,,,,,,,,,,,,,,,,,,,,,,,,,,,,,,,,,0.102481857,,,,,,,,,,,,,,,,,,,,,,,,,,,,left,1,40,-30,10,1,1005.89334,1005.89334,1005.89334,None,None,2,0,0.6439878,,,,,,,,,,,,,,,,,,,,,,10,16,2,2024-10-31_15h37.34.255,uWM_experiment,2022.2.3,59.99325676
,,,,,,,,,,,,,,,,,,,,1,0,1,0,16,0,16,0,,,,,,,,,,,,,,,,,,,,,,,,,,,,,,,,,,,,,,,,,,,,,,,,,,,,,,,,,,,,,,,,,,,,,,0.092481857,,,,,,,,,,,,,,,,,,,,,,,,,,,,right,1,10,30,40,1,1012.860304,1012.860304,1012.860304,None,None,2,0,0.5250484,,,,,,,,,,,,,,,,,,,,,,10,16,2,2024-10-31_15h37.34.255,uWM_experiment,2022.2.3,59.99325676
,,,,,,,,,,,,,,,,,,,,1,0,1,0,17,0,17,0,,,,,,,,,,,,,,,,,,,,,,,,,,,,,,,,,,,,,,,,,,,,,,,,,,,,,,,,,,,,,,,,,,,,,,0,,,,,,,,,,,,,,,,,,,,,,,,,,,,right,0,40,-30,10,0,1019.543963,1019.543963,1019.543963,None,None,1,1,0.3133863,,,,,,,,,,,,,,,,,,,,,,10,16,2,2024-10-31_15h37.34.255,uWM_experiment,2022.2.3,59.99325676
,,,,,,,,,,,,,,,,,,,,1,0,1,0,18,0,18,0,,,,,,,,,,,,,,,,,,,,,,,,,,,,,,,,,,,,,,,,,,,,,,,,,,,,,,,,,,,,,,,,,,,,,,0.082481857,,,,,,,,,,,,,,,,,,,,,,,,,,,,right,1,70,30,100,1,1028.777689,1028.777689,1028.777689,None,None,2,0,2.1195833,,,,,,,,,,,,,,,,,,,,,,10,16,2,2024-10-31_15h37.34.255,uWM_experiment,2022.2.3,59.99325676
,,,,,,,,,,,,,,,,,,,,1,0,1,0,19,0,19,0,,,,,,,,,,,,,,,,,,,,,,,,,,,,,,,,,,,,,,,,,,,,,,,,,,,,,,,,,,,,,,,,,,,,,,0,,,,,,,,,,,,,,,,,,,,,,,,,,,,right,1,40,30,70,0,1037.744762,1037.744762,1037.744762,None,None,1,1,0.3045379,,,,,,,,,,,,,,,,,,,,,,10,16,2,2024-10-31_15h37.34.255,uWM_experiment,2022.2.3,59.99325676
,,,,,,,,,,,,,,,,,,,,1,0,1,0,20,0,20,0,,,,,,,,,,,,,,,,,,,,,,,,,,,,,,,,,,,,,,,,,,,,,,,,,,,,,,,,,,,,,,,,,,,,,,0.072481857,,,,,,,,,,,,,,,,,,,,,,,,,,,,right,1,10,30,40,1,1044.211732,1044.211732,1044.211732,None,None,2,0,2.5096493,,,,,,,,,,,,,,,,,,,,,,10,16,2,2024-10-31_15h37.34.255,uWM_experiment,2022.2.3,59.99325676
,,,,,,,,,,,,,,,,,,,,1,0,1,0,21,0,21,0,,,,,,,,,,,,,,,,,,,,,,,,,,,,,,,,,,,,,,,,,,,,,,,,,,,,,,,,,,,,,,,,,,,,,,0.062481857,,,,,,,,,,,,,,,,,,,,,,,,,,,,right,1,10,30,40,1,1052.212084,1052.212084,1052.212084,None,None,1,1,0.3652924,,,,,,,,,,,,,,,,,,,,,,10,16,2,2024-10-31_15h37.34.255,uWM_experiment,2022.2.3,59.99325676
,,,,,,,,,,,,,,,,,,,,1,0,1,0,22,0,22,0,,,,,,,,,,,,,,,,,,,,,,,,,,,,,,,,,,,,,,,,,,,,,,,,,,,,,,,,,,,,,,,,,,,,,,0.072481857,,,,,,,,,,,,,,,,,,,,,,,,,,,,left,1,100,-30,70,1,1060.9625,1060.9625,1060.9625,None,None,2,0,2.5748645,,,,,,,,,,,,,,,,,,,,,,10,16,2,2024-10-31_15h37.34.255,uWM_experiment,2022.2.3,59.99325676
,,,,,,,,,,,,,,,,,,,,1,0,1,0,23,0,23,0,,,,,,,,,,,,,,,,,,,,,,,,,,,,,,,,,,,,,,,,,,,,,,,,,,,,,,,,,,,,,,,,,,,,,,0.062481857,,,,,,,,,,,,,,,,,,,,,,,,,,,,right,0,70,-30,40,1,1069.646219,1069.646219,1069.646219,None,None,1,1,0.9072047,,,,,,,,,,,,,,,,,,,,,,10,16,2,2024-10-31_15h37.34.255,uWM_experiment,2022.2.3,59.99325676
,,,,,,,,,,,,,,,,,,,,1,0,1,0,,,,,0,0,0,0,,,,,,,,,,,,,,,,,,,,,,,,,,,,,,,,,,,,,,,,,,,,,,,,,,,,,,,,,,,,,,,,,,,,,,,,,,,,,,,,,,,,,,,,,,,,,,,,,,,,,,,,,,,,1070.579565,1070.579565,space,83.1658853,None,None,,,,,,,,,,,,,,,,10,16,2,2024-10-31_15h37.34.255,uWM_experiment,2022.2.3,59.99325676
,,,,,,,,,,,,,,,,,,,,1,0,1,0,,,,,1,0,1,0,,,,,,,,,,,,,,,,,,,,,,,,,,,,,,,,,,,,,,,,,,,,,,,,,,,,,,,,,,,,,,,,,,,,,,,,,,,,,,,,,,,,,,,,,,,,,,,,,,,,,,,,,,,,,,,,,,,,,,,,,,,,,,,,,10,16,2,2024-10-31_15h37.34.255,uWM_experiment,2022.2.3,59.99325676
,,,,,,,,,,,,,,,,,,,,1,0,1,0,,,,,2,0,2,0,,,,,,,,,,,,,,,,,,,,,,,,,,,,,,,,,,,,,,,,,,,,,,,,,,,,,,,,,,,,,,,,,,,,,,,,,,,,,,,,,,,,,,,,,,,,,,,,,,,,,,,,,,,,,,,,,,,,,,,,,,,,,,,,,10,16,2,2024-10-31_15h37.34.255,uWM_experiment,2022.2.3,59.99325676
,,,,,,,,,,,,,,,,,,,,2,0,2,0,0,0,0,0,,,,,,,,,,,,,,,,,,,,,,,,,,,,,,,,,,,,,,,,,,,,,,,,,,,,,,,,,,,,,,,,,,,,,,0.072481857,,,,,,,,,,,,,,,,,,,,1153.766665,1154.46672,1154.766713,1155.466732,1155.76676,1156.466791,1156.466791,1156.78348,left,1,160,-30,130,1,1163.233766,1163.233766,1163.233766,None,None,1,1,0.6317176,,,,,,,None,,,,,,,,,,,,,,,10,16,2,2024-10-31_15h37.34.255,uWM_experiment,2022.2.3,59.99325676
,,,,,,,,,,,,,,,,,,,,2,0,2,0,1,0,1,0,,,,,,,,,,,,,,,,,,,,,,,,,,,,,,,,,,,,,,,,,,,,,,,,,,,,,,,,,,,,,,,,,,,,,,0.1,,,,,,,,,,,,,,,,,,,,,,,,,,,,left,1,70,-30,40,2,1172.70087,1172.70087,1172.70087,None,None,4,0,1.0126029,,,,,,,,,,,,,,,,,,,,,,10,16,2,2024-10-31_15h37.34.255,uWM_experiment,2022.2.3,59.99325676
,,,,,,,,,,,,,,,,,,,,2,0,2,0,2,0,2,0,,,,,,,,,,,,,,,,,,,,,,,,,,,,,,,,,,,,,,,,,,,,,,,,,,,,,,,,,,,,,,,,,,,,,,0.082481857,,,,,,,,,,,,,,,,,,,,,,,,,,,,left,0,70,30,100,1,1181.45125,1181.45125,1181.45125,None,None,1,1,0.7503647,,,,,,,,,,,,,,,,,,,,,,10,16,2,2024-10-31_15h37.34.255,uWM_experiment,2022.2.3,59.99325676
,,,,,,,,,,,,,,,,,,,,2,0,2,0,3,0,3,0,,,,,,,,,,,,,,,,,,,,,,,,,,,,,,,,,,,,,,,,,,,,,,,,,,,,,,,,,,,,,,,,,,,,,,0.092481857,,,,,,,,,,,,,,,,,,,,,,,,,,,,left,1,160,-30,130,1,1188.184913,1188.184913,1188.184913,None,None,2,0,1.4485317,,,,,,,,,,,,,,,,,,,,,,10,16,2,2024-10-31_15h37.34.255,uWM_experiment,2022.2.3,59.99325676
,,,,,,,,,,,,,,,,,,,,2,0,2,0,4,0,4,0,,,,,,,,,,,,,,,,,,,,,,,,,,,,,,,,,,,,,,,,,,,,,,,,,,,,,,,,,,,,,,,,,,,,,,0.082481857,,,,,,,,,,,,,,,,,,,,,,,,,,,,right,1,40,30,70,1,1196.601949,1196.601949,1196.601949,None,None,2,0,4.5194027,,,,,,,,,,,,,,,,,,,,,,10,16,2,2024-10-31_15h37.34.255,uWM_experiment,2022.2.3,59.99325676
,,,,,,,,,,,,,,,,,,,,2,0,2,0,5,0,5,0,,,,,,,,,,,,,,,,,,,,,,,,,,,,,,,,,,,,,,,,,,,,,,,,,,,,,,,,,,,,,,,,,,,,,,0,,,,,,,,,,,,,,,,,,,,,,,,,,,,right,1,40,30,70,0,1208.452474,1208.452474,1208.452474,None,None,1,1,1.3410227,,,,,,,,,,,,,,,,,,,,,,10,16,2,2024-10-31_15h37.34.255,uWM_experiment,2022.2.3,59.99325676
,,,,,,,,,,,,,,,,,,,,2,0,2,0,6,0,6,0,,,,,,,,,,,,,,,,,,,,,,,,,,,,,,,,,,,,,,,,,,,,,,,,,,,,,,,,,,,,,,,,,,,,,,0.072481857,,,,,,,,,,,,,,,,,,,,,,,,,,,,left,0,100,30,130,1,1216.36952,1216.36952,1216.36952,None,None,1,1,1.5359016,,,,,,,,,,,,,,,,,,,,,,10,16,2,2024-10-31_15h37.34.255,uWM_experiment,2022.2.3,59.99325676
,,,,,,,,,,,,,,,,,,,,2,0,2,0,7,0,7,0,,,,,,,,,,,,,,,,,,,,,,,,,,,,,,,,,,,,,,,,,,,,,,,,,,,,,,,,,,,,,,,,,,,,,,0.1,,,,,,,,,,,,,,,,,,,,,,,,,,,,right,1,40,30,70,2,1225.653282,1225.653282,1225.653282,None,None,3,0,7.1562144,,,,,,,,,,,,,,,,,,,,,,10,16,2,2024-10-31_15h37.34.255,uWM_experiment,2022.2.3,59.99325676
,,,,,,,,,,,,,,,,,,,,2,0,2,0,8,0,8,0,,,,,,,,,,,,,,,,,,,,,,,,,,,,,,,,,,,,,,,,,,,,,,,,,,,,,,,,,,,,,,,,,,,,,,0.082481857,,,,,,,,,,,,,,,,,,,,,,,,,,,,left,1,160,-30,130,1,1240.103928,1240.103928,1240.103928,None,None,1,1,0.4096184,,,,,,,,,,,,,,,,,,,,,,10,16,2,2024-10-31_15h37.34.255,uWM_experiment,2022.2.3,59.99325676
,,,,,,,,,,,,,,,,,,,,2,0,2,0,9,0,9,0,,,,,,,,,,,,,,,,,,,,,,,,,,,,,,,,,,,,,,,,,,,,,,,,,,,,,,,,,,,,,,,,,,,,,,0.092481857,,,,,,,,,,,,,,,,,,,,,,,,,,,,right,1,130,30,160,1,1246.987551,1246.987551,1246.987551,None,None,3,0,6.9178196,,,,,,,,,,,,,,,,,,,,,,10,16,2,2024-10-31_15h37.34.255,uWM_experiment,2022.2.3,59.99325676
,,,,,,,,,,,,,,,,,,,,2,0,2,0,10,0,10,0,,,,,,,,,,,,,,,,,,,,,,,,,,,,,,,,,,,,,,,,,,,,,,,,,,,,,,,,,,,,,,,,,,,,,,0.082481857,,,,,,,,,,,,,,,,,,,,,,,,,,,,right,1,40,30,70,1,1259.788214,1259.788214,1259.788214,None,None,1,1,0.3652791,,,,,,,,,,,,,,,,,,,,,,10,16,2,2024-10-31_15h37.34.255,uWM_experiment,2022.2.3,59.99325676
,,,,,,,,,,,,,,,,,,,,2,0,2,0,11,0,11,0,,,,,,,,,,,,,,,,,,,,,,,,,,,,,,,,,,,,,,,,,,,,,,,,,,,,,,,,,,,,,,,,,,,,,,0,,,,,,,,,,,,,,,,,,,,,,,,,,,,right,0,70,-30,40,0,1266.138408,1266.138408,1266.138408,None,None,1,1,2.559147,,,,,,,,,,,,,,,,,,,,,,10,16,2,2024-10-31_15h37.34.255,uWM_experiment,2022.2.3,59.99325676
,,,,,,,,,,,,,,,,,,,,2,0,2,0,12,0,12,0,,,,,,,,,,,,,,,,,,,,,,,,,,,,,,,,,,,,,,,,,,,,,,,,,,,,,,,,,,,,,,,,,,,,,,0.092481857,,,,,,,,,,,,,,,,,,,,,,,,,,,,right,0,70,-30,40,1,1274.638807,1274.638807,1274.638807,None,None,1,1,0.6907366,,,,,,,,,,,,,,,,,,,,,,10,16,2,2024-10-31_15h37.34.255,uWM_experiment,2022.2.3,59.99325676
,,,,,,,,,,,,,,,,,,,,2,0,2,0,13,0,13,0,,,,,,,,,,,,,,,,,,,,,,,,,,,,,,,,,,,,,,,,,,,,,,,,,,,,,,,,,,,,,,,,,,,,,,0.102481857,,,,,,,,,,,,,,,,,,,,,,,,,,,,right,0,100,-30,70,1,1281.089119,1281.089119,1281.089119,None,None,2,0,6.544395,,,,,,,,,,,,,,,,,,,,,,10,16,2,2024-10-31_15h37.34.255,uWM_experiment,2022.2.3,59.99325676
,,,,,,,,,,,,,,,,,,,,2,0,2,0,14,0,14,0,,,,,,,,,,,,,,,,,,,,,,,,,,,,,,,,,,,,,,,,,,,,,,,,,,,,,,,,,,,,,,,,,,,,,,0.092481857,,,,,,,,,,,,,,,,,,,,,,,,,,,,right,1,10,30,40,1,1293.98968,1293.98968,1293.98968,None,None,1,1,4.363745,,,,,,,,,,,,,,,,,,,,,,10,16,2,2024-10-31_15h37.34.255,uWM_experiment,2022.2.3,59.99325676
,,,,,,,,,,,,,,,,,,,,2,0,2,0,15,0,15,0,,,,,,,,,,,,,,,,,,,,,,,,,,,,,,,,,,,,,,,,,,,,,,,,,,,,,,,,,,,,,,,,,,,,,,0,,,,,,,,,,,,,,,,,,,,,,,,,,,,left,1,10,-30,-20,0,1303.94013,1303.94013,1303.94013,None,None,1,1,0.5332873,,,,,,,,,,,,,,,,,,,,,,10,16,2,2024-10-31_15h37.34.255,uWM_experiment,2022.2.3,59.99325676
,,,,,,,,,,,,,,,,,,,,2,0,2,0,16,0,16,0,,,,,,,,,,,,,,,,,,,,,,,,,,,,,,,,,,,,,,,,,,,,,,,,,,,,,,,,,,,,,,,,,,,,,,0.102481857,,,,,,,,,,,,,,,,,,,,,,,,,,,,left,0,130,30,160,1,1311.040463,1311.040463,1311.040463,None,None,1,1,2.9369946,,,,,,,,,,,,,,,,,,,,,,10,16,2,2024-10-31_15h37.34.255,uWM_experiment,2022.2.3,59.99325676
,,,,,,,,,,,,,,,,,,,,2,0,2,0,17,0,17,0,,,,,,,,,,,,,,,,,,,,,,,,,,,,,,,,,,,,,,,,,,,,,,,,,,,,,,,,,,,,,,,,,,,,,,0.112481857,,,,,,,,,,,,,,,,,,,,,,,,,,,,right,1,40,30,70,1,1320.124215,1320.124215,1320.124215,None,None,2,0,0.5012273,,,,,,,,,,,,,,,,,,,,,,10,16,2,2024-10-31_15h37.34.255,uWM_experiment,2022.2.3,59.99325676
,,,,,,,,,,,,,,,,,,,,2,0,2,0,18,0,18,0,,,,,,,,,,,,,,,,,,,,,,,,,,,,,,,,,,,,,,,,,,,,,,,,,,,,,,,,,,,,,,,,,,,,,,0.102481857,,,,,,,,,,,,,,,,,,,,,,,,,,,,left,0,130,30,160,1,1326.907845,1326.907845,1326.907845,None,None,2,0,1.4136595,,,,,,,,,,,,,,,,,,,,,,10,16,2,2024-10-31_15h37.34.255,uWM_experiment,2022.2.3,59.99325676
,,,,,,,,,,,,,,,,,,,,2,0,2,0,19,0,19,0,,,,,,,,,,,,,,,,,,,,,,,,,,,,,,,,,,,,,,,,,,,,,,,,,,,,,,,,,,,,,,,,,,,,,,0,,,,,,,,,,,,,,,,,,,,,,,,,,,,left,0,130,30,160,0,1335.608249,1335.608249,1335.608249,None,None,1,1,0.4412572,,,,,,,,,,,,,,,,,,,,,,10,16,2,2024-10-31_15h37.34.255,uWM_experiment,2022.2.3,59.99325676
,,,,,,,,,,,,,,,,,,,,2,0,2,0,20,0,20,0,,,,,,,,,,,,,,,,,,,,,,,,,,,,,,,,,,,,,,,,,,,,,,,,,,,,,,,,,,,,,,,,,,,,,,0,,,,,,,,,,,,,,,,,,,,,,,,,,,,right,0,100,-30,70,0,1342.008538,1342.008538,1342.008538,None,None,1,1,1.6810483,,,,,,,,,,,,,,,,,,,,,,10,16,2,2024-10-31_15h37.34.255,uWM_experiment,2022.2.3,59.99325676
,,,,,,,,,,,,,,,,,,,,2,0,2,0,21,0,21,0,,,,,,,,,,,,,,,,,,,,,,,,,,,,,,,,,,,,,,,,,,,,,,,,,,,,,,,,,,,,,,,,,,,,,,0.092481857,,,,,,,,,,,,,,,,,,,,,,,,,,,,left,1,130,-30,100,1,1349.508875,1349.508875,1349.508875,None,None,1,1,4.4927238,,,,,,,,,,,,,,,,,,,,,,10,16,2,2024-10-31_15h37.34.255,uWM_experiment,2022.2.3,59.99325676
,,,,,,,,,,,,,,,,,,,,2,0,2,0,22,0,22,0,,,,,,,,,,,,,,,,,,,,,,,,,,,,,,,,,,,,,,,,,,,,,,,,,,,,,,,,,,,,,,,,,,,,,,0.102481857,,,,,,,,,,,,,,,,,,,,,,,,,,,,left,1,10,-30,-20,1,1360.142681,1360.142681,1360.142681,None,None,2,0,10.5867983,,,,,,,,,,,,,,,,,,,,,,10,16,2,2024-10-31_15h37.34.255,uWM_experiment,2022.2.3,59.99325676
,,,,,,,,,,,,,,,,,,,,2,0,2,0,23,0,23,0,,,,,,,,,,,,,,,,,,,,,,,,,,,,,,,,,,,,,,,,,,,,,,,,,,,,,,,,,,,,,,,,,,,,,,0.092481857,,,,,,,,,,,,,,,,,,,,,,,,,,,,left,1,40,-30,10,1,1377.17677,1377.17677,1377.17677,None,None,2,0,1.0407701,,,,,,,,,,,,,,,,,,,,,,10,16,2,2024-10-31_15h37.34.255,uWM_experiment,2022.2.3,59.99325676
,,,,,,,,,,,,,,,,,,,,2,0,2,0,,,,,0,0,0,0,,,,,,,,,,,,,,,,,,,,,,,,,,,,,,,,,,,,,,,,,,,,,,,,,,,,,,,,,,,,,,,,,,,,,,,,,,,,,,,,,,,,,,,,,,,,,,,,,,,,,,,,,,,,1378.243486,1378.243486,space,29.3341445,space,None,,1407.594808,1407.594808,1.6708325,,,,,,,,,,,,10,16,2,2024-10-31_15h37.34.255,uWM_experiment,2022.2.3,59.99325676
,,,,,,,,,,,,,,,,,,,,2,0,2,0,,,,,1,0,1,0,,,,,,,,,,,,,,,,,,,,,,,,,,,,,,,,,,,,,,,,,,,,,,,,,,,,,,,,,,,,,,,,,,,,,,,,,,,,,,,,,,,,,,,,,,,,,,,,,,,,,,,,,,,,,,,,,,,,,,,,,,,,,,,,,10,16,2,2024-10-31_15h37.34.255,uWM_experiment,2022.2.3,59.99325676
,,,,,,,,,,,,,,,,,,,,2,0,2,0,,,,,2,0,2,0,,,,,,,,,,,,,,,,,,,,,,,,,,,,,,,,,,,,,,,,,,,,,,,,,,,,,,,,,,,,,,,,,,,,,,,,,,,,,,,,,,,,,,,,,,,,,,,,,,,,,,,,,,,,,,,,,,,,,,,,,,,,,,,,,10,16,2,2024-10-31_15h37.34.255,uWM_experiment,2022.2.3,59.99325676
,,,,,,,,,,,,,,,,,,,,3,0,3,0,0,0,0,0,,,,,,,,,,,,,,,,,,,,,,,,,,,,,,,,,,,,,,,,,,,,,,,,,,,,,,,,,,,,,,,,,,,,,,0.082481857,,,,,,,,,,,,,,,,,,,,1409.294877,1409.994905,1410.294935,1410.994964,1411.295017,1411.995005,1411.995005,1412.311688,right,1,70,30,100,1,1419.24533,1419.24533,1419.24533,None,None,1,1,1.468262,,,,,,,None,,,,,,,,,,,,,,,10,16,2,2024-10-31_15h37.34.255,uWM_experiment,2022.2.3,59.99325676
,,,,,,,,,,,,,,,,,,,,3,0,3,0,1,0,1,0,,,,,,,,,,,,,,,,,,,,,,,,,,,,,,,,,,,,,,,,,,,,,,,,,,,,,,,,,,,,,,,,,,,,,,0.092481857,,,,,,,,,,,,,,,,,,,,,,,,,,,,right,1,40,30,70,1,1426.662354,1426.662354,1426.662354,None,None,2,0,0.9551518,,,,,,,,,,,,,,,,,,,,,,10,16,2,2024-10-31_15h37.34.255,uWM_experiment,2022.2.3,59.99325676
,,,,,,,,,,,,,,,,,,,,3,0,3,0,2,0,2,0,,,,,,,,,,,,,,,,,,,,,,,,,,,,,,,,,,,,,,,,,,,,,,,,,,,,,,,,,,,,,,,,,,,,,,0,,,,,,,,,,,,,,,,,,,,,,,,,,,,right,1,10,30,40,0,1434.646047,1434.646047,1434.646047,None,None,1,1,0.7315406,,,,,,,,,,,,,,,,,,,,,,10,16,2,2024-10-31_15h37.34.255,uWM_experiment,2022.2.3,59.99325676
,,,,,,,,,,,,,,,,,,,,3,0,3,0,3,0,3,0,,,,,,,,,,,,,,,,,,,,,,,,,,,,,,,,,,,,,,,,,,,,,,,,,,,,,,,,,,,,,,,,,,,,,,0.082481857,,,,,,,,,,,,,,,,,,,,,,,,,,,,left,1,160,-30,130,1,1442.363048,1442.363048,1442.363048,None,None,1,1,0.6785934,,,,,,,,,,,,,,,,,,,,,,10,16,2,2024-10-31_15h37.34.255,uWM_experiment,2022.2.3,59.99325676
,,,,,,,,,,,,,,,,,,,,3,0,3,0,4,0,4,0,,,,,,,,,,,,,,,,,,,,,,,,,,,,,,,,,,,,,,,,,,,,,,,,,,,,,,,,,,,,,,,,,,,,,,0.092481857,,,,,,,,,,,,,,,,,,,,,,,,,,,,left,0,130,30,160,1,1449.180037,1449.180037,1449.180037,None,None,2,0,3.3014986,,,,,,,,,,,,,,,,,,,,,,10,16,2,2024-10-31_15h37.34.255,uWM_experiment,2022.2.3,59.99325676
,,,,,,,,,,,,,,,,,,,,3,0,3,0,5,0,5,0,,,,,,,,,,,,,,,,,,,,,,,,,,,,,,,,,,,,,,,,,,,,,,,,,,,,,,,,,,,,,,,,,,,,,,0.082481857,,,,,,,,,,,,,,,,,,,,,,,,,,,,left,0,130,30,160,1,1459.063779,1459.063779,1459.063779,None,None,2,0,3.6498249,,,,,,,,,,,,,,,,,,,,,,10,16,2,2024-10-31_15h37.34.255,uWM_experiment,2022.2.3,59.99325676
,,,,,,,,,,,,,,,,,,,,3,0,3,0,6,0,6,0,,,,,,,,,,,,,,,,,,,,,,,,,,,,,,,,,,,,,,,,,,,,,,,,,,,,,,,,,,,,,,,,,,,,,,0.072481857,,,,,,,,,,,,,,,,,,,,,,,,,,,,left,1,10,-30,-20,1,1469.79764,1469.79764,1469.79764,None,None,1,1,4.8679047,,,,,,,,,,,,,,,,,,,,,,10,16,2,2024-10-31_15h37.34.255,uWM_experiment,2022.2.3,59.99325676
,,,,,,,,,,,,,,,,,,,,3,0,3,0,7,0,7,0,,,,,,,,,,,,,,,,,,,,,,,,,,,,,,,,,,,,,,,,,,,,,,,,,,,,,,,,,,,,,,,,,,,,,,0.1,,,,,,,,,,,,,,,,,,,,,,,,,,,,right,1,160,30,190,2,1491.23195,1491.23195,1491.23195,None,None,4,0,1.3457177,,,,,,,,,,,,,,,,,,,,,,10,16,2,2024-10-31_15h37.34.255,uWM_experiment,2022.2.3,59.99325676
,,,,,,,,,,,,,,,,,,,,3,0,3,0,8,0,8,0,,,,,,,,,,,,,,,,,,,,,,,,,,,,,,,,,,,,,,,,,,,,,,,,,,,,,,,,,,,,,,,,,,,,,,0.082481857,,,,,,,,,,,,,,,,,,,,,,,,,,,,left,0,100,30,130,1,1498.232279,1498.232279,1498.232279,None,None,1,1,0.5852605,,,,,,,,,,,,,,,,,,,,,,10,16,2,2024-10-31_15h37.34.255,uWM_experiment,2022.2.3,59.99325676
,,,,,,,,,,,,,,,,,,,,3,0,3,0,9,0,9,0,,,,,,,,,,,,,,,,,,,,,,,,,,,,,,,,,,,,,,,,,,,,,,,,,,,,,,,,,,,,,,,,,,,,,,0,,,,,,,,,,,,,,,,,,,,,,,,,,,,right,1,40,30,70,0,1504.532509,1504.532509,1504.532509,None,None,1,1,1.3571292,,,,,,,,,,,,,,,,,,,,,,10,16,2,2024-10-31_15h37.34.255,uWM_experiment,2022.2.3,59.99325676
,,,,,,,,,,,,,,,,,,,,3,0,3,0,10,0,10,0,,,,,,,,,,,,,,,,,,,,,,,,,,,,,,,,,,,,,,,,,,,,,,,,,,,,,,,,,,,,,,,,,,,,,,0.092481857,,,,,,,,,,,,,,,,,,,,,,,,,,,,left,1,130,-30,100,1,1512.332883,1512.332883,1512.332883,None,None,2,0,0.6927501,,,,,,,,,,,,,,,,,,,,,,10,16,2,2024-10-31_15h37.34.255,uWM_experiment,2022.2.3,59.99325676
,,,,,,,,,,,,,,,,,,,,3,0,3,0,11,0,11,0,,,,,,,,,,,,,,,,,,,,,,,,,,,,,,,,,,,,,,,,,,,,,,,,,,,,,,,,,,,,,,,,,,,,,,0.082481857,,,,,,,,,,,,,,,,,,,,,,,,,,,,left,1,160,-30,130,1,1518.816509,1518.816509,1518.816509,None,None,1,1,0.2411116,,,,,,,,,,,,,,,,,,,,,,10,16,2,2024-10-31_15h37.34.255,uWM_experiment,2022.2.3,59.99325676
,,,,,,,,,,,,,,,,,,,,3,0,3,0,12,0,12,0,,,,,,,,,,,,,,,,,,,,,,,,,,,,,,,,,,,,,,,,,,,,,,,,,,,,,,,,,,,,,,,,,,,,,,0.092481857,,,,,,,,,,,,,,,,,,,,,,,,,,,,right,1,160,30,190,1,1525.350134,1525.350134,1525.350134,None,None,1,1,2.1956192,,,,,,,,,,,,,,,,,,,,,,10,16,2,2024-10-31_15h37.34.255,uWM_experiment,2022.2.3,59.99325676
,,,,,,,,,,,,,,,,,,,,3,0,3,0,13,0,13,0,,,,,,,,,,,,,,,,,,,,,,,,,,,,,,,,,,,,,,,,,,,,,,,,,,,,,,,,,,,,,,,,,,,,,,0.102481857,,,,,,,,,,,,,,,,,,,,,,,,,,,,left,1,10,-30,-20,1,1533.567171,1533.567171,1533.567171,None,None,1,1,3.8585286,,,,,,,,,,,,,,,,,,,,,,10,16,2,2024-10-31_15h37.34.255,uWM_experiment,2022.2.3,59.99325676
,,,,,,,,,,,,,,,,,,,,3,0,3,0,14,0,14,0,,,,,,,,,,,,,,,,,,,,,,,,,,,,,,,,,,,,,,,,,,,,,,,,,,,,,,,,,,,,,,,,,,,,,,0,,,,,,,,,,,,,,,,,,,,,,,,,,,,left,1,160,-30,130,0,1543.03429,1543.03429,1543.03429,None,None,1,1,0.6473825,,,,,,,,,,,,,,,,,,,,,,10,16,2,2024-10-31_15h37.34.255,uWM_experiment,2022.2.3,59.99325676
,,,,,,,,,,,,,,,,,,,,3,0,3,0,15,0,15,0,,,,,,,,,,,,,,,,,,,,,,,,,,,,,,,,,,,,,,,,,,,,,,,,,,,,,,,,,,,,,,,,,,,,,,0,,,,,,,,,,,,,,,,,,,,,,,,,,,,right,0,100,-30,70,0,1549.484571,1549.484571,1549.484571,None,None,1,1,6.5889923,,,,,,,,,,,,,,,,,,,,,,10,16,2,2024-10-31_15h37.34.255,uWM_experiment,2022.2.3,59.99325676
,,,,,,,,,,,,,,,,,,,,3,0,3,0,16,0,16,0,,,,,,,,,,,,,,,,,,,,,,,,,,,,,,,,,,,,,,,,,,,,,,,,,,,,,,,,,,,,,,,,,,,,,,0.112481857,,,,,,,,,,,,,,,,,,,,,,,,,,,,right,1,10,30,40,1,1561.901804,1561.901804,1561.901804,None,None,1,1,0.4118381,,,,,,,,,,,,,,,,,,,,,,10,16,2,2024-10-31_15h37.34.255,uWM_experiment,2022.2.3,59.99325676
,,,,,,,,,,,,,,,,,,,,3,0,3,0,17,0,17,0,,,,,,,,,,,,,,,,,,,,,,,,,,,,,,,,,,,,,,,,,,,,,,,,,,,,,,,,,,,,,,,,,,,,,,0.122481857,,,,,,,,,,,,,,,,,,,,,,,,,,,,right,0,100,-30,70,1,1567.768738,1567.768738,1567.768738,None,None,1,1,0.4169326,,,,,,,,,,,,,,,,,,,,,,10,16,2,2024-10-31_15h37.34.255,uWM_experiment,2022.2.3,59.99325676
,,,,,,,,,,,,,,,,,,,,3,0,3,0,18,0,18,0,,,,,,,,,,,,,,,,,,,,,,,,,,,,,,,,,,,,,,,,,,,,,,,,,,,,,,,,,,,,,,,,,,,,,,0.132481857,,,,,,,,,,,,,,,,,,,,,,,,,,,,left,1,70,-30,40,1,1574.118988,1574.118988,1574.118988,None,None,2,0,0.5705874,,,,,,,,,,,,,,,,,,,,,,10,16,2,2024-10-31_15h37.34.255,uWM_experiment,2022.2.3,59.99325676
,,,,,,,,,,,,,,,,,,,,3,0,3,0,19,0,19,0,,,,,,,,,,,,,,,,,,,,,,,,,,,,,,,,,,,,,,,,,,,,,,,,,,,,,,,,,,,,,,,,,,,,,,0,,,,,,,,,,,,,,,,,,,,,,,,,,,,left,1,10,-30,-20,0,1581.035994,1581.035994,1581.035994,None,None,1,1,0.4456601,,,,,,,,,,,,,,,,,,,,,,10,16,2,2024-10-31_15h37.34.255,uWM_experiment,2022.2.3,59.99325676
,,,,,,,,,,,,,,,,,,,,3,0,3,0,20,0,20,0,,,,,,,,,,,,,,,,,,,,,,,,,,,,,,,,,,,,,,,,,,,,,,,,,,,,,,,,,,,,,,,,,,,,,,0.122481857,,,,,,,,,,,,,,,,,,,,,,,,,,,,right,0,10,-30,-20,1,1596.886731,1596.886731,1596.886731,None,None,4,0,1.4028976,,,,,,,,,,,,,,,,,,,,,,10,16,2,2024-10-31_15h37.34.255,uWM_experiment,2022.2.3,59.99325676
,,,,,,,,,,,,,,,,,,,,3,0,3,0,21,0,21,0,,,,,,,,,,,,,,,,,,,,,,,,,,,,,,,,,,,,,,,,,,,,,,,,,,,,,,,,,,,,,,,,,,,,,,0,,,,,,,,,,,,,,,,,,,,,,,,,,,,right,0,40,-30,10,0,1605.937108,1605.937108,1605.937108,None,None,1,1,2.2565966,,,,,,,,,,,,,,,,,,,,,,10,16,2,2024-10-31_15h37.34.255,uWM_experiment,2022.2.3,59.99325676
,,,,,,,,,,,,,,,,,,,,3,0,3,0,22,0,22,0,,,,,,,,,,,,,,,,,,,,,,,,,,,,,,,,,,,,,,,,,,,,,,,,,,,,,,,,,,,,,,,,,,,,,,0,,,,,,,,,,,,,,,,,,,,,,,,,,,,left,1,130,-30,100,0,1614.154167,1614.154167,1614.154167,None,None,1,1,1.0955167,,,,,,,,,,,,,,,,,,,,,,10,16,2,2024-10-31_15h37.34.255,uWM_experiment,2022.2.3,59.99325676
,,,,,,,,,,,,,,,,,,,,3,0,3,0,23,0,23,0,,,,,,,,,,,,,,,,,,,,,,,,,,,,,,,,,,,,,,,,,,,,,,,,,,,,,,,,,,,,,,,,,,,,,,0.112481857,,,,,,,,,,,,,,,,,,,,,,,,,,,,left,0,70,30,100,1,1624.871301,1624.871301,1624.871301,None,None,2,0,4.4744419,,,,,,,,,,,,,,,,,,,,,,10,16,2,2024-10-31_15h37.34.255,uWM_experiment,2022.2.3,59.99325676
,,,,,,,,,,,,,,,,,,,,3,0,3,0,,,,,0,0,0,0,,,,,,,,,,,,,,,,,,,,,,,,,,,,,,,,,,,,,,,,,,,,,,,,,,,,,,,,,,,,,,,,,,,,,,,,,,,,,,,,,,,,,,,,,,,,,,,,,,,,,,,,,,,,1629.371499,1629.371499,space,67.6543427,None,None,,,,,,,,,,,,,,,,10,16,2,2024-10-31_15h37.34.255,uWM_experiment,2022.2.3,59.99325676
,,,,,,,,,,,,,,,,,,,,3,0,3,0,,,,,1,0,1,0,,,,,,,,,,,,,,,,,,,,,,,,,,,,,,,,,,,,,,,,,,,,,,,,,,,,,,,,,,,,,,,,,,,,,,,,,,,,,,,,,,,,,,,,,,,,,,,,,,,,,,,,,,,,,,,,,,,,,,,,,,,,,,,,,10,16,2,2024-10-31_15h37.34.255,uWM_experiment,2022.2.3,59.99325676
,,,,,,,,,,,,,,,,,,,,3,0,3,0,,,,,2,0,2,0,,,,,,,,,,,,,,,,,,,,,,,,,,,,,,,,,,,,,,,,,,,,,,,,,,,,,,,,,,,,,,,,,,,,,,,,,,,,,,,,,,,,,,,,,,,,,,,,,,,,,,,,,,,,,,,,,,,,,,,,,,,,,,,,,10,16,2,2024-10-31_15h37.34.255,uWM_experiment,2022.2.3,59.99325676
,,,,,,,,,,,,,,,,,,,,4,0,4,0,0,0,0,0,,,,,,,,,,,,,,,,,,,,,,,,,,,,,,,,,,,,,,,,,,,,,,,,,,,,,,,,,,,,,,,,,,,,,,0.102481857,,,,,,,,,,,,,,,,,,,,1697.057886,1697.757933,1698.057931,1698.757937,1699.057978,1699.758008,1699.758008,1700.074736,right,1,40,30,70,1,1705.324941,1705.324941,1705.324941,None,None,1,1,0.3647806,,,,,,,None,,,,,,,,,,,,,,,10,16,2,2024-10-31_15h37.34.255,uWM_experiment,2022.2.3,59.99325676
,,,,,,,,,,,,,,,,,,,,4,0,4,0,1,0,1,0,,,,,,,,,,,,,,,,,,,,,,,,,,,,,,,,,,,,,,,,,,,,,,,,,,,,,,,,,,,,,,,,,,,,,,0.112481857,,,,,,,,,,,,,,,,,,,,,,,,,,,,right,1,130,30,160,1,1711.9919,1711.9919,1711.9919,None,None,2,0,5.4739165,,,,,,,,,,,,,,,,,,,,,,10,16,2,2024-10-31_15h37.34.255,uWM_experiment,2022.2.3,59.99325676
,,,,,,,,,,,,,,,,,,,,4,0,4,0,2,0,2,0,,,,,,,,,,,,,,,,,,,,,,,,,,,,,,,,,,,,,,,,,,,,,,,,,,,,,,,,,,,,,,,,,,,,,,0,,,,,,,,,,,,,,,,,,,,,,,,,,,,left,0,70,30,100,0,1723.059066,1723.059066,1723.059066,None,None,1,1,0.2946011,,,,,,,,,,,,,,,,,,,,,,10,16,2,2024-10-31_15h37.34.255,uWM_experiment,2022.2.3,59.99325676
,,,,,,,,,,,,,,,,,,,,4,0,4,0,3,0,3,0,,,,,,,,,,,,,,,,,,,,,,,,,,,,,,,,,,,,,,,,,,,,,,,,,,,,,,,,,,,,,,,,,,,,,,0,,,,,,,,,,,,,,,,,,,,,,,,,,,,left,0,70,30,100,0,1728.925999,1728.925999,1728.925999,None,None,1,1,0.243725,,,,,,,,,,,,,,,,,,,,,,10,16,2,2024-10-31_15h37.34.255,uWM_experiment,2022.2.3,59.99325676
,,,,,,,,,,,,,,,,,,,,4,0,4,0,4,0,4,0,,,,,,,,,,,,,,,,,,,,,,,,,,,,,,,,,,,,,,,,,,,,,,,,,,,,,,,,,,,,,,,,,,,,,,0.102481857,,,,,,,,,,,,,,,,,,,,,,,,,,,,right,1,10,30,40,1,1735.609652,1735.609652,1735.609652,None,None,1,1,0.9521317,,,,,,,,,,,,,,,,,,,,,,10,16,2,2024-10-31_15h37.34.255,uWM_experiment,2022.2.3,59.99325676
,,,,,,,,,,,,,,,,,,,,4,0,4,0,5,0,5,0,,,,,,,,,,,,,,,,,,,,,,,,,,,,,,,,,,,,,,,,,,,,,,,,,,,,,,,,,,,,,,,,,,,,,,0.112481857,,,,,,,,,,,,,,,,,,,,,,,,,,,,left,1,130,-30,100,1,1742.743304,1742.743304,1742.743304,None,None,2,0,2.7304535,,,,,,,,,,,,,,,,,,,,,,10,16,2,2024-10-31_15h37.34.255,uWM_experiment,2022.2.3,59.99325676
,,,,,,,,,,,,,,,,,,,,4,0,4,0,6,0,6,0,,,,,,,,,,,,,,,,,,,,,,,,,,,,,,,,,,,,,,,,,,,,,,,,,,,,,,,,,,,,,,,,,,,,,,0,,,,,,,,,,,,,,,,,,,,,,,,,,,,right,1,40,30,70,0,1751.093652,1751.093652,1751.093652,None,None,1,1,0.2760512,,,,,,,,,,,,,,,,,,,,,,10,16,2,2024-10-31_15h37.34.255,uWM_experiment,2022.2.3,59.99325676
,,,,,,,,,,,,,,,,,,,,4,0,4,0,7,0,7,0,,,,,,,,,,,,,,,,,,,,,,,,,,,,,,,,,,,,,,,,,,,,,,,,,,,,,,,,,,,,,,,,,,,,,,0.102481857,,,,,,,,,,,,,,,,,,,,,,,,,,,,left,1,160,-30,130,1,1757.943974,1757.943974,1757.943974,None,None,1,1,3.745816,,,,,,,,,,,,,,,,,,,,,,10,16,2,2024-10-31_15h37.34.255,uWM_experiment,2022.2.3,59.99325676
,,,,,,,,,,,,,,,,,,,,4,0,4,0,8,0,8,0,,,,,,,,,,,,,,,,,,,,,,,,,,,,,,,,,,,,,,,,,,,,,,,,,,,,,,,,,,,,,,,,,,,,,,0.112481857,,,,,,,,,,,,,,,,,,,,,,,,,,,,right,1,160,30,190,1,1768.311123,1768.311123,1768.311123,None,None,2,0,0.4505272,,,,,,,,,,,,,,,,,,,,,,10,16,2,2024-10-31_15h37.34.255,uWM_experiment,2022.2.3,59.99325676
,,,,,,,,,,,,,,,,,,,,4,0,4,0,9,0,9,0,,,,,,,,,,,,,,,,,,,,,,,,,,,,,,,,,,,,,,,,,,,,,,,,,,,,,,,,,,,,,,,,,,,,,,0.102481857,,,,,,,,,,,,,,,,,,,,,,,,,,,,right,1,70,30,100,1,1778.128243,1778.128243,1778.128243,None,None,3,0,5.249478,,,,,,,,,,,,,,,,,,,,,,10,16,2,2024-10-31_15h37.34.255,uWM_experiment,2022.2.3,59.99325676
,,,,,,,,,,,,,,,,,,,,4,0,4,0,10,0,10,0,,,,,,,,,,,,,,,,,,,,,,,,,,,,,,,,,,,,,,,,,,,,,,,,,,,,,,,,,,,,,,,,,,,,,,0,,,,,,,,,,,,,,,,,,,,,,,,,,,,right,0,100,-30,70,0,1789.112044,1789.112044,1789.112044,None,None,1,1,0.2657693,,,,,,,,,,,,,,,,,,,,,,10,16,2,2024-10-31_15h37.34.255,uWM_experiment,2022.2.3,59.99325676
,,,,,,,,,,,,,,,,,,,,4,0,4,0,11,0,11,0,,,,,,,,,,,,,,,,,,,,,,,,,,,,,,,,,,,,,,,,,,,,,,,,,,,,,,,,,,,,,,,,,,,,,,0.092481857,,,,,,,,,,,,,,,,,,,,,,,,,,,,left,1,40,-30,10,1,1798.395818,1798.395818,1798.395818,None,None,1,1,1.3259592,,,,,,,,,,,,,,,,,,,,,,10,16,2,2024-10-31_15h37.34.255,uWM_experiment,2022.2.3,59.99325676
,,,,,,,,,,,,,,,,,,,,4,0,4,0,12,0,12,0,,,,,,,,,,,,,,,,,,,,,,,,,,,,,,,,,,,,,,,,,,,,,,,,,,,,,,,,,,,,,,,,,,,,,,0.102481857,,,,,,,,,,,,,,,,,,,,,,,,,,,,right,1,10,30,40,1,1805.212777,1805.212777,1805.212777,None,None,2,0,0.6930333,,,,,,,,,,,,,,,,,,,,,,10,16,2,2024-10-31_15h37.34.255,uWM_experiment,2022.2.3,59.99325676
,,,,,,,,,,,,,,,,,,,,4,0,4,0,13,0,13,0,,,,,,,,,,,,,,,,,,,,,,,,,,,,,,,,,,,,,,,,,,,,,,,,,,,,,,,,,,,,,,,,,,,,,,0.092481857,,,,,,,,,,,,,,,,,,,,,,,,,,,,left,0,100,30,130,1,1811.596405,1811.596405,1811.596405,None,None,1,1,0.1894202,,,,,,,,,,,,,,,,,,,,,,10,16,2,2024-10-31_15h37.34.255,uWM_experiment,2022.2.3,59.99325676
,,,,,,,,,,,,,,,,,,,,4,0,4,0,14,0,14,0,,,,,,,,,,,,,,,,,,,,,,,,,,,,,,,,,,,,,,,,,,,,,,,,,,,,,,,,,,,,,,,,,,,,,,0,,,,,,,,,,,,,,,,,,,,,,,,,,,,right,0,40,-30,10,0,1817.696703,1817.696703,1817.696703,None,None,1,1,1.1050364,,,,,,,,,,,,,,,,,,,,,,10,16,2,2024-10-31_15h37.34.255,uWM_experiment,2022.2.3,59.99325676
,,,,,,,,,,,,,,,,,,,,4,0,4,0,15,0,15,0,,,,,,,,,,,,,,,,,,,,,,,,,,,,,,,,,,,,,,,,,,,,,,,,,,,,,,,,,,,,,,,,,,,,,,0.102481857,,,,,,,,,,,,,,,,,,,,,,,,,,,,right,1,40,30,70,1,1825.397041,1825.397041,1825.397041,None,None,1,1,3.4927034,,,,,,,,,,,,,,,,,,,,,,10,16,2,2024-10-31_15h37.34.255,uWM_experiment,2022.2.3,59.99325676
,,,,,,,,,,,,,,,,,,,,4,0,4,0,16,0,16,0,,,,,,,,,,,,,,,,,,,,,,,,,,,,,,,,,,,,,,,,,,,,,,,,,,,,,,,,,,,,,,,,,,,,,,0,,,,,,,,,,,,,,,,,,,,,,,,,,,,left,0,70,30,100,0,1835.997501,1835.997501,1835.997501,None,None,1,1,0.9082755,,,,,,,,,,,,,,,,,,,,,,10,16,2,2024-10-31_15h37.34.255,uWM_experiment,2022.2.3,59.99325676
,,,,,,,,,,,,,,,,,,,,4,0,4,0,17,0,17,0,,,,,,,,,,,,,,,,,,,,,,,,,,,,,,,,,,,,,,,,,,,,,,,,,,,,,,,,,,,,,,,,,,,,,,0.112481857,,,,,,,,,,,,,,,,,,,,,,,,,,,,left,1,70,-30,40,1,1845.081234,1845.081234,1845.081234,None,None,2,0,1.2166693,,,,,,,,,,,,,,,,,,,,,,10,16,2,2024-10-31_15h37.34.255,uWM_experiment,2022.2.3,59.99325676
,,,,,,,,,,,,,,,,,,,,4,0,4,0,18,0,18,0,,,,,,,,,,,,,,,,,,,,,,,,,,,,,,,,,,,,,,,,,,,,,,,,,,,,,,,,,,,,,,,,,,,,,,0.102481857,,,,,,,,,,,,,,,,,,,,,,,,,,,,left,1,70,-30,40,1,1852.148247,1852.148247,1852.148247,None,None,2,0,0.6135925,,,,,,,,,,,,,,,,,,,,,,10,16,2,2024-10-31_15h37.34.255,uWM_experiment,2022.2.3,59.99325676
,,,,,,,,,,,,,,,,,,,,4,0,4,0,19,0,19,0,,,,,,,,,,,,,,,,,,,,,,,,,,,,,,,,,,,,,,,,,,,,,,,,,,,,,,,,,,,,,,,,,,,,,,0.092481857,,,,,,,,,,,,,,,,,,,,,,,,,,,,left,0,130,30,160,1,1859.898574,1859.898574,1859.898574,None,None,2,0,0.2632,,,,,,,,,,,,,,,,,,,,,,10,16,2,2024-10-31_15h37.34.255,uWM_experiment,2022.2.3,59.99325676
,,,,,,,,,,,,,,,,,,,,4,0,4,0,20,0,20,0,,,,,,,,,,,,,,,,,,,,,,,,,,,,,,,,,,,,,,,,,,,,,,,,,,,,,,,,,,,,,,,,,,,,,,0.082481857,,,,,,,,,,,,,,,,,,,,,,,,,,,,left,0,100,30,130,1,1867.498945,1867.498945,1867.498945,None,None,2,0,3.406884,,,,,,,,,,,,,,,,,,,,,,10,16,2,2024-10-31_15h37.34.255,uWM_experiment,2022.2.3,59.99325676
,,,,,,,,,,,,,,,,,,,,4,0,4,0,21,0,21,0,,,,,,,,,,,,,,,,,,,,,,,,,,,,,,,,,,,,,,,,,,,,,,,,,,,,,,,,,,,,,,,,,,,,,,0.072481857,,,,,,,,,,,,,,,,,,,,,,,,,,,,right,1,160,30,190,1,1881.982914,1881.982914,1881.982914,None,None,1,1,0.4670075,,,,,,,,,,,,,,,,,,,,,,10,16,2,2024-10-31_15h37.34.255,uWM_experiment,2022.2.3,59.99325676
,,,,,,,,,,,,,,,,,,,,4,0,4,0,22,0,22,0,,,,,,,,,,,,,,,,,,,,,,,,,,,,,,,,,,,,,,,,,,,,,,,,,,,,,,,,,,,,,,,,,,,,,,0,,,,,,,,,,,,,,,,,,,,,,,,,,,,right,0,40,-30,10,0,1890.199966,1890.199966,1890.199966,None,None,1,1,0.3939182,,,,,,,,,,,,,,,,,,,,,,10,16,2,2024-10-31_15h37.34.255,uWM_experiment,2022.2.3,59.99325676
,,,,,,,,,,,,,,,,,,,,4,0,4,0,23,0,23,0,,,,,,,,,,,,,,,,,,,,,,,,,,,,,,,,,,,,,,,,,,,,,,,,,,,,,,,,,,,,,,,,,,,,,,0.082481857,,,,,,,,,,,,,,,,,,,,,,,,,,,,right,0,10,-30,-20,1,1897.716965,1897.716965,1897.716965,None,None,4,0,1.6768519,,,,,,,,,,,,,,,,,,,,,,10,16,2,2024-10-31_15h37.34.255,uWM_experiment,2022.2.3,59.99325676
,,,,,,,,,,,,,,,,,,,,4,0,4,0,,,,,0,0,0,0,,,,,,,,,,,,,,,,,,,,,,,,,,,,,,,,,,,,,,,,,,,,,,,,,,,,,,,,,,,,,,,,,,,,,,,,,,,,,,,,,,,,,,,,,,,,,,,,,,,,,,,,,,,,1899.417026,1899.417026,space,45.4247855,None,None,,,,,,,,,,,,,,,,10,16,2,2024-10-31_15h37.34.255,uWM_experiment,2022.2.3,59.99325676
,,,,,,,,,,,,,,,,,,,,4,0,4,0,,,,,1,0,1,0,,,,,,,,,,,,,,,,,,,,,,,,,,,,,,,,,,,,,,,,,,,,,,,,,,,,,,,,,,,,,,,,,,,,,,,,,,,,,,,,,,,,,,,,,,,,,,,,,,,,,,,,,,,,,,,,,,,,,,,,,,,,,,,,,10,16,2,2024-10-31_15h37.34.255,uWM_experiment,2022.2.3,59.99325676
,,,,,,,,,,,,,,,,,,,,4,0,4,0,,,,,2,0,2,0,,,,,,,,,,,,,,,,,,,,,,,,,,,,,,,,,,,,,,,,,,,,,,,,,,,,,,,,,,,,,,,,,,,,,,,,,,,,,,,,,,,,,,,,,,,,,,,,,,,,,,,,,,,,,,,,,,,,,,,,,,,,,,,,,10,16,2,2024-10-31_15h37.34.255,uWM_experiment,2022.2.3,59.99325676
,,,,,,,,,,,,,,,,,,,,5,0,5,0,0,0,0,0,,,,,,,,,,,,,,,,,,,,,,,,,,,,,,,,,,,,,,,,,,,,,,,,,,,,,,,,,,,,,,,,,,,,,,0.072481857,,,,,,,,,,,,,,,,,,,,1944.869091,1945.56909,1945.869131,1946.569157,1946.869178,1947.569229,1947.569229,1947.885902,left,1,130,-30,100,1,1953.336156,1953.336156,1953.336156,None,None,1,1,0.9376006,,,,,,,None,,,,,,,,,,,,,,,10,16,2,2024-10-31_15h37.34.255,uWM_experiment,2022.2.3,59.99325676
,,,,,,,,,,,,,,,,,,,,5,0,5,0,1,0,1,0,,,,,,,,,,,,,,,,,,,,,,,,,,,,,,,,,,,,,,,,,,,,,,,,,,,,,,,,,,,,,,,,,,,,,,0,,,,,,,,,,,,,,,,,,,,,,,,,,,,left,0,70,30,100,0,1959.836443,1959.836443,1959.836443,None,None,1,1,0.3654341,,,,,,,,,,,,,,,,,,,,,,10,16,2,2024-10-31_15h37.34.255,uWM_experiment,2022.2.3,59.99325676
,,,,,,,,,,,,,,,,,,,,5,0,5,0,2,0,2,0,,,,,,,,,,,,,,,,,,,,,,,,,,,,,,,,,,,,,,,,,,,,,,,,,,,,,,,,,,,,,,,,,,,,,,0.082481857,,,,,,,,,,,,,,,,,,,,,,,,,,,,right,0,130,-30,100,1,1967.853473,1967.853473,1967.853473,None,None,2,0,0.8043534,,,,,,,,,,,,,,,,,,,,,,10,16,2,2024-10-31_15h37.34.255,uWM_experiment,2022.2.3,59.99325676
,,,,,,,,,,,,,,,,,,,,5,0,5,0,3,0,3,0,,,,,,,,,,,,,,,,,,,,,,,,,,,,,,,,,,,,,,,,,,,,,,,,,,,,,,,,,,,,,,,,,,,,,,0.072481857,,,,,,,,,,,,,,,,,,,,,,,,,,,,right,0,70,-30,40,1,1974.320465,1974.320465,1974.320465,None,None,1,1,0.2574042,,,,,,,,,,,,,,,,,,,,,,10,16,2,2024-10-31_15h37.34.255,uWM_experiment,2022.2.3,59.99325676
,,,,,,,,,,,,,,,,,,,,5,0,5,0,4,0,4,0,,,,,,,,,,,,,,,,,,,,,,,,,,,,,,,,,,,,,,,,,,,,,,,,,,,,,,,,,,,,,,,,,,,,,,0,,,,,,,,,,,,,,,,,,,,,,,,,,,,right,0,70,-30,40,0,1980.537389,1980.537389,1980.537389,None,None,1,1,2.6165582,,,,,,,,,,,,,,,,,,,,,,10,16,2,2024-10-31_15h37.34.255,uWM_experiment,2022.2.3,59.99325676
,,,,,,,,,,,,,,,,,,,,5,0,5,0,5,0,5,0,,,,,,,,,,,,,,,,,,,,,,,,,,,,,,,,,,,,,,,,,,,,,,,,,,,,,,,,,,,,,,,,,,,,,,0.082481857,,,,,,,,,,,,,,,,,,,,,,,,,,,,left,1,130,-30,100,1,1988.871105,1988.871105,1988.871105,None,None,1,1,4.2747695,,,,,,,,,,,,,,,,,,,,,,10,16,2,2024-10-31_15h37.34.255,uWM_experiment,2022.2.3,59.99325676
,,,,,,,,,,,,,,,,,,,,5,0,5,0,6,0,6,0,,,,,,,,,,,,,,,,,,,,,,,,,,,,,,,,,,,,,,,,,,,,,,,,,,,,,,,,,,,,,,,,,,,,,,0.092481857,,,,,,,,,,,,,,,,,,,,,,,,,,,,left,0,100,30,130,1,1998.754862,1998.754862,1998.754862,None,None,1,1,1.3189325,,,,,,,,,,,,,,,,,,,,,,10,16,2,2024-10-31_15h37.34.255,uWM_experiment,2022.2.3,59.99325676
,,,,,,,,,,,,,,,,,,,,5,0,5,0,7,0,7,0,,,,,,,,,,,,,,,,,,,,,,,,,,,,,,,,,,,,,,,,,,,,,,,,,,,,,,,,,,,,,,,,,,,,,,0.102481857,,,,,,,,,,,,,,,,,,,,,,,,,,,,left,1,40,-30,10,1,2005.871862,2005.871862,2005.871862,None,None,2,0,0.5940655,,,,,,,,,,,,,,,,,,,,,,10,16,2,2024-10-31_15h37.34.255,uWM_experiment,2022.2.3,59.99325676
,,,,,,,,,,,,,,,,,,,,5,0,5,0,8,0,8,0,,,,,,,,,,,,,,,,,,,,,,,,,,,,,,,,,,,,,,,,,,,,,,,,,,,,,,,,,,,,,,,,,,,,,,0.092481857,,,,,,,,,,,,,,,,,,,,,,,,,,,,left,0,130,30,160,1,2012.738807,2012.738807,2012.738807,None,None,2,0,3.4310927,,,,,,,,,,,,,,,,,,,,,,10,16,2,2024-10-31_15h37.34.255,uWM_experiment,2022.2.3,59.99325676
,,,,,,,,,,,,,,,,,,,,5,0,5,0,9,0,9,0,,,,,,,,,,,,,,,,,,,,,,,,,,,,,,,,,,,,,,,,,,,,,,,,,,,,,,,,,,,,,,,,,,,,,,0.082481857,,,,,,,,,,,,,,,,,,,,,,,,,,,,left,0,70,30,100,1,2022.255943,2022.255943,2022.255943,None,None,1,1,0.4339068,,,,,,,,,,,,,,,,,,,,,,10,16,2,2024-10-31_15h37.34.255,uWM_experiment,2022.2.3,59.99325676
,,,,,,,,,,,,,,,,,,,,5,0,5,0,10,0,10,0,,,,,,,,,,,,,,,,,,,,,,,,,,,,,,,,,,,,,,,,,,,,,,,,,,,,,,,,,,,,,,,,,,,,,,0.092481857,,,,,,,,,,,,,,,,,,,,,,,,,,,,right,1,100,30,130,1,2041.190123,2041.190123,2041.190123,None,None,4,0,1.0838273,,,,,,,,,,,,,,,,,,,,,,10,16,2,2024-10-31_15h37.34.255,uWM_experiment,2022.2.3,59.99325676
,,,,,,,,,,,,,,,,,,,,5,0,5,0,11,0,11,0,,,,,,,,,,,,,,,,,,,,,,,,,,,,,,,,,,,,,,,,,,,,,,,,,,,,,,,,,,,,,,,,,,,,,,0,,,,,,,,,,,,,,,,,,,,,,,,,,,,left,1,130,-30,100,0,2048.040412,2048.040412,2048.040412,None,None,1,1,0.5214109,,,,,,,,,,,,,,,,,,,,,,10,16,2,2024-10-31_15h37.34.255,uWM_experiment,2022.2.3,59.99325676
,,,,,,,,,,,,,,,,,,,,5,0,5,0,12,0,12,0,,,,,,,,,,,,,,,,,,,,,,,,,,,,,,,,,,,,,,,,,,,,,,,,,,,,,,,,,,,,,,,,,,,,,,0,,,,,,,,,,,,,,,,,,,,,,,,,,,,right,0,100,-30,70,0,2054.874081,2054.874081,2054.874081,None,None,1,1,1.8959007,,,,,,,,,,,,,,,,,,,,,,10,16,2,2024-10-31_15h37.34.255,uWM_experiment,2022.2.3,59.99325676
,,,,,,,,,,,,,,,,,,,,5,0,5,0,13,0,13,0,,,,,,,,,,,,,,,,,,,,,,,,,,,,,,,,,,,,,,,,,,,,,,,,,,,,,,,,,,,,,,,,,,,,,,0.082481857,,,,,,,,,,,,,,,,,,,,,,,,,,,,left,0,100,30,130,1,2063.474463,2063.474463,2063.474463,None,None,1,1,2.2554175,,,,,,,,,,,,,,,,,,,,,,10,16,2,2024-10-31_15h37.34.255,uWM_experiment,2022.2.3,59.99325676
,,,,,,,,,,,,,,,,,,,,5,0,5,0,14,0,14,0,,,,,,,,,,,,,,,,,,,,,,,,,,,,,,,,,,,,,,,,,,,,,,,,,,,,,,,,,,,,,,,,,,,,,,0.092481857,,,,,,,,,,,,,,,,,,,,,,,,,,,,right,0,100,-30,70,1,2071.324821,2071.324821,2071.324821,None,None,1,1,0.8530359,,,,,,,,,,,,,,,,,,,,,,10,16,2,2024-10-31_15h37.34.255,uWM_experiment,2022.2.3,59.99325676
,,,,,,,,,,,,,,,,,,,,5,0,5,0,15,0,15,0,,,,,,,,,,,,,,,,,,,,,,,,,,,,,,,,,,,,,,,,,,,,,,,,,,,,,,,,,,,,,,,,,,,,,,0.102481857,,,,,,,,,,,,,,,,,,,,,,,,,,,,left,1,130,-30,100,1,2077.891769,2077.891769,2077.891769,None,None,1,1,1.3901911,,,,,,,,,,,,,,,,,,,,,,10,16,2,2024-10-31_15h37.34.255,uWM_experiment,2022.2.3,59.99325676
,,,,,,,,,,,,,,,,,,,,5,0,5,0,16,0,16,0,,,,,,,,,,,,,,,,,,,,,,,,,,,,,,,,,,,,,,,,,,,,,,,,,,,,,,,,,,,,,,,,,,,,,,0.112481857,,,,,,,,,,,,,,,,,,,,,,,,,,,,left,0,130,30,160,1,2085.508791,2085.508791,2085.508791,None,None,1,1,5.5251991,,,,,,,,,,,,,,,,,,,,,,10,16,2,2024-10-31_15h37.34.255,uWM_experiment,2022.2.3,59.99325676
,,,,,,,,,,,,,,,,,,,,5,0,5,0,17,0,17,0,,,,,,,,,,,,,,,,,,,,,,,,,,,,,,,,,,,,,,,,,,,,,,,,,,,,,,,,,,,,,,,,,,,,,,0,,,,,,,,,,,,,,,,,,,,,,,,,,,,left,1,130,-30,100,0,2096.709298,2096.709298,2096.709298,None,None,1,1,3.6205999,,,,,,,,,,,,,,,,,,,,,,10,16,2,2024-10-31_15h37.34.255,uWM_experiment,2022.2.3,59.99325676
,,,,,,,,,,,,,,,,,,,,5,0,5,0,18,0,18,0,,,,,,,,,,,,,,,,,,,,,,,,,,,,,,,,,,,,,,,,,,,,,,,,,,,,,,,,,,,,,,,,,,,,,,0.122481857,,,,,,,,,,,,,,,,,,,,,,,,,,,,right,1,70,30,100,1,2107.526445,2107.526445,2107.526445,None,None,2,0,1.4674171,,,,,,,,,,,,,,,,,,,,,,10,16,2,2024-10-31_15h37.34.255,uWM_experiment,2022.2.3,59.99325676
,,,,,,,,,,,,,,,,,,,,5,0,5,0,19,0,19,0,,,,,,,,,,,,,,,,,,,,,,,,,,,,,,,,,,,,,,,,,,,,,,,,,,,,,,,,,,,,,,,,,,,,,,0.112481857,,,,,,,,,,,,,,,,,,,,,,,,,,,,right,1,130,30,160,1,2116.776874,2116.776874,2116.776874,None,None,2,0,1.5771369,,,,,,,,,,,,,,,,,,,,,,10,16,2,2024-10-31_15h37.34.255,uWM_experiment,2022.2.3,59.99325676
,,,,,,,,,,,,,,,,,,,,5,0,5,0,20,0,20,0,,,,,,,,,,,,,,,,,,,,,,,,,,,,,,,,,,,,,,,,,,,,,,,,,,,,,,,,,,,,,,,,,,,,,,0.102481857,,,,,,,,,,,,,,,,,,,,,,,,,,,,right,1,160,30,190,1,2127.060677,2127.060677,2127.060677,None,None,2,0,0.9413093,,,,,,,,,,,,,,,,,,,,,,10,16,2,2024-10-31_15h37.34.255,uWM_experiment,2022.2.3,59.99325676
,,,,,,,,,,,,,,,,,,,,5,0,5,0,21,0,21,0,,,,,,,,,,,,,,,,,,,,,,,,,,,,,,,,,,,,,,,,,,,,,,,,,,,,,,,,,,,,,,,,,,,,,,0.092481857,,,,,,,,,,,,,,,,,,,,,,,,,,,,left,1,160,-30,130,1,2135.411031,2135.411031,2135.411031,None,None,1,1,2.6149885,,,,,,,,,,,,,,,,,,,,,,10,16,2,2024-10-31_15h37.34.255,uWM_experiment,2022.2.3,59.99325676
,,,,,,,,,,,,,,,,,,,,5,0,5,0,22,0,22,0,,,,,,,,,,,,,,,,,,,,,,,,,,,,,,,,,,,,,,,,,,,,,,,,,,,,,,,,,,,,,,,,,,,,,,0,,,,,,,,,,,,,,,,,,,,,,,,,,,,left,1,160,-30,130,0,2144.72812,2144.72812,2144.72812,None,None,1,1,0.9697967,,,,,,,,,,,,,,,,,,,,,,10,16,2,2024-10-31_15h37.34.255,uWM_experiment,2022.2.3,59.99325676
,,,,,,,,,,,,,,,,,,,,5,0,5,0,23,0,23,0,,,,,,,,,,,,,,,,,,,,,,,,,,,,,,,,,,,,,,,,,,,,,,,,,,,,,,,,,,,,,,,,,,,,,,0.102481857,,,,,,,,,,,,,,,,,,,,,,,,,,,,right,1,40,30,70,1,2154.511911,2154.511911,2154.511911,None,None,2,0,3.4660504,,,,,,,,,,,,,,,,,,,,,,10,16,2,2024-10-31_15h37.34.255,uWM_experiment,2022.2.3,59.99325676
,,,,,,,,,,,,,,,,,,,,5,0,5,0,,,,,0,0,0,0,,,,,,,,,,,,,,,,,,,,,,,,,,,,,,,,,,,,,,,,,,,,,,,,,,,,,,,,,,,,,,,,,,,,,,,,,,,,,,,,,,,,,,,,,,,,,,,,,,,,,,,,,,,,2157.995391,2157.995391,space,48.0626093,space,None,,2206.080885,2206.080885,1.0731878,,,,,,,,,,,,10,16,2,2024-10-31_15h37.34.255,uWM_experiment,2022.2.3,59.99325676
,,,,,,,,,,,,,,,,,,,,5,0,5,0,,,,,1,0,1,0,,,,,,,,,,,,,,,,,,,,,,,,,,,,,,,,,,,,,,,,,,,,,,,,,,,,,,,,,,,,,,,,,,,,,,,,,,,,,,,,,,,,,,,,,,,,,,,,,,,,,,,,,,,,,,,,,,,,,,,,,,,,,,,,,10,16,2,2024-10-31_15h37.34.255,uWM_experiment,2022.2.3,59.99325676
,,,,,,,,,,,,,,,,,,,,5,0,5,0,,,,,2,0,2,0,,,,,,,,,,,,,,,,,,,,,,,,,,,,,,,,,,,,,,,,,,,,,,,,,,,,,,,,,,,,,,,,,,,,,,,,,,,,,,,,,,,,,,,,,,,,,,,,,,,,,,,,,,,,,,,,,,,,,,,,,,,,,,,,,10,16,2,2024-10-31_15h37.34.255,uWM_experiment,2022.2.3,59.99325676
,,,,,,,,,,,,,,,,,,,,6,0,6,0,0,0,0,0,,,,,,,,,,,,,,,,,,,,,,,,,,,,,,,,,,,,,,,,,,,,,,,,,,,,,,,,,,,,,,,,,,,,,,0,,,,,,,,,,,,,,,,,,,,2207.180934,2207.880966,2208.180978,2208.881001,2209.181018,2209.881063,2209.881063,2210.19775,left,0,100,30,130,0,2214.897982,2214.897982,2214.897982,None,None,1,1,0.656028,,,,,,,None,,,,,,,,,,,,,,,10,16,2,2024-10-31_15h37.34.255,uWM_experiment,2022.2.3,59.99325676
,,,,,,,,,,,,,,,,,,,,6,0,6,0,1,0,1,0,,,,,,,,,,,,,,,,,,,,,,,,,,,,,,,,,,,,,,,,,,,,,,,,,,,,,,,,,,,,,,,,,,,,,,0.092481857,,,,,,,,,,,,,,,,,,,,,,,,,,,,right,0,100,-30,70,1,2222.248312,2222.248312,2222.248312,None,None,1,1,0.8175682,,,,,,,,,,,,,,,,,,,,,,10,16,2,2024-10-31_15h37.34.255,uWM_experiment,2022.2.3,59.99325676
,,,,,,,,,,,,,,,,,,,,6,0,6,0,2,0,2,0,,,,,,,,,,,,,,,,,,,,,,,,,,,,,,,,,,,,,,,,,,,,,,,,,,,,,,,,,,,,,,,,,,,,,,0,,,,,,,,,,,,,,,,,,,,,,,,,,,,left,0,70,30,100,0,2229.231937,2229.231937,2229.231937,None,None,1,1,1.7620729,,,,,,,,,,,,,,,,,,,,,,10,16,2,2024-10-31_15h37.34.255,uWM_experiment,2022.2.3,59.99325676
,,,,,,,,,,,,,,,,,,,,6,0,6,0,3,0,3,0,,,,,,,,,,,,,,,,,,,,,,,,,,,,,,,,,,,,,,,,,,,,,,,,,,,,,,,,,,,,,,,,,,,,,,0,,,,,,,,,,,,,,,,,,,,,,,,,,,,right,1,40,30,70,0,2236.765624,2236.765624,2236.765624,None,None,1,1,0.8043016,,,,,,,,,,,,,,,,,,,,,,10,16,2,2024-10-31_15h37.34.255,uWM_experiment,2022.2.3,59.99325676
,,,,,,,,,,,,,,,,,,,,6,0,6,0,4,0,4,0,,,,,,,,,,,,,,,,,,,,,,,,,,,,,,,,,,,,,,,,,,,,,,,,,,,,,,,,,,,,,,,,,,,,,,0.102481857,,,,,,,,,,,,,,,,,,,,,,,,,,,,right,0,70,-30,40,1,2243.299257,2243.299257,2243.299257,None,None,1,1,0.3907552,,,,,,,,,,,,,,,,,,,,,,10,16,2,2024-10-31_15h37.34.255,uWM_experiment,2022.2.3,59.99325676
,,,,,,,,,,,,,,,,,,,,6,0,6,0,5,0,5,0,,,,,,,,,,,,,,,,,,,,,,,,,,,,,,,,,,,,,,,,,,,,,,,,,,,,,,,,,,,,,,,,,,,,,,0.112481857,,,,,,,,,,,,,,,,,,,,,,,,,,,,left,1,40,-30,10,1,2249.932887,2249.932887,2249.932887,None,None,2,0,0.5091761,,,,,,,,,,,,,,,,,,,,,,10,16,2,2024-10-31_15h37.34.255,uWM_experiment,2022.2.3,59.99325676
,,,,,,,,,,,,,,,,,,,,6,0,6,0,6,0,6,0,,,,,,,,,,,,,,,,,,,,,,,,,,,,,,,,,,,,,,,,,,,,,,,,,,,,,,,,,,,,,,,,,,,,,,0.102481857,,,,,,,,,,,,,,,,,,,,,,,,,,,,right,1,40,30,70,1,2256.383162,2256.383162,2256.383162,None,None,2,0,0.5068886,,,,,,,,,,,,,,,,,,,,,,10,16,2,2024-10-31_15h37.34.255,uWM_experiment,2022.2.3,59.99325676
,,,,,,,,,,,,,,,,,,,,6,0,6,0,7,0,7,0,,,,,,,,,,,,,,,,,,,,,,,,,,,,,,,,,,,,,,,,,,,,,,,,,,,,,,,,,,,,,,,,,,,,,,0.092481857,,,,,,,,,,,,,,,,,,,,,,,,,,,,left,1,10,-30,-20,1,2263.133492,2263.133492,2263.133492,None,None,2,0,2.6605545,,,,,,,,,,,,,,,,,,,,,,10,16,2,2024-10-31_15h37.34.255,uWM_experiment,2022.2.3,59.99325676
,,,,,,,,,,,,,,,,,,,,6,0,6,0,8,0,8,0,,,,,,,,,,,,,,,,,,,,,,,,,,,,,,,,,,,,,,,,,,,,,,,,,,,,,,,,,,,,,,,,,,,,,,0.082481857,,,,,,,,,,,,,,,,,,,,,,,,,,,,right,0,70,-30,40,1,2271.53385,2271.53385,2271.53385,None,None,1,1,4.004112,,,,,,,,,,,,,,,,,,,,,,10,16,2,2024-10-31_15h37.34.255,uWM_experiment,2022.2.3,59.99325676
,,,,,,,,,,,,,,,,,,,,6,0,6,0,9,0,9,0,,,,,,,,,,,,,,,,,,,,,,,,,,,,,,,,,,,,,,,,,,,,,,,,,,,,,,,,,,,,,,,,,,,,,,0.092481857,,,,,,,,,,,,,,,,,,,,,,,,,,,,right,0,70,-30,40,1,2281.150976,2281.150976,2281.150976,None,None,1,1,2.3870055,,,,,,,,,,,,,,,,,,,,,,10,16,2,2024-10-31_15h37.34.255,uWM_experiment,2022.2.3,59.99325676
,,,,,,,,,,,,,,,,,,,,6,0,6,0,10,0,10,0,,,,,,,,,,,,,,,,,,,,,,,,,,,,,,,,,,,,,,,,,,,,,,,,,,,,,,,,,,,,,,,,,,,,,,0,,,,,,,,,,,,,,,,,,,,,,,,,,,,left,1,130,-30,100,0,2289.167984,2289.167984,2289.167984,None,None,1,1,0.9539718,,,,,,,,,,,,,,,,,,,,,,10,16,2,2024-10-31_15h37.34.255,uWM_experiment,2022.2.3,59.99325676
,,,,,,,,,,,,,,,,,,,,6,0,6,0,11,0,11,0,,,,,,,,,,,,,,,,,,,,,,,,,,,,,,,,,,,,,,,,,,,,,,,,,,,,,,,,,,,,,,,,,,,,,,0,,,,,,,,,,,,,,,,,,,,,,,,,,,,right,0,70,-30,40,0,2296.084962,2296.084962,2296.084962,None,None,1,1,5.9172687,,,,,,,,,,,,,,,,,,,,,,10,16,2,2024-10-31_15h37.34.255,uWM_experiment,2022.2.3,59.99325676
,,,,,,,,,,,,,,,,,,,,6,0,6,0,12,0,12,0,,,,,,,,,,,,,,,,,,,,,,,,,,,,,,,,,,,,,,,,,,,,,,,,,,,,,,,,,,,,,,,,,,,,,,0.102481857,,,,,,,,,,,,,,,,,,,,,,,,,,,,left,1,160,-30,130,1,2308.95222,2308.95222,2308.95222,None,None,1,1,0.4017804,,,,,,,,,,,,,,,,,,,,,,10,16,2,2024-10-31_15h37.34.255,uWM_experiment,2022.2.3,59.99325676
,,,,,,,,,,,,,,,,,,,,6,0,6,0,13,0,13,0,,,,,,,,,,,,,,,,,,,,,,,,,,,,,,,,,,,,,,,,,,,,,,,,,,,,,,,,,,,,,,,,,,,,,,0,,,,,,,,,,,,,,,,,,,,,,,,,,,,left,1,10,-30,-20,0,2317.452608,2317.452608,2317.452608,None,None,1,1,0.6614327,,,,,,,,,,,,,,,,,,,,,,10,16,2,2024-10-31_15h37.34.255,uWM_experiment,2022.2.3,59.99325676
,,,,,,,,,,,,,,,,,,,,6,0,6,0,14,0,14,0,,,,,,,,,,,,,,,,,,,,,,,,,,,,,,,,,,,,,,,,,,,,,,,,,,,,,,,,,,,,,,,,,,,,,,0.112481857,,,,,,,,,,,,,,,,,,,,,,,,,,,,right,1,160,30,190,1,2323.969557,2323.969557,2323.969557,None,None,2,0,1.4006682,,,,,,,,,,,,,,,,,,,,,,10,16,2,2024-10-31_15h37.34.255,uWM_experiment,2022.2.3,59.99325676
,,,,,,,,,,,,,,,,,,,,6,0,6,0,15,0,15,0,,,,,,,,,,,,,,,,,,,,,,,,,,,,,,,,,,,,,,,,,,,,,,,,,,,,,,,,,,,,,,,,,,,,,,0,,,,,,,,,,,,,,,,,,,,,,,,,,,,left,1,10,-30,-20,0,2331.469915,2331.469915,2331.469915,None,None,1,1,0.3720579,,,,,,,,,,,,,,,,,,,,,,10,16,2,2024-10-31_15h37.34.255,uWM_experiment,2022.2.3,59.99325676
,,,,,,,,,,,,,,,,,,,,6,0,6,0,16,0,16,0,,,,,,,,,,,,,,,,,,,,,,,,,,,,,,,,,,,,,,,,,,,,,,,,,,,,,,,,,,,,,,,,,,,,,,0.1,,,,,,,,,,,,,,,,,,,,,,,,,,,,left,1,10,-30,-20,2,2345.120498,2345.120498,2345.120498,None,None,4,0,2.4256123,,,,,,,,,,,,,,,,,,,,,,10,16,2,2024-10-31_15h37.34.255,uWM_experiment,2022.2.3,59.99325676
,,,,,,,,,,,,,,,,,,,,6,0,6,0,17,0,17,0,,,,,,,,,,,,,,,,,,,,,,,,,,,,,,,,,,,,,,,,,,,,,,,,,,,,,,,,,,,,,,,,,,,,,,0.102481857,,,,,,,,,,,,,,,,,,,,,,,,,,,,left,1,130,-30,100,1,2353.57091,2353.57091,2353.57091,None,None,1,1,1.0632088,,,,,,,,,,,,,,,,,,,,,,10,16,2,2024-10-31_15h37.34.255,uWM_experiment,2022.2.3,59.99325676
,,,,,,,,,,,,,,,,,,,,6,0,6,0,18,0,18,0,,,,,,,,,,,,,,,,,,,,,,,,,,,,,,,,,,,,,,,,,,,,,,,,,,,,,,,,,,,,,,,,,,,,,,0.112481857,,,,,,,,,,,,,,,,,,,,,,,,,,,,right,0,10,-30,-20,1,2361.937948,2361.937948,2361.937948,None,None,2,0,1.048117,,,,,,,,,,,,,,,,,,,,,,10,16,2,2024-10-31_15h37.34.255,uWM_experiment,2022.2.3,59.99325676
,,,,,,,,,,,,,,,,,,,,6,0,6,0,19,0,19,0,,,,,,,,,,,,,,,,,,,,,,,,,,,,,,,,,,,,,,,,,,,,,,,,,,,,,,,,,,,,,,,,,,,,,,0.102481857,,,,,,,,,,,,,,,,,,,,,,,,,,,,left,0,70,30,100,1,2371.755076,2371.755076,2371.755076,None,None,2,0,2.6389425,,,,,,,,,,,,,,,,,,,,,,10,16,2,2024-10-31_15h37.34.255,uWM_experiment,2022.2.3,59.99325676
,,,,,,,,,,,,,,,,,,,,6,0,6,0,20,0,20,0,,,,,,,,,,,,,,,,,,,,,,,,,,,,,,,,,,,,,,,,,,,,,,,,,,,,,,,,,,,,,,,,,,,,,,0.092481857,,,,,,,,,,,,,,,,,,,,,,,,,,,,right,1,160,30,190,1,2380.7388,2380.7388,2380.7388,None,None,1,1,0.3992841,,,,,,,,,,,,,,,,,,,,,,10,16,2,2024-10-31_15h37.34.255,uWM_experiment,2022.2.3,59.99325676
,,,,,,,,,,,,,,,,,,,,6,0,6,0,21,0,21,0,,,,,,,,,,,,,,,,,,,,,,,,,,,,,,,,,,,,,,,,,,,,,,,,,,,,,,,,,,,,,,,,,,,,,,0.1,,,,,,,,,,,,,,,,,,,,,,,,,,,,left,0,160,30,190,2,2391.872634,2391.872634,2391.872634,None,None,4,0,0.5455663,,,,,,,,,,,,,,,,,,,,,,10,16,2,2024-10-31_15h37.34.255,uWM_experiment,2022.2.3,59.99325676
,,,,,,,,,,,,,,,,,,,,6,0,6,0,22,0,22,0,,,,,,,,,,,,,,,,,,,,,,,,,,,,,,,,,,,,,,,,,,,,,,,,,,,,,,,,,,,,,,,,,,,,,,0.102481857,,,,,,,,,,,,,,,,,,,,,,,,,,,,right,1,160,30,190,1,2399.773001,2399.773001,2399.773001,None,None,2,0,3.501077,,,,,,,,,,,,,,,,,,,,,,10,16,2,2024-10-31_15h37.34.255,uWM_experiment,2022.2.3,59.99325676
,,,,,,,,,,,,,,,,,,,,6,0,6,0,23,0,23,0,,,,,,,,,,,,,,,,,,,,,,,,,,,,,,,,,,,,,,,,,,,,,,,,,,,,,,,,,,,,,,,,,,,,,,0.092481857,,,,,,,,,,,,,,,,,,,,,,,,,,,,right,1,10,30,40,1,2412.490246,2412.490246,2412.490246,None,None,2,0,1.3999685,,,,,,,,,,,,,,,,,,,,,,10,16,2,2024-10-31_15h37.34.255,uWM_experiment,2022.2.3,59.99325676
,,,,,,,,,,,,,,,,,,,,6,0,6,0,,,,,0,0,0,0,,,,,,,,,,,,,,,,,,,,,,,,,,,,,,,,,,,,,,,,,,,,,,,,,,,,,,,,,,,,,,,,,,,,,,,,,,,,,,,,,,,,,,,,,,,,,,,,,,,,,,,,,,,,2413.906967,2413.906967,space,18.79118,None,space,,,,,2432.724458,2432.724458,5.6296525,,,,,,,,,10,16,2,2024-10-31_15h37.34.255,uWM_experiment,2022.2.3,59.99325676
,,,,,,,,,,,,,,,,,,,,6,0,6,0,,,,,1,0,1,0,,,,,,,,,,,,,,,,,,,,,,,,,,,,,,,,,,,,,,,,,,,,,,,,,,,,,,,,,,,,,,,,,,,,,,,,,,,,,,,,,,,,,,,,,,,,,,,,,,,,,,,,,,,,,,,,,,,,,,,,,,,,,,,,,10,16,2,2024-10-31_15h37.34.255,uWM_experiment,2022.2.3,59.99325676
,,,,,,,,,,,,,,,,,,,,6,0,6,0,,,,,2,0,2,0,,,,,,,,,,,,,,,,,,,,,,,,,,,,,,,,,,,,,,,,,,,,,,,,,,,,,,,,,,,,,,,,,,,,,,,,,,,,,,,,,,,,,,,,,,,,,,,,,,,,,,,,,,,,,,,,,,,,,,,,,,,,,,,,,10,16,2,2024-10-31_15h37.34.255,uWM_experiment,2022.2.3,59.99325676
,,,,,,,,,,,,,,,,,,,,7,0,7,0,0,0,0,0,,,,,,,,,,,,,,,,,,,,,,,,,,,,,,,,,,,,,,,,,,,,,,,,,,,,,,,,,,,,,,,,,,,,,,0,,,,,,,,,,,,,,,,,,,,2452.008679,2452.708703,2452.992082,2453.692099,2453.992097,2454.692129,2454.692129,2455.008819,right,1,40,30,70,0,2459.492349,2459.492349,2459.492349,None,None,1,1,0.1977154,,,,,,,space,,,,,,,2449.375236,2449.375236,2.6109625,,,,,,10,16,2,2024-10-31_15h37.34.255,uWM_experiment,2022.2.3,59.99325676
,,,,,,,,,,,,,,,,,,,,7,0,7,0,1,0,1,0,,,,,,,,,,,,,,,,,,,,,,,,,,,,,,,,,,,,,,,,,,,,,,,,,,,,,,,,,,,,,,,,,,,,,,0,,,,,,,,,,,,,,,,,,,,,,,,,,,,right,1,10,30,40,0,2465.392669,2465.392669,2465.392669,None,None,1,1,0.2975002,,,,,,,,,,,,,,,,,,,,,,10,16,2,2024-10-31_15h37.34.255,uWM_experiment,2022.2.3,59.99325676
,,,,,,,,,,,,,,,,,,,,7,0,7,0,2,0,2,0,,,,,,,,,,,,,,,,,,,,,,,,,,,,,,,,,,,,,,,,,,,,,,,,,,,,,,,,,,,,,,,,,,,,,,0.082481857,,,,,,,,,,,,,,,,,,,,,,,,,,,,left,0,130,30,160,1,2472.192943,2472.192943,2472.192943,None,None,1,1,0.3931284,,,,,,,,,,,,,,,,,,,,,,10,16,2,2024-10-31_15h37.34.255,uWM_experiment,2022.2.3,59.99325676
,,,,,,,,,,,,,,,,,,,,7,0,7,0,3,0,3,0,,,,,,,,,,,,,,,,,,,,,,,,,,,,,,,,,,,,,,,,,,,,,,,,,,,,,,,,,,,,,,,,,,,,,,0.1,,,,,,,,,,,,,,,,,,,,,,,,,,,,left,1,40,-30,10,2,2478.893228,2478.893228,2478.893228,None,None,4,0,0.7888426,,,,,,,,,,,,,,,,,,,,,,10,16,2,2024-10-31_15h37.34.255,uWM_experiment,2022.2.3,59.99325676
,,,,,,,,,,,,,,,,,,,,7,0,7,0,4,0,4,0,,,,,,,,,,,,,,,,,,,,,,,,,,,,,,,,,,,,,,,,,,,,,,,,,,,,,,,,,,,,,,,,,,,,,,0.092481857,,,,,,,,,,,,,,,,,,,,,,,,,,,,right,1,10,30,40,1,2486.960264,2486.960264,2486.960264,None,None,2,0,0.8258569,,,,,,,,,,,,,,,,,,,,,,10,16,2,2024-10-31_15h37.34.255,uWM_experiment,2022.2.3,59.99325676
,,,,,,,,,,,,,,,,,,,,7,0,7,0,5,0,5,0,,,,,,,,,,,,,,,,,,,,,,,,,,,,,,,,,,,,,,,,,,,,,,,,,,,,,,,,,,,,,,,,,,,,,,0,,,,,,,,,,,,,,,,,,,,,,,,,,,,right,0,70,-30,40,0,2494.610618,2494.610618,2494.610618,None,None,1,1,0.8395147,,,,,,,,,,,,,,,,,,,,,,10,16,2,2024-10-31_15h37.34.255,uWM_experiment,2022.2.3,59.99325676
,,,,,,,,,,,,,,,,,,,,7,0,7,0,6,0,6,0,,,,,,,,,,,,,,,,,,,,,,,,,,,,,,,,,,,,,,,,,,,,,,,,,,,,,,,,,,,,,,,,,,,,,,0,,,,,,,,,,,,,,,,,,,,,,,,,,,,left,0,130,30,160,0,2502.027613,2502.027613,2502.027613,None,None,1,1,3.1105455,,,,,,,,,,,,,,,,,,,,,,10,16,2,2024-10-31_15h37.34.255,uWM_experiment,2022.2.3,59.99325676
,,,,,,,,,,,,,,,,,,,,7,0,7,0,7,0,7,0,,,,,,,,,,,,,,,,,,,,,,,,,,,,,,,,,,,,,,,,,,,,,,,,,,,,,,,,,,,,,,,,,,,,,,0.082481857,,,,,,,,,,,,,,,,,,,,,,,,,,,,left,0,160,30,190,1,2516.278265,2516.278265,2516.278265,None,None,3,0,3.1079708,,,,,,,,,,,,,,,,,,,,,,10,16,2,2024-10-31_15h37.34.255,uWM_experiment,2022.2.3,59.99325676
,,,,,,,,,,,,,,,,,,,,7,0,7,0,8,0,8,0,,,,,,,,,,,,,,,,,,,,,,,,,,,,,,,,,,,,,,,,,,,,,,,,,,,,,,,,,,,,,,,,,,,,,,0.072481857,,,,,,,,,,,,,,,,,,,,,,,,,,,,right,0,100,-30,70,1,2525.345344,2525.345344,2525.345344,None,None,1,1,0.2647692,,,,,,,,,,,,,,,,,,,,,,10,16,2,2024-10-31_15h37.34.255,uWM_experiment,2022.2.3,59.99325676
,,,,,,,,,,,,,,,,,,,,7,0,7,0,9,0,9,0,,,,,,,,,,,,,,,,,,,,,,,,,,,,,,,,,,,,,,,,,,,,,,,,,,,,,,,,,,,,,,,,,,,,,,0.082481857,,,,,,,,,,,,,,,,,,,,,,,,,,,,left,1,40,-30,10,1,2531.428937,2531.428937,2531.428937,None,None,2,0,0.5412652,,,,,,,,,,,,,,,,,,,,,,10,16,2,2024-10-31_15h37.34.255,uWM_experiment,2022.2.3,59.99325676
,,,,,,,,,,,,,,,,,,,,7,0,7,0,10,0,10,0,,,,,,,,,,,,,,,,,,,,,,,,,,,,,,,,,,,,,,,,,,,,,,,,,,,,,,,,,,,,,,,,,,,,,,0,,,,,,,,,,,,,,,,,,,,,,,,,,,,left,0,100,30,130,0,2538.362599,2538.362599,2538.362599,None,None,1,1,1.215647,,,,,,,,,,,,,,,,,,,,,,10,16,2,2024-10-31_15h37.34.255,uWM_experiment,2022.2.3,59.99325676
,,,,,,,,,,,,,,,,,,,,7,0,7,0,11,0,11,0,,,,,,,,,,,,,,,,,,,,,,,,,,,,,,,,,,,,,,,,,,,,,,,,,,,,,,,,,,,,,,,,,,,,,,0.1,,,,,,,,,,,,,,,,,,,,,,,,,,,,left,0,40,30,70,2,2556.546734,2556.546734,2556.546734,None,None,4,0,0.9033848,,,,,,,,,,,,,,,,,,,,,,10,16,2,2024-10-31_15h37.34.255,uWM_experiment,2022.2.3,59.99325676
,,,,,,,,,,,,,,,,,,,,7,0,7,0,12,0,12,0,,,,,,,,,,,,,,,,,,,,,,,,,,,,,,,,,,,,,,,,,,,,,,,,,,,,,,,,,,,,,,,,,,,,,,0.072481857,,,,,,,,,,,,,,,,,,,,,,,,,,,,left,1,130,-30,100,1,2564.53045,2564.53045,2564.53045,None,None,1,1,1.0077356,,,,,,,,,,,,,,,,,,,,,,10,16,2,2024-10-31_15h37.34.255,uWM_experiment,2022.2.3,59.99325676
,,,,,,,,,,,,,,,,,,,,7,0,7,0,13,0,13,0,,,,,,,,,,,,,,,,,,,,,,,,,,,,,,,,,,,,,,,,,,,,,,,,,,,,,,,,,,,,,,,,,,,,,,0,,,,,,,,,,,,,,,,,,,,,,,,,,,,right,0,70,-30,40,0,2571.080747,2571.080747,2571.080747,None,None,1,1,0.2337377,,,,,,,,,,,,,,,,,,,,,,10,16,2,2024-10-31_15h37.34.255,uWM_experiment,2022.2.3,59.99325676
,,,,,,,,,,,,,,,,,,,,7,0,7,0,14,0,14,0,,,,,,,,,,,,,,,,,,,,,,,,,,,,,,,,,,,,,,,,,,,,,,,,,,,,,,,,,,,,,,,,,,,,,,0.082481857,,,,,,,,,,,,,,,,,,,,,,,,,,,,right,1,10,30,40,1,2576.947642,2576.947642,2576.947642,None,None,1,1,0.2305467,,,,,,,,,,,,,,,,,,,,,,10,16,2,2024-10-31_15h37.34.255,uWM_experiment,2022.2.3,59.99325676
,,,,,,,,,,,,,,,,,,,,7,0,7,0,15,0,15,0,,,,,,,,,,,,,,,,,,,,,,,,,,,,,,,,,,,,,,,,,,,,,,,,,,,,,,,,,,,,,,,,,,,,,,0.092481857,,,,,,,,,,,,,,,,,,,,,,,,,,,,right,0,100,-30,70,1,2582.78127,2582.78127,2582.78127,None,None,1,1,0.5809955,,,,,,,,,,,,,,,,,,,,,,10,16,2,2024-10-31_15h37.34.255,uWM_experiment,2022.2.3,59.99325676
,,,,,,,,,,,,,,,,,,,,7,0,7,0,16,0,16,0,,,,,,,,,,,,,,,,,,,,,,,,,,,,,,,,,,,,,,,,,,,,,,,,,,,,,,,,,,,,,,,,,,,,,,0.102481857,,,,,,,,,,,,,,,,,,,,,,,,,,,,left,1,10,-30,-20,1,2589.331552,2589.331552,2589.331552,None,None,1,1,0.7185705,,,,,,,,,,,,,,,,,,,,,,10,16,2,2024-10-31_15h37.34.255,uWM_experiment,2022.2.3,59.99325676
,,,,,,,,,,,,,,,,,,,,7,0,7,0,17,0,17,0,,,,,,,,,,,,,,,,,,,,,,,,,,,,,,,,,,,,,,,,,,,,,,,,,,,,,,,,,,,,,,,,,,,,,,0.112481857,,,,,,,,,,,,,,,,,,,,,,,,,,,,left,1,130,-30,100,1,2600.532079,2600.532079,2600.532079,None,None,2,0,1.0540538,,,,,,,,,,,,,,,,,,,,,,10,16,2,2024-10-31_15h37.34.255,uWM_experiment,2022.2.3,59.99325676
,,,,,,,,,,,,,,,,,,,,7,0,7,0,18,0,18,0,,,,,,,,,,,,,,,,,,,,,,,,,,,,,,,,,,,,,,,,,,,,,,,,,,,,,,,,,,,,,,,,,,,,,,0.1,,,,,,,,,,,,,,,,,,,,,,,,,,,,left,1,70,-30,40,2,2607.665721,2607.665721,2607.665721,None,None,4,0,0.6805073,,,,,,,,,,,,,,,,,,,,,,10,16,2,2024-10-31_15h37.34.255,uWM_experiment,2022.2.3,59.99325676
,,,,,,,,,,,,,,,,,,,,7,0,7,0,19,0,19,0,,,,,,,,,,,,,,,,,,,,,,,,,,,,,,,,,,,,,,,,,,,,,,,,,,,,,,,,,,,,,,,,,,,,,,0.102481857,,,,,,,,,,,,,,,,,,,,,,,,,,,,right,1,160,30,190,1,2614.282679,2614.282679,2614.282679,None,None,1,1,1.0796137,,,,,,,,,,,,,,,,,,,,,,10,16,2,2024-10-31_15h37.34.255,uWM_experiment,2022.2.3,59.99325676
,,,,,,,,,,,,,,,,,,,,7,0,7,0,20,0,20,0,,,,,,,,,,,,,,,,,,,,,,,,,,,,,,,,,,,,,,,,,,,,,,,,,,,,,,,,,,,,,,,,,,,,,,0,,,,,,,,,,,,,,,,,,,,,,,,,,,,right,0,70,-30,40,0,2621.933056,2621.933056,2621.933056,None,None,1,1,2.3491386,,,,,,,,,,,,,,,,,,,,,,10,16,2,2024-10-31_15h37.34.255,uWM_experiment,2022.2.3,59.99325676
,,,,,,,,,,,,,,,,,,,,7,0,7,0,21,0,21,0,,,,,,,,,,,,,,,,,,,,,,,,,,,,,,,,,,,,,,,,,,,,,,,,,,,,,,,,,,,,,,,,,,,,,,0.1,,,,,,,,,,,,,,,,,,,,,,,,,,,,right,1,40,30,70,2,2630.950117,2630.950117,2630.950117,None,None,4,0,0.9481262,,,,,,,,,,,,,,,,,,,,,,10,16,2,2024-10-31_15h37.34.255,uWM_experiment,2022.2.3,59.99325676
,,,,,,,,,,,,,,,,,,,,7,0,7,0,22,0,22,0,,,,,,,,,,,,,,,,,,,,,,,,,,,,,,,,,,,,,,,,,,,,,,,,,,,,,,,,,,,,,,,,,,,,,,0.112481857,,,,,,,,,,,,,,,,,,,,,,,,,,,,right,1,130,30,160,1,2638.133783,2638.133783,2638.133783,None,None,2,0,1.116597,,,,,,,,,,,,,,,,,,,,,,10,16,2,2024-10-31_15h37.34.255,uWM_experiment,2022.2.3,59.99325676
,,,,,,,,,,,,,,,,,,,,7,0,7,0,23,0,23,0,,,,,,,,,,,,,,,,,,,,,,,,,,,,,,,,,,,,,,,,,,,,,,,,,,,,,,,,,,,,,,,,,,,,,,0,,,,,,,,,,,,,,,,,,,,,,,,,,,,left,1,130,-30,100,0,2645.150756,2645.150756,2645.150756,None,None,1,1,0.4274674,,,,,,,,,,,,,,,,,,,,,,10,16,2,2024-10-31_15h37.34.255,uWM_experiment,2022.2.3,59.99325676
,,,,,,,,,,,,,,,,,,,,7,0,7,0,,,,,0,0,0,0,,,,,,,,,,,,,,,,,,,,,,,,,,,,,,,,,,,,,,,,,,,,,,,,,,,,,,,,,,,,,,,,,,,,,,,,,,,,,,,,,,,,,,,,,,,,,,,,,,,,,,,,,,,,2645.600763,2645.600763,space,42.0495183,None,None,,,,,,,,,,,,,,,,10,16,2,2024-10-31_15h37.34.255,uWM_experiment,2022.2.3,59.99325676
,,,,,,,,,,,,,,,,,,,,7,0,7,0,,,,,1,0,1,0,,,,,,,,,,,,,,,,,,,,,,,,,,,,,,,,,,,,,,,,,,,,,,,,,,,,,,,,,,,,,,,,,,,,,,,,,,,,,,,,,,,,,,,,,,,,,,,,,,,,,,,,,,,,,,,,,,,,,,,,,,,,,,,,,10,16,2,2024-10-31_15h37.34.255,uWM_experiment,2022.2.3,59.99325676
,,,,,,,,,,,,,,,,,,,,7,0,7,0,,,,,2,0,2,0,,,,,,,,,,,,,,,,,,,,,,,,,,,,,,,,,,,,,,,,,,,,,,,,,,,,,,,,,,,,,,,,,,,,,,,,,,,,,,,,,,,,,,,,,,,,,,,,,,,,,,,,,,,,,,,,,,,,,,,,,,,,,,,,,10,16,2,2024-10-31_15h37.34.255,uWM_experiment,2022.2.3,59.99325676
,,,,,,,,,,,,,,,,,,,,8,0,8,0,0,0,0,0,,,,,,,,,,,,,,,,,,,,,,,,,,,,,,,,,,,,,,,,,,,,,,,,,,,,,,,,,,,,,,,,,,,,,,0,,,,,,,,,,,,,,,,,,,,2687.669337,2688.369352,2688.669359,2689.369396,2689.669428,2690.369445,2690.369445,2690.686145,right,0,100,-30,70,0,2695.569696,2695.569696,2695.569696,None,None,1,1,0.1684799,,,,,,,None,,,,,,,,,,,,,,,10,16,2,2024-10-31_15h37.34.255,uWM_experiment,2022.2.3,59.99325676
,,,,,,,,,,,,,,,,,,,,8,0,8,0,1,0,1,0,,,,,,,,,,,,,,,,,,,,,,,,,,,,,,,,,,,,,,,,,,,,,,,,,,,,,,,,,,,,,,,,,,,,,,0.102481857,,,,,,,,,,,,,,,,,,,,,,,,,,,,right,1,160,30,190,1,2702.353352,2702.353352,2702.353352,None,None,2,0,0.7688823,,,,,,,,,,,,,,,,,,,,,,10,16,2,2024-10-31_15h37.34.255,uWM_experiment,2022.2.3,59.99325676
,,,,,,,,,,,,,,,,,,,,8,0,8,0,2,0,2,0,,,,,,,,,,,,,,,,,,,,,,,,,,,,,,,,,,,,,,,,,,,,,,,,,,,,,,,,,,,,,,,,,,,,,,0.092481857,,,,,,,,,,,,,,,,,,,,,,,,,,,,left,1,160,-30,130,1,2709.603673,2709.603673,2709.603673,None,None,2,0,3.8865229,,,,,,,,,,,,,,,,,,,,,,10,16,2,2024-10-31_15h37.34.255,uWM_experiment,2022.2.3,59.99325676
,,,,,,,,,,,,,,,,,,,,8,0,8,0,3,0,3,0,,,,,,,,,,,,,,,,,,,,,,,,,,,,,,,,,,,,,,,,,,,,,,,,,,,,,,,,,,,,,,,,,,,,,,0.082481857,,,,,,,,,,,,,,,,,,,,,,,,,,,,right,1,160,30,190,1,2720.437498,2720.437498,2720.437498,None,None,2,0,0.7968291,,,,,,,,,,,,,,,,,,,,,,10,16,2,2024-10-31_15h37.34.255,uWM_experiment,2022.2.3,59.99325676
,,,,,,,,,,,,,,,,,,,,8,0,8,0,4,0,4,0,,,,,,,,,,,,,,,,,,,,,,,,,,,,,,,,,,,,,,,,,,,,,,,,,,,,,,,,,,,,,,,,,,,,,,0.072481857,,,,,,,,,,,,,,,,,,,,,,,,,,,,right,0,40,-30,10,1,2727.754469,2727.754469,2727.754469,None,None,1,1,0.4238743,,,,,,,,,,,,,,,,,,,,,,10,16,2,2024-10-31_15h37.34.255,uWM_experiment,2022.2.3,59.99325676
,,,,,,,,,,,,,,,,,,,,8,0,8,0,5,0,5,0,,,,,,,,,,,,,,,,,,,,,,,,,,,,,,,,,,,,,,,,,,,,,,,,,,,,,,,,,,,,,,,,,,,,,,0.082481857,,,,,,,,,,,,,,,,,,,,,,,,,,,,right,0,70,-30,40,1,2734.68812,2734.68812,2734.68812,None,None,1,1,3.6021305,,,,,,,,,,,,,,,,,,,,,,10,16,2,2024-10-31_15h37.34.255,uWM_experiment,2022.2.3,59.99325676
,,,,,,,,,,,,,,,,,,,,8,0,8,0,6,0,6,0,,,,,,,,,,,,,,,,,,,,,,,,,,,,,,,,,,,,,,,,,,,,,,,,,,,,,,,,,,,,,,,,,,,,,,0.092481857,,,,,,,,,,,,,,,,,,,,,,,,,,,,right,1,160,30,190,1,2744.055232,2744.055232,2744.055232,None,None,1,1,5.0190366,,,,,,,,,,,,,,,,,,,,,,10,16,2,2024-10-31_15h37.34.255,uWM_experiment,2022.2.3,59.99325676
,,,,,,,,,,,,,,,,,,,,8,0,8,0,7,0,7,0,,,,,,,,,,,,,,,,,,,,,,,,,,,,,,,,,,,,,,,,,,,,,,,,,,,,,,,,,,,,,,,,,,,,,,0,,,,,,,,,,,,,,,,,,,,,,,,,,,,right,0,100,-30,70,0,2755.655741,2755.655741,2755.655741,None,None,1,1,1.3705233,,,,,,,,,,,,,,,,,,,,,,10,16,2,2024-10-31_15h37.34.255,uWM_experiment,2022.2.3,59.99325676
,,,,,,,,,,,,,,,,,,,,8,0,8,0,8,0,8,0,,,,,,,,,,,,,,,,,,,,,,,,,,,,,,,,,,,,,,,,,,,,,,,,,,,,,,,,,,,,,,,,,,,,,,0,,,,,,,,,,,,,,,,,,,,,,,,,,,,right,0,40,-30,10,0,2764.839491,2764.839491,2764.839491,None,None,1,1,0.5068018,,,,,,,,,,,,,,,,,,,,,,10,16,2,2024-10-31_15h37.34.255,uWM_experiment,2022.2.3,59.99325676
,,,,,,,,,,,,,,,,,,,,8,0,8,0,9,0,9,0,,,,,,,,,,,,,,,,,,,,,,,,,,,,,,,,,,,,,,,,,,,,,,,,,,,,,,,,,,,,,,,,,,,,,,0.1,,,,,,,,,,,,,,,,,,,,,,,,,,,,left,1,100,-30,70,2,2775.956637,2775.956637,2775.956637,None,None,4,0,2.5976746,,,,,,,,,,,,,,,,,,,,,,10,16,2,2024-10-31_15h37.34.255,uWM_experiment,2022.2.3,59.99325676
,,,,,,,,,,,,,,,,,,,,8,0,8,0,10,0,10,0,,,,,,,,,,,,,,,,,,,,,,,,,,,,,,,,,,,,,,,,,,,,,,,,,,,,,,,,,,,,,,,,,,,,,,0,,,,,,,,,,,,,,,,,,,,,,,,,,,,left,0,70,30,100,0,2784.440366,2784.440366,2784.440366,None,None,1,1,0.3779318,,,,,,,,,,,,,,,,,,,,,,10,16,2,2024-10-31_15h37.34.255,uWM_experiment,2022.2.3,59.99325676
,,,,,,,,,,,,,,,,,,,,8,0,8,0,11,0,11,0,,,,,,,,,,,,,,,,,,,,,,,,,,,,,,,,,,,,,,,,,,,,,,,,,,,,,,,,,,,,,,,,,,,,,,0,,,,,,,,,,,,,,,,,,,,,,,,,,,,left,1,160,-30,130,0,2791.307337,2791.307337,2791.307337,None,None,1,1,0.3028659,,,,,,,,,,,,,,,,,,,,,,10,16,2,2024-10-31_15h37.34.255,uWM_experiment,2022.2.3,59.99325676
,,,,,,,,,,,,,,,,,,,,8,0,8,0,12,0,12,0,,,,,,,,,,,,,,,,,,,,,,,,,,,,,,,,,,,,,,,,,,,,,,,,,,,,,,,,,,,,,,,,,,,,,,0.102481857,,,,,,,,,,,,,,,,,,,,,,,,,,,,right,1,10,30,40,1,2798.641007,2798.641007,2798.641007,None,None,2,0,1.4573098,,,,,,,,,,,,,,,,,,,,,,10,16,2,2024-10-31_15h37.34.255,uWM_experiment,2022.2.3,59.99325676
,,,,,,,,,,,,,,,,,,,,8,0,8,0,13,0,13,0,,,,,,,,,,,,,,,,,,,,,,,,,,,,,,,,,,,,,,,,,,,,,,,,,,,,,,,,,,,,,,,,,,,,,,0.092481857,,,,,,,,,,,,,,,,,,,,,,,,,,,,right,1,40,30,70,1,2805.958027,2805.958027,2805.958027,None,None,2,0,0.3482662,,,,,,,,,,,,,,,,,,,,,,10,16,2,2024-10-31_15h37.34.255,uWM_experiment,2022.2.3,59.99325676
,,,,,,,,,,,,,,,,,,,,8,0,8,0,14,0,14,0,,,,,,,,,,,,,,,,,,,,,,,,,,,,,,,,,,,,,,,,,,,,,,,,,,,,,,,,,,,,,,,,,,,,,,0.082481857,,,,,,,,,,,,,,,,,,,,,,,,,,,,left,0,130,30,160,1,2812.141637,2812.141637,2812.141637,None,None,1,1,0.1886337,,,,,,,,,,,,,,,,,,,,,,10,16,2,2024-10-31_15h37.34.255,uWM_experiment,2022.2.3,59.99325676
,,,,,,,,,,,,,,,,,,,,8,0,8,0,15,0,15,0,,,,,,,,,,,,,,,,,,,,,,,,,,,,,,,,,,,,,,,,,,,,,,,,,,,,,,,,,,,,,,,,,,,,,,0.092481857,,,,,,,,,,,,,,,,,,,,,,,,,,,,left,0,100,30,130,1,2817.825211,2817.825211,2817.825211,None,None,1,1,1.4091631,,,,,,,,,,,,,,,,,,,,,,10,16,2,2024-10-31_15h37.34.255,uWM_experiment,2022.2.3,59.99325676
,,,,,,,,,,,,,,,,,,,,8,0,8,0,16,0,16,0,,,,,,,,,,,,,,,,,,,,,,,,,,,,,,,,,,,,,,,,,,,,,,,,,,,,,,,,,,,,,,,,,,,,,,0.102481857,,,,,,,,,,,,,,,,,,,,,,,,,,,,right,0,70,-30,40,1,2824.925546,2824.925546,2824.925546,None,None,1,1,0.2047174,,,,,,,,,,,,,,,,,,,,,,10,16,2,2024-10-31_15h37.34.255,uWM_experiment,2022.2.3,59.99325676
,,,,,,,,,,,,,,,,,,,,8,0,8,0,17,0,17,0,,,,,,,,,,,,,,,,,,,,,,,,,,,,,,,,,,,,,,,,,,,,,,,,,,,,,,,,,,,,,,,,,,,,,,0.112481857,,,,,,,,,,,,,,,,,,,,,,,,,,,,left,0,40,30,70,1,2832.15919,2832.15919,2832.15919,None,None,2,0,1.5710589,,,,,,,,,,,,,,,,,,,,,,10,16,2,2024-10-31_15h37.34.255,uWM_experiment,2022.2.3,59.99325676
,,,,,,,,,,,,,,,,,,,,8,0,8,0,18,0,18,0,,,,,,,,,,,,,,,,,,,,,,,,,,,,,,,,,,,,,,,,,,,,,,,,,,,,,,,,,,,,,,,,,,,,,,0,,,,,,,,,,,,,,,,,,,,,,,,,,,,left,0,70,30,100,0,2840.192886,2840.192886,2840.192886,None,None,1,1,4.4174313,,,,,,,,,,,,,,,,,,,,,,10,16,2,2024-10-31_15h37.34.255,uWM_experiment,2022.2.3,59.99325676
,,,,,,,,,,,,,,,,,,,,8,0,8,0,19,0,19,0,,,,,,,,,,,,,,,,,,,,,,,,,,,,,,,,,,,,,,,,,,,,,,,,,,,,,,,,,,,,,,,,,,,,,,0.1,,,,,,,,,,,,,,,,,,,,,,,,,,,,left,1,40,-30,10,2,2851.293408,2851.293408,2851.293408,None,None,4,0,1.892957,,,,,,,,,,,,,,,,,,,,,,10,16,2,2024-10-31_15h37.34.255,uWM_experiment,2022.2.3,59.99325676
,,,,,,,,,,,,,,,,,,,,8,0,8,0,20,0,20,0,,,,,,,,,,,,,,,,,,,,,,,,,,,,,,,,,,,,,,,,,,,,,,,,,,,,,,,,,,,,,,,,,,,,,,0,,,,,,,,,,,,,,,,,,,,,,,,,,,,left,0,130,30,160,0,2860.127123,2860.127123,2860.127123,None,None,1,1,0.2592604,,,,,,,,,,,,,,,,,,,,,,10,16,2,2024-10-31_15h37.34.255,uWM_experiment,2022.2.3,59.99325676
,,,,,,,,,,,,,,,,,,,,8,0,8,0,21,0,21,0,,,,,,,,,,,,,,,,,,,,,,,,,,,,,,,,,,,,,,,,,,,,,,,,,,,,,,,,,,,,,,,,,,,,,,0.102481857,,,,,,,,,,,,,,,,,,,,,,,,,,,,left,0,130,30,160,1,2866.210731,2866.210731,2866.210731,None,None,1,1,3.3755939,,,,,,,,,,,,,,,,,,,,,,10,16,2,2024-10-31_15h37.34.255,uWM_experiment,2022.2.3,59.99325676
,,,,,,,,,,,,,,,,,,,,8,0,8,0,22,0,22,0,,,,,,,,,,,,,,,,,,,,,,,,,,,,,,,,,,,,,,,,,,,,,,,,,,,,,,,,,,,,,,,,,,,,,,0.112481857,,,,,,,,,,,,,,,,,,,,,,,,,,,,right,0,70,-30,40,1,2878.56129,2878.56129,2878.56129,None,None,2,0,3.4491516,,,,,,,,,,,,,,,,,,,,,,10,16,2,2024-10-31_15h37.34.255,uWM_experiment,2022.2.3,59.99325676
,,,,,,,,,,,,,,,,,,,,8,0,8,0,23,0,23,0,,,,,,,,,,,,,,,,,,,,,,,,,,,,,,,,,,,,,,,,,,,,,,,,,,,,,,,,,,,,,,,,,,,,,,0.102481857,,,,,,,,,,,,,,,,,,,,,,,,,,,,left,0,100,30,130,1,2887.945075,2887.945075,2887.945075,None,None,1,1,0.2172997,,,,,,,,,,,,,,,,,,,,,,10,16,2,2024-10-31_15h37.34.255,uWM_experiment,2022.2.3,59.99325676
,,,,,,,,,,,,,,,,,,,,8,0,8,0,,,,,0,0,0,0,,,,,,,,,,,,,,,,,,,,,,,,,,,,,,,,,,,,,,,,,,,,,,,,,,,,,,,,,,,,,,,,,,,,,,,,,,,,,,,,,,,,,,,,,,,,,,,,,,,,,,,,,,,,2888.195032,2888.195032,space,34.3114299,space,None,,2922.529937,2922.529937,7.0724822,,,,,,,,,,,,10,16,2,2024-10-31_15h37.34.255,uWM_experiment,2022.2.3,59.99325676
,,,,,,,,,,,,,,,,,,,,8,0,8,0,,,,,1,0,1,0,,,,,,,,,,,,,,,,,,,,,,,,,,,,,,,,,,,,,,,,,,,,,,,,,,,,,,,,,,,,,,,,,,,,,,,,,,,,,,,,,,,,,,,,,,,,,,,,,,,,,,,,,,,,,,,,,,,,,,,,,,,,,,,,,10,16,2,2024-10-31_15h37.34.255,uWM_experiment,2022.2.3,59.99325676
,,,,,,,,,,,,,,,,,,,,8,0,8,0,,,,,2,0,2,0,,,,,,,,,,,,,,,,,,,,,,,,,,,,,,,,,,,,,,,,,,,,,,,,,,,,,,,,,,,,,,,,,,,,,,,,,,,,,,,,,,,,,,,,,,,,,,,,,,,,,,,,,,,,,,,,,,,,,,,,,,,,,,,,,10,16,2,2024-10-31_15h37.34.255,uWM_experiment,2022.2.3,59.99325676
,,,,,,,,,,,,,,,,,,,,9,0,9,0,0,0,0,0,,,,,,,,,,,,,,,,,,,,,,,,,,,,,,,,,,,,,,,,,,,,,,,,,,,,,,,,,,,,,,,,,,,,,,0,,,,,,,,,,,,,,,,,,,,2929.630262,2930.33029,2930.630309,2931.330336,2931.630348,2932.330382,2932.330382,2932.647074,right,0,40,-30,10,0,2937.86399,2937.86399,2937.86399,None,None,1,1,0.330396,,,,,,,None,,,,,,,,,,,,,,,10,16,2,2024-10-31_15h37.34.255,uWM_experiment,2022.2.3,59.99325676
,,,,,,,,,,,,,,,,,,,,9,0,9,0,1,0,1,0,,,,,,,,,,,,,,,,,,,,,,,,,,,,,,,,,,,,,,,,,,,,,,,,,,,,,,,,,,,,,,,,,,,,,,0.112481857,,,,,,,,,,,,,,,,,,,,,,,,,,,,left,1,10,-30,-20,1,2944.247609,2944.247609,2944.247609,None,None,2,0,2.6026856,,,,,,,,,,,,,,,,,,,,,,10,16,2,2024-10-31_15h37.34.255,uWM_experiment,2022.2.3,59.99325676
,,,,,,,,,,,,,,,,,,,,9,0,9,0,2,0,2,0,,,,,,,,,,,,,,,,,,,,,,,,,,,,,,,,,,,,,,,,,,,,,,,,,,,,,,,,,,,,,,,,,,,,,,0,,,,,,,,,,,,,,,,,,,,,,,,,,,,right,1,160,30,190,0,2952.431317,2952.431317,2952.431317,None,None,2,0,1.1310573,,,,,,,,,,,,,,,,,,,,,,10,16,2,2024-10-31_15h37.34.255,uWM_experiment,2022.2.3,59.99325676
,,,,,,,,,,,,,,,,,,,,9,0,9,0,3,0,3,0,,,,,,,,,,,,,,,,,,,,,,,,,,,,,,,,,,,,,,,,,,,,,,,,,,,,,,,,,,,,,,,,,,,,,,0.102481857,,,,,,,,,,,,,,,,,,,,,,,,,,,,left,1,100,-30,70,1,2961.18168,2961.18168,2961.18168,None,None,2,0,0.4206537,,,,,,,,,,,,,,,,,,,,,,10,16,2,2024-10-31_15h37.34.255,uWM_experiment,2022.2.3,59.99325676
,,,,,,,,,,,,,,,,,,,,9,0,9,0,4,0,4,0,,,,,,,,,,,,,,,,,,,,,,,,,,,,,,,,,,,,,,,,,,,,,,,,,,,,,,,,,,,,,,,,,,,,,,0,,,,,,,,,,,,,,,,,,,,,,,,,,,,left,1,160,-30,130,0,2967.098653,2967.098653,2967.098653,None,None,1,1,0.2797461,,,,,,,,,,,,,,,,,,,,,,10,16,2,2024-10-31_15h37.34.255,uWM_experiment,2022.2.3,59.99325676
,,,,,,,,,,,,,,,,,,,,9,0,9,0,5,0,5,0,,,,,,,,,,,,,,,,,,,,,,,,,,,,,,,,,,,,,,,,,,,,,,,,,,,,,,,,,,,,,,,,,,,,,,0.092481857,,,,,,,,,,,,,,,,,,,,,,,,,,,,right,1,160,30,190,1,2974.098953,2974.098953,2974.098953,None,None,1,1,0.2954377,,,,,,,,,,,,,,,,,,,,,,10,16,2,2024-10-31_15h37.34.255,uWM_experiment,2022.2.3,59.99325676
,,,,,,,,,,,,,,,,,,,,9,0,9,0,6,0,6,0,,,,,,,,,,,,,,,,,,,,,,,,,,,,,,,,,,,,,,,,,,,,,,,,,,,,,,,,,,,,,,,,,,,,,,0.102481857,,,,,,,,,,,,,,,,,,,,,,,,,,,,left,1,100,-30,70,1,2983.899396,2983.899396,2983.899396,None,None,2,0,0.5190156,,,,,,,,,,,,,,,,,,,,,,10,16,2,2024-10-31_15h37.34.255,uWM_experiment,2022.2.3,59.99325676
,,,,,,,,,,,,,,,,,,,,9,0,9,0,7,0,7,0,,,,,,,,,,,,,,,,,,,,,,,,,,,,,,,,,,,,,,,,,,,,,,,,,,,,,,,,,,,,,,,,,,,,,,0.092481857,,,,,,,,,,,,,,,,,,,,,,,,,,,,left,1,10,-30,-20,1,2990.183017,2990.183017,2990.183017,None,None,1,1,1.4513672,,,,,,,,,,,,,,,,,,,,,,10,16,2,2024-10-31_15h37.34.255,uWM_experiment,2022.2.3,59.99325676
,,,,,,,,,,,,,,,,,,,,9,0,9,0,8,0,8,0,,,,,,,,,,,,,,,,,,,,,,,,,,,,,,,,,,,,,,,,,,,,,,,,,,,,,,,,,,,,,,,,,,,,,,0,,,,,,,,,,,,,,,,,,,,,,,,,,,,right,1,10,30,40,0,2998.333384,2998.333384,2998.333384,None,None,1,1,1.6610266,,,,,,,,,,,,,,,,,,,,,,10,16,2,2024-10-31_15h37.34.255,uWM_experiment,2022.2.3,59.99325676
,,,,,,,,,,,,,,,,,,,,9,0,9,0,9,0,9,0,,,,,,,,,,,,,,,,,,,,,,,,,,,,,,,,,,,,,,,,,,,,,,,,,,,,,,,,,,,,,,,,,,,,,,0.102481857,,,,,,,,,,,,,,,,,,,,,,,,,,,,right,1,160,30,190,1,3005.983744,3005.983744,3005.983744,None,None,1,1,2.3225795,,,,,,,,,,,,,,,,,,,,,,10,16,2,2024-10-31_15h37.34.255,uWM_experiment,2022.2.3,59.99325676
,,,,,,,,,,,,,,,,,,,,9,0,9,0,10,0,10,0,,,,,,,,,,,,,,,,,,,,,,,,,,,,,,,,,,,,,,,,,,,,,,,,,,,,,,,,,,,,,,,,,,,,,,0.112481857,,,,,,,,,,,,,,,,,,,,,,,,,,,,left,1,100,-30,70,1,3016.867549,3016.867549,3016.867549,None,None,2,0,1.5508571,,,,,,,,,,,,,,,,,,,,,,10,16,2,2024-10-31_15h37.34.255,uWM_experiment,2022.2.3,59.99325676
,,,,,,,,,,,,,,,,,,,,9,0,9,0,11,0,11,0,,,,,,,,,,,,,,,,,,,,,,,,,,,,,,,,,,,,,,,,,,,,,,,,,,,,,,,,,,,,,,,,,,,,,,0.102481857,,,,,,,,,,,,,,,,,,,,,,,,,,,,right,1,40,30,70,1,3024.634553,3024.634553,3024.634553,None,None,1,1,1.7999011,,,,,,,,,,,,,,,,,,,,,,10,16,2,2024-10-31_15h37.34.255,uWM_experiment,2022.2.3,59.99325676
,,,,,,,,,,,,,,,,,,,,9,0,9,0,12,0,12,0,,,,,,,,,,,,,,,,,,,,,,,,,,,,,,,,,,,,,,,,,,,,,,,,,,,,,,,,,,,,,,,,,,,,,,0.112481857,,,,,,,,,,,,,,,,,,,,,,,,,,,,right,1,100,30,130,1,3032.968286,3032.968286,3032.968286,None,None,3,0,2.9220719,,,,,,,,,,,,,,,,,,,,,,10,16,2,2024-10-31_15h37.34.255,uWM_experiment,2022.2.3,59.99325676
,,,,,,,,,,,,,,,,,,,,9,0,9,0,13,0,13,0,,,,,,,,,,,,,,,,,,,,,,,,,,,,,,,,,,,,,,,,,,,,,,,,,,,,,,,,,,,,,,,,,,,,,,0.102481857,,,,,,,,,,,,,,,,,,,,,,,,,,,,left,1,100,-30,70,1,3042.91871,3042.91871,3042.91871,None,None,2,0,0.3958062,,,,,,,,,,,,,,,,,,,,,,10,16,2,2024-10-31_15h37.34.255,uWM_experiment,2022.2.3,59.99325676
,,,,,,,,,,,,,,,,,,,,9,0,9,0,14,0,14,0,,,,,,,,,,,,,,,,,,,,,,,,,,,,,,,,,,,,,,,,,,,,,,,,,,,,,,,,,,,,,,,,,,,,,,0,,,,,,,,,,,,,,,,,,,,,,,,,,,,right,0,70,-30,40,0,3049.819027,3049.819027,3049.819027,None,None,1,1,1.9754352,,,,,,,,,,,,,,,,,,,,,,10,16,2,2024-10-31_15h37.34.255,uWM_experiment,2022.2.3,59.99325676
,,,,,,,,,,,,,,,,,,,,9,0,9,0,15,0,15,0,,,,,,,,,,,,,,,,,,,,,,,,,,,,,,,,,,,,,,,,,,,,,,,,,,,,,,,,,,,,,,,,,,,,,,0.092481857,,,,,,,,,,,,,,,,,,,,,,,,,,,,right,0,40,-30,10,1,3059.269455,3059.269455,3059.269455,None,None,1,1,1.8369711,,,,,,,,,,,,,,,,,,,,,,10,16,2,2024-10-31_15h37.34.255,uWM_experiment,2022.2.3,59.99325676
,,,,,,,,,,,,,,,,,,,,9,0,9,0,16,0,16,0,,,,,,,,,,,,,,,,,,,,,,,,,,,,,,,,,,,,,,,,,,,,,,,,,,,,,,,,,,,,,,,,,,,,,,0,,,,,,,,,,,,,,,,,,,,,,,,,,,,right,0,40,-30,10,0,3070.236619,3070.236619,3070.236619,None,None,1,1,1.0377748,,,,,,,,,,,,,,,,,,,,,,10,16,2,2024-10-31_15h37.34.255,uWM_experiment,2022.2.3,59.99325676
,,,,,,,,,,,,,,,,,,,,9,0,9,0,17,0,17,0,,,,,,,,,,,,,,,,,,,,,,,,,,,,,,,,,,,,,,,,,,,,,,,,,,,,,,,,,,,,,,,,,,,,,,0,,,,,,,,,,,,,,,,,,,,,,,,,,,,left,0,130,30,160,0,3078.120312,3078.120312,3078.120312,None,None,1,1,3.4181257,,,,,,,,,,,,,,,,,,,,,,10,16,2,2024-10-31_15h37.34.255,uWM_experiment,2022.2.3,59.99325676
,,,,,,,,,,,,,,,,,,,,9,0,9,0,18,0,18,0,,,,,,,,,,,,,,,,,,,,,,,,,,,,,,,,,,,,,,,,,,,,,,,,,,,,,,,,,,,,,,,,,,,,,,0.102481857,,,,,,,,,,,,,,,,,,,,,,,,,,,,left,1,130,-30,100,1,3087.270733,3087.270733,3087.270733,None,None,1,1,0.923783,,,,,,,,,,,,,,,,,,,,,,10,16,2,2024-10-31_15h37.34.255,uWM_experiment,2022.2.3,59.99325676
,,,,,,,,,,,,,,,,,,,,9,0,9,0,19,0,19,0,,,,,,,,,,,,,,,,,,,,,,,,,,,,,,,,,,,,,,,,,,,,,,,,,,,,,,,,,,,,,,,,,,,,,,0.112481857,,,,,,,,,,,,,,,,,,,,,,,,,,,,right,1,40,30,70,1,3096.987852,3096.987852,3096.987852,None,None,1,1,4.8545778,,,,,,,,,,,,,,,,,,,,,,10,16,2,2024-10-31_15h37.34.255,uWM_experiment,2022.2.3,59.99325676
,,,,,,,,,,,,,,,,,,,,9,0,9,0,20,0,20,0,,,,,,,,,,,,,,,,,,,,,,,,,,,,,,,,,,,,,,,,,,,,,,,,,,,,,,,,,,,,,,,,,,,,,,0.122481857,,,,,,,,,,,,,,,,,,,,,,,,,,,,right,0,130,-30,100,1,3110.755131,3110.755131,3110.755131,None,None,3,0,1.455273,,,,,,,,,,,,,,,,,,,,,,10,16,2,2024-10-31_15h37.34.255,uWM_experiment,2022.2.3,59.99325676
,,,,,,,,,,,,,,,,,,,,9,0,9,0,21,0,21,0,,,,,,,,,,,,,,,,,,,,,,,,,,,,,,,,,,,,,,,,,,,,,,,,,,,,,,,,,,,,,,,,,,,,,,0.112481857,,,,,,,,,,,,,,,,,,,,,,,,,,,,right,1,70,30,100,1,3121.888971,3121.888971,3121.888971,None,None,2,0,0.6815131,,,,,,,,,,,,,,,,,,,,,,10,16,2,2024-10-31_15h37.34.255,uWM_experiment,2022.2.3,59.99325676
,,,,,,,,,,,,,,,,,,,,9,0,9,0,22,0,22,0,,,,,,,,,,,,,,,,,,,,,,,,,,,,,,,,,,,,,,,,,,,,,,,,,,,,,,,,,,,,,,,,,,,,,,0.102481857,,,,,,,,,,,,,,,,,,,,,,,,,,,,right,1,10,30,40,1,3129.939342,3129.939342,3129.939342,None,None,1,1,1.023238,,,,,,,,,,,,,,,,,,,,,,10,16,2,2024-10-31_15h37.34.255,uWM_experiment,2022.2.3,59.99325676
,,,,,,,,,,,,,,,,,,,,9,0,9,0,23,0,23,0,,,,,,,,,,,,,,,,,,,,,,,,,,,,,,,,,,,,,,,,,,,,,,,,,,,,,,,,,,,,,,,,,,,,,,0.112481857,,,,,,,,,,,,,,,,,,,,,,,,,,,,left,0,70,30,100,1,3137.272998,3137.272998,3137.272998,None,None,1,1,10.2735384,,,,,,,,,,,,,,,,,,,,,,10,16,2,2024-10-31_15h37.34.255,uWM_experiment,2022.2.3,59.99325676
,,,,,,,,,,,,,,,,,,,,9,0,9,0,,,,,0,0,0,0,,,,,,,,,,,,,,,,,,,,,,,,,,,,,,,,,,,,,,,,,,,,,,,,,,,,,,,,,,,,,,,,,,,,,,,,,,,,,,,,,,,,,,,,,,,,,,,,,,,,,,,,,,,,3147.573434,3147.573434,space,54.7571692,None,None,,,,,,,,,,,,,,,,10,16,2,2024-10-31_15h37.34.255,uWM_experiment,2022.2.3,59.99325676
,,,,,,,,,,,,,,,,,,,,9,0,9,0,,,,,1,0,1,0,,,,,,,,,,,,,,,,,,,,,,,,,,,,,,,,,,,,,,,,,,,,,,,,,,,,,,,,,,,,,,,,,,,,,,,,,,,,,,,,,,,,,,,,,,,,,,,,,,,,,,,,,,,,,,,,,,,,,,,,,,,,,,,,,10,16,2,2024-10-31_15h37.34.255,uWM_experiment,2022.2.3,59.99325676
,,,,,,,,,,,,,,,,,,,,9,0,9,0,,,,,2,0,2,0,,,,,,,,,,,,,,,,,,,,,,,,,,,,,,,,,,,,,,,,,,,,,,,,,,,,,,,,,,,,,,,,,,,,,,,,,,,,,,,,,,,,,,,,,,,,,,,,,,,,,,,,,,,,,,,,,,,,,,,,,,,,,,,,,10,16,2,2024-10-31_15h37.34.255,uWM_experiment,2022.2.3,59.99325676
,,,,,,,,,,,,,,,,,,,,10,0,10,0,0,0,0,0,,,,,,,,,,,,,,,,,,,,,,,,,,,,,,,,,,,,,,,,,,,,,,,,,,,,,,,,,,,,,,,,,,,,,,0.122481857,,,,,,,,,,,,,,,,,,,,3202.359254,3203.059289,3203.359314,3204.059332,3204.359345,3205.05939,3205.05939,3205.376064,left,1,160,-30,130,1,3209.892935,3209.892935,3209.892935,None,None,1,1,0.5337077,,,,,,,None,,,,,,,,,,,,,,,10,16,2,2024-10-31_15h37.34.255,uWM_experiment,2022.2.3,59.99325676
,,,,,,,,,,,,,,,,,,,,10,0,10,0,1,0,1,0,,,,,,,,,,,,,,,,,,,,,,,,,,,,,,,,,,,,,,,,,,,,,,,,,,,,,,,,,,,,,,,,,,,,,,0,,,,,,,,,,,,,,,,,,,,,,,,,,,,left,0,70,30,100,0,3215.8932,3215.8932,3215.8932,None,None,1,1,0.2533069,,,,,,,,,,,,,,,,,,,,,,10,16,2,2024-10-31_15h37.34.255,uWM_experiment,2022.2.3,59.99325676
,,,,,,,,,,,,,,,,,,,,10,0,10,0,2,0,2,0,,,,,,,,,,,,,,,,,,,,,,,,,,,,,,,,,,,,,,,,,,,,,,,,,,,,,,,,,,,,,,,,,,,,,,0,,,,,,,,,,,,,,,,,,,,,,,,,,,,left,1,10,-30,-20,0,3221.826825,3221.826825,3221.826825,None,None,1,1,0.8237037,,,,,,,,,,,,,,,,,,,,,,10,16,2,2024-10-31_15h37.34.255,uWM_experiment,2022.2.3,59.99325676
,,,,,,,,,,,,,,,,,,,,10,0,10,0,3,0,3,0,,,,,,,,,,,,,,,,,,,,,,,,,,,,,,,,,,,,,,,,,,,,,,,,,,,,,,,,,,,,,,,,,,,,,,0.132481857,,,,,,,,,,,,,,,,,,,,,,,,,,,,right,0,160,-30,130,1,3232.760644,3232.760644,3232.760644,None,None,3,0,4.1378616,,,,,,,,,,,,,,,,,,,,,,10,16,2,2024-10-31_15h37.34.255,uWM_experiment,2022.2.3,59.99325676
,,,,,,,,,,,,,,,,,,,,10,0,10,0,4,0,4,0,,,,,,,,,,,,,,,,,,,,,,,,,,,,,,,,,,,,,,,,,,,,,,,,,,,,,,,,,,,,,,,,,,,,,,0.122481857,,,,,,,,,,,,,,,,,,,,,,,,,,,,left,1,130,-30,100,1,3243.461124,3243.461124,3243.461124,None,None,2,0,0.2774807,,,,,,,,,,,,,,,,,,,,,,10,16,2,2024-10-31_15h37.34.255,uWM_experiment,2022.2.3,59.99325676
,,,,,,,,,,,,,,,,,,,,10,0,10,0,5,0,5,0,,,,,,,,,,,,,,,,,,,,,,,,,,,,,,,,,,,,,,,,,,,,,,,,,,,,,,,,,,,,,,,,,,,,,,0,,,,,,,,,,,,,,,,,,,,,,,,,,,,left,1,130,-30,100,0,3250.528117,3250.528117,3250.528117,None,None,1,1,0.3704082,,,,,,,,,,,,,,,,,,,,,,10,16,2,2024-10-31_15h37.34.255,uWM_experiment,2022.2.3,59.99325676
,,,,,,,,,,,,,,,,,,,,10,0,10,0,6,0,6,0,,,,,,,,,,,,,,,,,,,,,,,,,,,,,,,,,,,,,,,,,,,,,,,,,,,,,,,,,,,,,,,,,,,,,,0.112481857,,,,,,,,,,,,,,,,,,,,,,,,,,,,right,1,10,30,40,1,3256.945086,3256.945086,3256.945086,None,None,3,0,5.4174207,,,,,,,,,,,,,,,,,,,,,,10,16,2,2024-10-31_15h37.34.255,uWM_experiment,2022.2.3,59.99325676
,,,,,,,,,,,,,,,,,,,,10,0,10,0,7,0,7,0,,,,,,,,,,,,,,,,,,,,,,,,,,,,,,,,,,,,,,,,,,,,,,,,,,,,,,,,,,,,,,,,,,,,,,0,,,,,,,,,,,,,,,,,,,,,,,,,,,,left,1,10,-30,-20,0,3268.92894,3268.92894,3268.92894,None,None,1,1,0.4976378,,,,,,,,,,,,,,,,,,,,,,10,16,2,2024-10-31_15h37.34.255,uWM_experiment,2022.2.3,59.99325676
,,,,,,,,,,,,,,,,,,,,10,0,10,0,8,0,8,0,,,,,,,,,,,,,,,,,,,,,,,,,,,,,,,,,,,,,,,,,,,,,,,,,,,,,,,,,,,,,,,,,,,,,,0,,,,,,,,,,,,,,,,,,,,,,,,,,,,right,0,70,-30,40,0,3275.112553,3275.112553,3275.112553,None,None,1,1,0.8900114,,,,,,,,,,,,,,,,,,,,,,10,16,2,2024-10-31_15h37.34.255,uWM_experiment,2022.2.3,59.99325676
,,,,,,,,,,,,,,,,,,,,10,0,10,0,9,0,9,0,,,,,,,,,,,,,,,,,,,,,,,,,,,,,,,,,,,,,,,,,,,,,,,,,,,,,,,,,,,,,,,,,,,,,,0.102481857,,,,,,,,,,,,,,,,,,,,,,,,,,,,left,1,100,-30,70,1,3284.612997,3284.612997,3284.612997,None,None,2,0,1.5416581,,,,,,,,,,,,,,,,,,,,,,10,16,2,2024-10-31_15h37.34.255,uWM_experiment,2022.2.3,59.99325676
,,,,,,,,,,,,,,,,,,,,10,0,10,0,10,0,10,0,,,,,,,,,,,,,,,,,,,,,,,,,,,,,,,,,,,,,,,,,,,,,,,,,,,,,,,,,,,,,,,,,,,,,,0.092481857,,,,,,,,,,,,,,,,,,,,,,,,,,,,right,1,70,30,100,1,3293.763411,3293.763411,3293.763411,None,None,2,0,0.9911889,,,,,,,,,,,,,,,,,,,,,,10,16,2,2024-10-31_15h37.34.255,uWM_experiment,2022.2.3,59.99325676
,,,,,,,,,,,,,,,,,,,,10,0,10,0,11,0,11,0,,,,,,,,,,,,,,,,,,,,,,,,,,,,,,,,,,,,,,,,,,,,,,,,,,,,,,,,,,,,,,,,,,,,,,0.082481857,,,,,,,,,,,,,,,,,,,,,,,,,,,,right,1,160,30,190,1,3302.380465,3302.380465,3302.380465,None,None,2,0,3.6380875,,,,,,,,,,,,,,,,,,,,,,10,16,2,2024-10-31_15h37.34.255,uWM_experiment,2022.2.3,59.99325676
,,,,,,,,,,,,,,,,,,,,10,0,10,0,12,0,12,0,,,,,,,,,,,,,,,,,,,,,,,,,,,,,,,,,,,,,,,,,,,,,,,,,,,,,,,,,,,,,,,,,,,,,,0,,,,,,,,,,,,,,,,,,,,,,,,,,,,right,1,40,30,70,0,3311.980898,3311.980898,3311.980898,None,None,1,1,0.2856262,,,,,,,,,,,,,,,,,,,,,,10,16,2,2024-10-31_15h37.34.255,uWM_experiment,2022.2.3,59.99325676
,,,,,,,,,,,,,,,,,,,,10,0,10,0,13,0,13,0,,,,,,,,,,,,,,,,,,,,,,,,,,,,,,,,,,,,,,,,,,,,,,,,,,,,,,,,,,,,,,,,,,,,,,0.072481857,,,,,,,,,,,,,,,,,,,,,,,,,,,,left,1,130,-30,100,1,3321.181317,3321.181317,3321.181317,None,None,2,0,0.4212382,,,,,,,,,,,,,,,,,,,,,,10,16,2,2024-10-31_15h37.34.255,uWM_experiment,2022.2.3,59.99325676
,,,,,,,,,,,,,,,,,,,,10,0,10,0,14,0,14,0,,,,,,,,,,,,,,,,,,,,,,,,,,,,,,,,,,,,,,,,,,,,,,,,,,,,,,,,,,,,,,,,,,,,,,0.062481857,,,,,,,,,,,,,,,,,,,,,,,,,,,,left,1,10,-30,-20,1,3327.231571,3327.231571,3327.231571,None,None,1,1,5.6349642,,,,,,,,,,,,,,,,,,,,,,10,16,2,2024-10-31_15h37.34.255,uWM_experiment,2022.2.3,59.99325676
