PreTrainingPAS4_loop.thisRepN,PreTrainingPAS4_loop.thisTrialN,PreTrainingPAS4_loop.thisN,PreTrainingPAS4_loop.thisIndex,PreTrainingPAS1_loop.thisRepN,PreTrainingPAS1_loop.thisTrialN,PreTrainingPAS1_loop.thisN,PreTrainingPAS1_loop.thisIndex,RepeatCV_loop.thisRepN,RepeatCV_loop.thisTrialN,RepeatCV_loop.thisN,RepeatCV_loop.thisIndex,TrainingCV_loop.thisRepN,TrainingCV_loop.thisTrialN,TrainingCV_loop.thisN,TrainingCV_loop.thisIndex,TrainingCAL_loop.thisRepN,TrainingCAL_loop.thisTrialN,TrainingCAL_loop.thisN,TrainingCAL_loop.thisIndex,blocks_loop.thisRepN,blocks_loop.thisTrialN,blocks_loop.thisN,blocks_loop.thisIndex,trials_loop.thisRepN,trials_loop.thisTrialN,trials_loop.thisN,trials_loop.thisIndex,TrainingPAS1_loop.thisRepN,TrainingPAS1_loop.thisTrialN,TrainingPAS1_loop.thisN,TrainingPAS1_loop.thisIndex,spacebarWelcome0.started,spacebarWelcome0.keys,spacebarWelcome0.rt,spacebarWelcome1.started,gaborWelcome1.started,maskWelcome1.started,textMaskWelcome1.started,spacebarWelcome1.keys,spacebarWelcome1.rt,spacebarWelcome2.started,spacebarWelcome2.keys,spacebarWelcome2.rt,textInst_PreTrainingPAS4.started,spacebarPreTrainingPAS4.started,spacebarPreTrainingPAS4.keys,spacebarPreTrainingPAS4.rt,textPreTrainingPAS1.started,spacebarPreTrainingPAS1.started,spacebarPreTrainingPAS1.keys,spacebarPreTrainingPAS1.rt,textQUEST0.started,spacebarQUEST0.started,spacebarQUEST0.keys,spacebarQUEST0.rt,spacebar0.started,spacebar0.keys,spacebar0.rt,spacebar1.started,spacebar1.keys,spacebar1.rt,textInstructions2.started,spacebar2.started,Gabor1Inst2.started,Gabor2Inst2.started,Gabor3Inst2.started,Gabor4Inst2.started,spacebar2.keys,spacebar2.rt,textInstructionsPAS.started,spacebarInstPAS.started,spacebarInstPAS.keys,spacebarInstPAS.rt,textInstructions3.started,spacebar3.started,spacebar3.keys,spacebar3.rt,WMresp_CV,WMresp_CV_acc,oriMemo_CV,gyre_CV,oriTest_CV,feedbackText.started,sliderCV.started,PAStextCV.started,PASkeyCV.started,sliderCV.response,sliderCV.rt,PASkeyCV.keys,PASkeyCV.corr,PASkeyCV.rt,feedbackText.stopped,TextInstructionsCAL.started,spacebarCAL.started,spacebarCAL.keys,spacebarCAL.rt,contrast,WMresp_CAL,WMresp_CAL_acc,oriMemo_CAL,gyre_CAL,oriTest_CAL,cue_CAL,sliderCAL.started,PAStextCAL.started,PASkeyCAL.started,sliderCAL.response,sliderCAL.rt,PASkeyCAL.keys,PASkeyCAL.corr,PASkeyCAL.rt,propUnseen_CAL,textStart.started,spacebar4.started,spacebar4.keys,spacebar4.rt,three.started,three.stopped,two.started,two.stopped,one.started,one.stopped,blank_countdown.started,blank_countdown.stopped,WMresp,WMresp_acc,oriMemo,gyre,oriTest,cue,slider.started,textPAS_firstGabor.started,PASkey.started,slider.response,slider.rt,PASkey.keys,PASkey.corr,PASkey.rt,spacebarContinue.started,textBreak.started,spacebarContinue.keys,spacebarContinue.rt,spacebar_reminder.keys,spacebar_TrainingPAS1.keys,spacebar_endpractice.keys,spacebar_reminder.started,textReminder.started,spacebar_reminder.rt,textInst_TrainingPAS1.started,spacebar_TrainingPAS1.started,spacebar_TrainingPAS1.rt,textend_practicePAS1.started,spacebar_endpractice.started,spacebar_endpractice.rt,textThanks.started,textThanks.stopped,laboratory,participant,session,date,expName,psychopyVersion,frameRate
,,,,,,,,,,,,,,,,,,,,,,,,,,,,,,,,1021.657308,space,4.4585776,,,,,,,,,,,,,,,,,,,,,,,,,,,,,,,,,,,,,,,,,,,,,,,,,,,,,,,,,,,,,,,,,,,,,,,,,,,,,,,,,,,,,,,,,,,,,,,,,,,,,,,,,,,,,,,,,,,,,,,,,,,10,16,1,2024-10-30_14h59.33.231,uWM_experiment,2022.2.3,59.99887202
,,,,,,,,,,,,,,,,,,,,,,,,,,,,,,,,,,,1026.157249,1026.157249,1026.157249,1026.157249,space,21.5025703,,,,,,,,,,,,,,,,,,,,,,,,,,,,,,,,,,,,,,,,,,,,,,,,,,,,,,,,,,,,,,,,,,,,,,,,,,,,,,,,,,,,,,,,,,,,,,,,,,,,,,,,,,,,,,,,,,,,,10,16,1,2024-10-30_14h59.33.231,uWM_experiment,2022.2.3,59.99887202
,,,,,,,,,,,,,,,,,,,,,,,,,,,,,,,,,,,,,,,,,1047.691534,space,53.0084375,,,,,,,,,,,,,,,,,,,,,,,,,,,,,,,,,,,,,,,,,,,,,,,,,,,,,,,,,,,,,,,,,,,,,,,,,,,,,,,,,,,,,,,,,,,,,,,,,,,,,,,,,,,,,,,,,,10,16,1,2024-10-30_14h59.33.231,uWM_experiment,2022.2.3,59.99887202
,,,,,,,,,,,,,,,,,,,,,,,,,,,,,,,,,,,,,,,,,,,,1100.727229,1100.727229,space,50.2927498,,,,,,,,,,,,,,,,,,,,,,,,,,,,,,,,,,,,,,,,,,,,,,,,,,,,,,,,,,,,,,,,,,,,,,,,,,,,,,,,,,,,,,,,,,,,,,,,,,,,,,,,,,,,,,10,16,1,2024-10-30_14h59.33.231,uWM_experiment,2022.2.3,59.99887202
0,0,0,0,,,,,,,,,,,,,,,,,,,,,,,,,,,,,,,,,,,,,,,,,,,,,,,,,,,,,,,,,,,,,,,,,,,,,,,,,,,,,,,,,,,,,,,,,,,,,,,,,,,,,,,,,,,,,,,,,,,,,,,,,,,,,,,,,,,,,,,,,,,,,,,,,,,,,,,,,,10,16,1,2024-10-30_14h59.33.231,uWM_experiment,2022.2.3,59.99887202
1,0,1,0,,,,,,,,,,,,,,,,,,,,,,,,,,,,,,,,,,,,,,,,,,,,,,,,,,,,,,,,,,,,,,,,,,,,,,,,,,,,,,,,,,,,,,,,,,,,,,,,,,,,,,,,,,,,,,,,,,,,,,,,,,,,,,,,,,,,,,,,,,,,,,,,,,,,,,,,,,10,16,1,2024-10-30_14h59.33.231,uWM_experiment,2022.2.3,59.99887202
2,0,2,0,,,,,,,,,,,,,,,,,,,,,,,,,,,,,,,,,,,,,,,,,,,,,,,,,,,,,,,,,,,,,,,,,,,,,,,,,,,,,,,,,,,,,,,,,,,,,,,,,,,,,,,,,,,,,,,,,,,,,,,,,,,,,,,,,,,,,,,,,,,,,,,,,,,,,,,,,,10,16,1,2024-10-30_14h59.33.231,uWM_experiment,2022.2.3,59.99887202
,,,,,,,,,,,,,,,,,,,,,,,,,,,,,,,,,,,,,,,,,,,,,,,,1165.046779,1165.046779,space,52.8932305,,,,,,,,,,,,,,,,,,,,,,,,,,,,,,,,,,,,,,,,,,,,,,,,,,,,,,,,,,,,,,,,,,,,,,,,,,,,,,,,,,,,,,,,,,,,,,,,,,,,,,,,,,10,16,1,2024-10-30_14h59.33.231,uWM_experiment,2022.2.3,59.99887202
,,,,0,0,0,0,,,,,,,,,,,,,,,,,,,,,,,,,,,,,,,,,,,,,,,,,,,,,,,,,,,,,,,,,,,,,,,,,,,,,,,,,,,,,,,,,,,,,,,,,,,,,,,,,,,,,,,,,,,,,,,,,,,,,,,,,,,,,,,,,,,,,,,,,,,,,,,,,,,,,,10,16,1,2024-10-30_14h59.33.231,uWM_experiment,2022.2.3,59.99887202
,,,,1,0,1,0,,,,,,,,,,,,,,,,,,,,,,,,,,,,,,,,,,,,,,,,,,,,,,,,,,,,,,,,,,,,,,,,,,,,,,,,,,,,,,,,,,,,,,,,,,,,,,,,,,,,,,,,,,,,,,,,,,,,,,,,,,,,,,,,,,,,,,,,,,,,,,,,,,,,,,10,16,1,2024-10-30_14h59.33.231,uWM_experiment,2022.2.3,59.99887202
,,,,2,0,2,0,,,,,,,,,,,,,,,,,,,,,,,,,,,,,,,,,,,,,,,,,,,,,,,,,,,,,,,,,,,,,,,,,,,,,,,,,,,,,,,,,,,,,,,,,,,,,,,,,,,,,,,,,,,,,,,,,,,,,,,,,,,,,,,,,,,,,,,,,,,,,,,,,,,,,,10,16,1,2024-10-30_14h59.33.231,uWM_experiment,2022.2.3,59.99887202
,,,,,,,,,,,,,,,,,,,,,,,,,,,,,,,,,,,,,,,,,,,,,,,,,,,,1228.19961,1228.19961,space,23.0284292,,,,,,,,,,,,,,,,,,,,,,,,,,,,,,,,,,,,,,,,,,,,,,,,,,,,,,,,,,,,,,,,,,,,,,,,,,,,,,,,,,,,,,,,,,,,,,,,,,,,,,10,16,1,2024-10-30_14h59.33.231,uWM_experiment,2022.2.3,59.99887202
,,,,,,,,,,,,,,,,,,,,,,,,,,,,,,,,,,,,,,,,,,,,,,,,,,,,,,,,1436.708967,space,39.8232086,,,,,,,,,,,,,,,,,,,,,,,,,,,,,,,,,,,,,,,,,,,,,,,,,,,,,,,,,,,,,,,,,,,,,,,,,,,,,,,,,,,,,,,,,,,,,,,,,,,10,16,1,2024-10-30_14h59.33.231,uWM_experiment,2022.2.3,59.99887202
,,,,,,,,,,,,,,,,,,,,,,,,,,,,,,,,,,,,,,,,,,,,,,,,,,,,,,,,,,,1476.560751,space,136.2433862,,,,,,,,,,,,,,,,,,,,,,,,,,,,,,,,,,,,,,,,,,,,,,,,,,,,,,,,,,,,,,,,,,,,,,,,,,,,,,,,,,,,,,,,,,,,,,,,10,16,1,2024-10-30_14h59.33.231,uWM_experiment,2022.2.3,59.99887202
,,,,,,,,,,,,,,,,,,,,,,,,,,,,,,,,,,,,,,,,,,,,,,,,,,,,,,,,,,,,,,1612.833536,1612.833536,1612.833536,1612.833536,1612.833536,1612.833536,space,30.1225884,,,,,,,,,,,,,,,,,,,,,,,,,,,,,,,,,,,,,,,,,,,,,,,,,,,,,,,,,,,,,,,,,,,,,,,,,,,,,,,,,,,,,,,,10,16,1,2024-10-30_14h59.33.231,uWM_experiment,2022.2.3,59.99887202
,,,,,,,,,,,,,,,,,,,,,,,,,,,,,,,,,,,,,,,,,,,,,,,,,,,,,,,,,,,,,,,,,,,,,,1642.984881,1642.984881,space,36.5313307,,,,,,,,,,,,,,,,,,,,,,,,,,,,,,,,,,,,,,,,,,,,,,,,,,,,,,,,,,,,,,,,,,,,,,,,,,,,,,,,,,,,10,16,1,2024-10-30_14h59.33.231,uWM_experiment,2022.2.3,59.99887202
,,,,,,,,,,,,,,,,,,,,,,,,,,,,,,,,,,,,,,,,,,,,,,,,,,,,,,,,,,,,,,,,,,,,,,,,,,1679.536526,1679.536526,space,27.3957657,,,,,,,,,,,,,,,,,,,,,,,,,,,,,,,,,,,,,,,,,,,,,,,,,,,,,,,,,,,,,,,,,,,,,,,,,,,,,,,,10,16,1,2024-10-30_14h59.33.231,uWM_experiment,2022.2.3,59.99887202
,,,,,,,,0,0,0,0,0,0,0,0,,,,,,,,,,,,,,,,,,,,,,,,,,,,,,,,,,,,,,,,,,,,,,,,,,,,,,,,,,,,,,,left,0,70,30,100,1721.821774,1722.821797,1722.821797,1722.821797,None,None,2,0,7.2303997,,,,,,,,,,,,,,,,,,,,,,,,,,,,,,,,,,,,,,,,,,,,,,,,,,,,,,,,,,,,,,,,,,10,16,1,2024-10-30_14h59.33.231,uWM_experiment,2022.2.3,59.99887202
,,,,,,,,0,0,0,0,1,0,1,0,,,,,,,,,,,,,,,,,,,,,,,,,,,,,,,,,,,,,,,,,,,,,,,,,,,,,,,,,,,,,,,left,1,70,-30,40,1737.772482,1738.772511,1738.772511,1738.772511,None,None,4,0,4.0238058,1738.772511,,,,,,,,,,,,,,,,,,,,,,,,,,,,,,,,,,,,,,,,,,,,,,,,,,,,,,,,,,,,,,,,,10,16,1,2024-10-30_14h59.33.231,uWM_experiment,2022.2.3,59.99887202
,,,,,,,,0,0,0,0,2,0,2,0,,,,,,,,,,,,,,,,,,,,,,,,,,,,,,,,,,,,,,,,,,,,,,,,,,,,,,,,,,,,,,,left,1,10,-30,-20,1749.223004,1750.223049,1750.223049,1750.223049,None,None,4,0,0.9892323,,,,,,,,,,,,,,,,,,,,,,,,,,,,,,,,,,,,,,,,,,,,,,,,,,,,,,,,,,,,,,,,,,10,16,1,2024-10-30_14h59.33.231,uWM_experiment,2022.2.3,59.99887202
,,,,,,,,0,0,0,0,3,0,3,0,,,,,,,,,,,,,,,,,,,,,,,,,,,,,,,,,,,,,,,,,,,,,,,,,,,,,,,,,,,,,,,right,1,10,30,40,1757.340039,1758.340058,1758.340058,1758.340058,None,None,4,0,1.5520864,1758.340058,,,,,,,,,,,,,,,,,,,,,,,,,,,,,,,,,,,,,,,,,,,,,,,,,,,,,,,,,,,,,,,,,10,16,1,2024-10-30_14h59.33.231,uWM_experiment,2022.2.3,59.99887202
,,,,,,,,0,0,0,0,4,0,4,0,,,,,,,,,,,,,,,,,,,,,,,,,,,,,,,,,,,,,,,,,,,,,,,,,,,,,,,,,,,,,,,right,0,100,-30,70,1766.057087,1767.057119,1767.057119,1767.057119,None,None,4,0,95.5311462,,,,,,,,,,,,,,,,,,,,,,,,,,,,,,,,,,,,,,,,,,,,,,,,,,,,,,,,,,,,,,,,,,10,16,1,2024-10-30_14h59.33.231,uWM_experiment,2022.2.3,59.99887202
,,,,,,,,0,0,0,0,5,0,5,0,,,,,,,,,,,,,,,,,,,,,,,,,,,,,,,,,,,,,,,,,,,,,,,,,,,,,,,,,,,,,,,left,1,40,-30,10,1868.828364,1869.828399,1869.828399,1869.828399,None,None,4,0,0.5919203,1869.828399,,,,,,,,,,,,,,,,,,,,,,,,,,,,,,,,,,,,,,,,,,,,,,,,,,,,,,,,,,,,,,,,,10,16,1,2024-10-30_14h59.33.231,uWM_experiment,2022.2.3,59.99887202
,,,,,,,,0,0,0,0,6,0,6,0,,,,,,,,,,,,,,,,,,,,,,,,,,,,,,,,,,,,,,,,,,,,,,,,,,,,,,,,,,,,,,,right,1,160,30,190,1876.828697,1877.828753,1877.828753,1877.828753,None,None,4,0,0.5995491,1877.828753,,,,,,,,,,,,,,,,,,,,,,,,,,,,,,,,,,,,,,,,,,,,,,,,,,,,,,,,,,,,,,,,,10,16,1,2024-10-30_14h59.33.231,uWM_experiment,2022.2.3,59.99887202
,,,,,,,,0,0,0,0,7,0,7,0,,,,,,,,,,,,,,,,,,,,,,,,,,,,,,,,,,,,,,,,,,,,,,,,,,,,,,,,,,,,,,,left,0,70,30,100,1886.945859,1887.945861,1887.945861,1887.945861,None,None,4,0,3.7943984,1887.945861,,,,,,,,,,,,,,,,,,,,,,,,,,,,,,,,,,,,,,,,,,,,,,,,,,,,,,,,,,,,,,,,,10,16,1,2024-10-30_14h59.33.231,uWM_experiment,2022.2.3,59.99887202
,,,,,,,,0,0,0,0,8,0,8,0,,,,,,,,,,,,,,,,,,,,,,,,,,,,,,,,,,,,,,,,,,,,,,,,,,,,,,,,,,,,,,,right,1,40,30,70,1897.86298,1898.863025,1898.863025,1898.863025,None,None,4,0,1.2613617,,,,,,,,,,,,,,,,,,,,,,,,,,,,,,,,,,,,,,,,,,,,,,,,,,,,,,,,,,,,,,,,,,10,16,1,2024-10-30_14h59.33.231,uWM_experiment,2022.2.3,59.99887202
,,,,,,,,0,0,0,0,9,0,9,0,,,,,,,,,,,,,,,,,,,,,,,,,,,,,,,,,,,,,,,,,,,,,,,,,,,,,,,,,,,,,,,right,0,100,-30,70,1908.030105,1909.030155,1909.030155,1909.030155,None,None,4,0,5.5981942,,,,,,,,,,,,,,,,,,,,,,,,,,,,,,,,,,,,,,,,,,,,,,,,,,,,,,,,,,,,,,,,,,10,16,1,2024-10-30_14h59.33.231,uWM_experiment,2022.2.3,59.99887202
,,,,,,,,0,0,0,0,10,0,10,0,,,,,,,,,,,,,,,,,,,,,,,,,,,,,,,,,,,,,,,,,,,,,,,,,,,,,,,,,,,,,,,right,1,10,30,40,1920.530649,1921.530699,1921.530699,1921.530699,None,None,4,0,1.5775598,1921.530699,,,,,,,,,,,,,,,,,,,,,,,,,,,,,,,,,,,,,,,,,,,,,,,,,,,,,,,,,,,,,,,,,10,16,1,2024-10-30_14h59.33.231,uWM_experiment,2022.2.3,59.99887202
,,,,,,,,0,0,0,0,11,0,11,0,,,,,,,,,,,,,,,,,,,,,,,,,,,,,,,,,,,,,,,,,,,,,,,,,,,,,,,,,,,,,,,right,1,130,30,160,1929.88108,1930.881146,1930.881146,1930.881146,None,None,4,0,0.6592056,1930.881146,,,,,,,,,,,,,,,,,,,,,,,,,,,,,,,,,,,,,,,,,,,,,,,,,,,,,,,,,,,,,,,,,10,16,1,2024-10-30_14h59.33.231,uWM_experiment,2022.2.3,59.99887202
,,,,,,,,0,0,0,0,,,,,,,,,,,,,,,,,,,,,,,,,,,,,,,,,,,,,,,,,,,,,,,,,,,,,,,,,,,,,,,,,,,,,,,,,,,,,,,,,,,,,,,,,,,,,,,,,,,,,,,,,,,,,,,,,,,,,,,,,,,,,,,,,,,,,,,,,,,,,,,,,,10,16,1,2024-10-30_14h59.33.231,uWM_experiment,2022.2.3,59.99887202
,,,,,,,,1,0,1,0,0,0,0,0,,,,,,,,,,,,,,,,,,,,,,,,,,,,,,,,,,,,,,,,,,,,,,,,,,,,,,,,,,,,,,,right,1,130,30,160,1967.7328,1968.732835,1968.732835,1968.732835,None,None,4,0,1.5034163,1968.732835,,,,,,,,,,,,,,,,,,,,,,,,,,,,,,,,,,,,,,,,,,,,,,,,,,,,,,,,,,,,,,,,,10,16,1,2024-10-30_14h59.33.231,uWM_experiment,2022.2.3,59.99887202
,,,,,,,,1,0,1,0,1,0,1,0,,,,,,,,,,,,,,,,,,,,,,,,,,,,,,,,,,,,,,,,,,,,,,,,,,,,,,,,,,,,,,,left,1,160,-30,130,1976.333181,1977.333194,1977.333194,1977.333194,None,None,4,0,0.8391299,1977.333194,,,,,,,,,,,,,,,,,,,,,,,,,,,,,,,,,,,,,,,,,,,,,,,,,,,,,,,,,,,,,,,,,10,16,1,2024-10-30_14h59.33.231,uWM_experiment,2022.2.3,59.99887202
,,,,,,,,1,0,1,0,2,0,2,0,,,,,,,,,,,,,,,,,,,,,,,,,,,,,,,,,,,,,,,,,,,,,,,,,,,,,,,,,,,,,,,left,1,130,-30,100,1984.38354,1985.383563,1985.383563,1985.383563,None,None,4,0,0.7327277,,,,,,,,,,,,,,,,,,,,,,,,,,,,,,,,,,,,,,,,,,,,,,,,,,,,,,,,,,,,,,,,,,10,16,1,2024-10-30_14h59.33.231,uWM_experiment,2022.2.3,59.99887202
,,,,,,,,1,0,1,0,3,0,3,0,,,,,,,,,,,,,,,,,,,,,,,,,,,,,,,,,,,,,,,,,,,,,,,,,,,,,,,,,,,,,,,right,1,10,30,40,1992.133878,1993.133932,1993.133932,1993.133932,None,None,4,0,0.6863363,,,,,,,,,,,,,,,,,,,,,,,,,,,,,,,,,,,,,,,,,,,,,,,,,,,,,,,,,,,,,,,,,,10,16,1,2024-10-30_14h59.33.231,uWM_experiment,2022.2.3,59.99887202
,,,,,,,,1,0,1,0,4,0,4,0,,,,,,,,,,,,,,,,,,,,,,,,,,,,,,,,,,,,,,,,,,,,,,,,,,,,,,,,,,,,,,,left,1,160,-30,130,1999.86756,2000.867585,2000.867585,2000.867585,None,None,4,0,0.4328294,2000.867585,,,,,,,,,,,,,,,,,,,,,,,,,,,,,,,,,,,,,,,,,,,,,,,,,,,,,,,,,,,,,,,,,10,16,1,2024-10-30_14h59.33.231,uWM_experiment,2022.2.3,59.99887202
,,,,,,,,1,0,1,0,5,0,5,0,,,,,,,,,,,,,,,,,,,,,,,,,,,,,,,,,,,,,,,,,,,,,,,,,,,,,,,,,,,,,,,right,1,100,30,130,2008.817948,2009.81801,2009.81801,2009.81801,None,None,4,0,0.6584277,2009.81801,,,,,,,,,,,,,,,,,,,,,,,,,,,,,,,,,,,,,,,,,,,,,,,,,,,,,,,,,,,,,,,,,10,16,1,2024-10-30_14h59.33.231,uWM_experiment,2022.2.3,59.99887202
,,,,,,,,1,0,1,0,6,0,6,0,,,,,,,,,,,,,,,,,,,,,,,,,,,,,,,,,,,,,,,,,,,,,,,,,,,,,,,,,,,,,,,left,1,40,-30,10,2017.701703,2018.70172,2018.70172,2018.70172,None,None,4,0,0.4227526,2018.70172,,,,,,,,,,,,,,,,,,,,,,,,,,,,,,,,,,,,,,,,,,,,,,,,,,,,,,,,,,,,,,,,,10,16,1,2024-10-30_14h59.33.231,uWM_experiment,2022.2.3,59.99887202
,,,,,,,,1,0,1,0,7,0,7,0,,,,,,,,,,,,,,,,,,,,,,,,,,,,,,,,,,,,,,,,,,,,,,,,,,,,,,,,,,,,,,,left,1,70,-30,40,2026.102073,2027.102096,2027.102096,2027.102096,None,None,4,0,0.4782656,,,,,,,,,,,,,,,,,,,,,,,,,,,,,,,,,,,,,,,,,,,,,,,,,,,,,,,,,,,,,,,,,,10,16,1,2024-10-30_14h59.33.231,uWM_experiment,2022.2.3,59.99887202
,,,,,,,,1,0,1,0,8,0,8,0,,,,,,,,,,,,,,,,,,,,,,,,,,,,,,,,,,,,,,,,,,,,,,,,,,,,,,,,,,,,,,,right,1,160,30,190,2034.669129,2035.669147,2035.669147,2035.669147,None,None,4,0,0.4632917,2035.669147,,,,,,,,,,,,,,,,,,,,,,,,,,,,,,,,,,,,,,,,,,,,,,,,,,,,,,,,,,,,,,,,,10,16,1,2024-10-30_14h59.33.231,uWM_experiment,2022.2.3,59.99887202
,,,,,,,,1,0,1,0,9,0,9,0,,,,,,,,,,,,,,,,,,,,,,,,,,,,,,,,,,,,,,,,,,,,,,,,,,,,,,,,,,,,,,,left,1,100,-30,70,2045.852954,2046.852971,2046.852971,2046.852971,None,None,4,0,0.7834596,2046.852971,,,,,,,,,,,,,,,,,,,,,,,,,,,,,,,,,,,,,,,,,,,,,,,,,,,,,,,,,,,,,,,,,10,16,1,2024-10-30_14h59.33.231,uWM_experiment,2022.2.3,59.99887202
,,,,,,,,1,0,1,0,10,0,10,0,,,,,,,,,,,,,,,,,,,,,,,,,,,,,,,,,,,,,,,,,,,,,,,,,,,,,,,,,,,,,,,right,1,40,30,70,2053.586637,2054.586668,2054.586668,2054.586668,None,None,4,0,0.9856407,2054.586668,,,,,,,,,,,,,,,,,,,,,,,,,,,,,,,,,,,,,,,,,,,,,,,,,,,,,,,,,,,,,,,,,10,16,1,2024-10-30_14h59.33.231,uWM_experiment,2022.2.3,59.99887202
,,,,,,,,1,0,1,0,11,0,11,0,,,,,,,,,,,,,,,,,,,,,,,,,,,,,,,,,,,,,,,,,,,,,,,,,,,,,,,,,,,,,,,left,1,130,-30,100,2062.103663,2063.103708,2063.103708,2063.103708,None,None,4,0,0.5006495,,,,,,,,,,,,,,,,,,,,,,,,,,,,,,,,,,,,,,,,,,,,,,,,,,,,,,,,,,,,,,,,,,10,16,1,2024-10-30_14h59.33.231,uWM_experiment,2022.2.3,59.99887202
,,,,,,,,1,0,1,0,,,,,,,,,,,,,,,,,,,,,,,,,,,,,,,,,,,,,,,,,,,,,,,,,,,,,,,,,,,,,,,,,,,,,,,,,,,,,,,,,,,,,,,,,,,,,,,,,,,,,,,,,,,,,,,,,,,,,,,,,,,,,,,,,,,,,,,,,,,,,,,,,,10,16,1,2024-10-30_14h59.33.231,uWM_experiment,2022.2.3,59.99887202
,,,,,,,,,,,,,,,,,,,,,,,,,,,,,,,,,,,,,,,,,,,,,,,,,,,,,,,,,,,,,,,,,,,,,,,,,,,,,,,,,,,,,,,,,,,,,2063.637045,2063.637045,space,28.3913329,,,,,,,,,,,,,,,,,,,,,,,,,,,,,,,,,,,,,,,,,,,,,,,,,,,,,,,,,,,,,10,16,1,2024-10-30_14h59.33.231,uWM_experiment,2022.2.3,59.99887202
,,,,,,,,,,,,,,,,0,0,0,0,,,,,,,,,,,,,,,,,,,,,,,,,,,,,,,,,,,,,,,,,,,,,,,,,,,,,,,,,,,,,,,,,,,,,,,,,,,,,,0.065818418,right,1,70,30,100,1,2099.95537,2099.95537,2099.95537,None,None,2,0,2.8971429,,,,,,,,,,,,,,,,,,,,,,,,,,,,,,,,,,,,,,,,,,,,,,10,16,1,2024-10-30_14h59.33.231,uWM_experiment,2022.2.3,59.99887202
,,,,,,,,,,,,,,,,1,0,1,0,,,,,,,,,,,,,,,,,,,,,,,,,,,,,,,,,,,,,,,,,,,,,,,,,,,,,,,,,,,,,,,,,,,,,,,,,,,,,,0.1,left,1,130,-30,100,2,2109.889124,2109.889124,2109.889124,None,None,4,0,0.8593314,0,,,,,,,,,,,,,,,,,,,,,,,,,,,,,,,,,,,,,,,,,,,,,10,16,1,2024-10-30_14h59.33.231,uWM_experiment,2022.2.3,59.99887202
,,,,,,,,,,,,,,,,2,0,2,0,,,,,,,,,,,,,,,,,,,,,,,,,,,,,,,,,,,,,,,,,,,,,,,,,,,,,,,,,,,,,,,,,,,,,,,,,,,,,,0.1,left,1,100,-30,70,2,2118.439516,2118.439516,2118.439516,None,None,4,0,1.964893,0,,,,,,,,,,,,,,,,,,,,,,,,,,,,,,,,,,,,,,,,,,,,,10,16,1,2024-10-30_14h59.33.231,uWM_experiment,2022.2.3,59.99887202
,,,,,,,,,,,,,,,,3,0,3,0,,,,,,,,,,,,,,,,,,,,,,,,,,,,,,,,,,,,,,,,,,,,,,,,,,,,,,,,,,,,,,,,,,,,,,,,,,,,,,0.1,left,1,10,-30,-20,2,2126.639873,2126.639873,2126.639873,None,None,4,0,1.1964761,0,,,,,,,,,,,,,,,,,,,,,,,,,,,,,,,,,,,,,,,,,,,,,10,16,1,2024-10-30_14h59.33.231,uWM_experiment,2022.2.3,59.99887202
,,,,,,,,,,,,,,,,4,0,4,0,,,,,,,,,,,,,,,,,,,,,,,,,,,,,,,,,,,,,,,,,,,,,,,,,,,,,,,,,,,,,,,,,,,,,,,,,,,,,,0.1,left,1,40,-30,10,2,2134.856936,2134.856936,2134.856936,None,None,4,0,1.0275787,0,,,,,,,,,,,,,,,,,,,,,,,,,,,,,,,,,,,,,,,,,,,,,10,16,1,2024-10-30_14h59.33.231,uWM_experiment,2022.2.3,59.99887202
,,,,,,,,,,,,,,,,5,0,5,0,,,,,,,,,,,,,,,,,,,,,,,,,,,,,,,,,,,,,,,,,,,,,,,,,,,,,,,,,,,,,,,,,,,,,,,,,,,,,,0.1,left,1,130,-30,100,2,2144.740703,2144.740703,2144.740703,None,None,4,0,2.359746,0,,,,,,,,,,,,,,,,,,,,,,,,,,,,,,,,,,,,,,,,,,,,,10,16,1,2024-10-30_14h59.33.231,uWM_experiment,2022.2.3,59.99887202
,,,,,,,,,,,,,,,,6,0,6,0,,,,,,,,,,,,,,,,,,,,,,,,,,,,,,,,,,,,,,,,,,,,,,,,,,,,,,,,,,,,,,,,,,,,,,,,,,,,,,0.055818418,left,0,40,30,70,1,2156.257857,2156.257857,2156.257857,None,None,1,1,2.0585488,0,,,,,,,,,,,,,,,,,,,,,,,,,,,,,,,,,,,,,,,,,,,,,10,16,1,2024-10-30_14h59.33.231,uWM_experiment,2022.2.3,59.99887202
,,,,,,,,,,,,,,,,7,0,7,0,,,,,,,,,,,,,,,,,,,,,,,,,,,,,,,,,,,,,,,,,,,,,,,,,,,,,,,,,,,,,,,,,,,,,,,,,,,,,,0.065818418,left,1,160,-30,130,1,2165.158274,2165.158274,2165.158274,None,None,1,1,0.8380842,0.142857143,,,,,,,,,,,,,,,,,,,,,,,,,,,,,,,,,,,,,,,,,,,,,10,16,1,2024-10-30_14h59.33.231,uWM_experiment,2022.2.3,59.99887202
,,,,,,,,,,,,,,,,8,0,8,0,,,,,,,,,,,,,,,,,,,,,,,,,,,,,,,,,,,,,,,,,,,,,,,,,,,,,,,,,,,,,,,,,,,,,,,,,,,,,,0.075818418,left,0,100,30,130,1,2172.075249,2172.075249,2172.075249,None,None,1,1,0.6652655,0.25,,,,,,,,,,,,,,,,,,,,,,,,,,,,,,,,,,,,,,,,,,,,,10,16,1,2024-10-30_14h59.33.231,uWM_experiment,2022.2.3,59.99887202
,,,,,,,,,,,,,,,,9,0,9,0,,,,,,,,,,,,,,,,,,,,,,,,,,,,,,,,,,,,,,,,,,,,,,,,,,,,,,,,,,,,,,,,,,,,,,,,,,,,,,0.085818418,right,1,130,30,160,1,2181.608988,2181.608988,2181.608988,None,None,2,0,3.7713826,0.333333333,,,,,,,,,,,,,,,,,,,,,,,,,,,,,,,,,,,,,,,,,,,,,10,16,1,2024-10-30_14h59.33.231,uWM_experiment,2022.2.3,59.99887202
,,,,,,,,,,,,,,,,10,0,10,0,,,,,,,,,,,,,,,,,,,,,,,,,,,,,,,,,,,,,,,,,,,,,,,,,,,,,,,,,,,,,,,,,,,,,,,,,,,,,,0.1,left,1,10,-30,-20,2,2195.792957,2195.792957,2195.792957,None,None,4,0,1.6995274,0.3,,,,,,,,,,,,,,,,,,,,,,,,,,,,,,,,,,,,,,,,,,,,,10,16,1,2024-10-30_14h59.33.231,uWM_experiment,2022.2.3,59.99887202
,,,,,,,,,,,,,,,,11,0,11,0,,,,,,,,,,,,,,,,,,,,,,,,,,,,,,,,,,,,,,,,,,,,,,,,,,,,,,,,,,,,,,,,,,,,,,,,,,,,,,0.1,left,1,70,-30,40,2,2205.843403,2205.843403,2205.843403,None,None,4,0,2.0250808,0.272727273,,,,,,,,,,,,,,,,,,,,,,,,,,,,,,,,,,,,,,,,,,,,,10,16,1,2024-10-30_14h59.33.231,uWM_experiment,2022.2.3,59.99887202
,,,,,,,,,,,,,,,,12,0,12,0,,,,,,,,,,,,,,,,,,,,,,,,,,,,,,,,,,,,,,,,,,,,,,,,,,,,,,,,,,,,,,,,,,,,,,,,,,,,,,0.075818418,left,0,40,30,70,1,2214.860509,2214.860509,2214.860509,None,None,1,1,1.2480623,0.25,,,,,,,,,,,,,,,,,,,,,,,,,,,,,,,,,,,,,,,,,,,,,10,16,1,2024-10-30_14h59.33.231,uWM_experiment,2022.2.3,59.99887202
,,,,,,,,,,,,,,,,13,0,13,0,,,,,,,,,,,,,,,,,,,,,,,,,,,,,,,,,,,,,,,,,,,,,,,,,,,,,,,,,,,,,,,,,,,,,,,,,,,,,,0.1,left,1,160,-30,130,2,2225.510957,2225.510957,2225.510957,None,None,4,0,2.4614985,0.307692308,,,,,,,,,,,,,,,,,,,,,,,,,,,,,,,,,,,,,,,,,,,,,10,16,1,2024-10-30_14h59.33.231,uWM_experiment,2022.2.3,59.99887202
,,,,,,,,,,,,,,,,14,0,14,0,,,,,,,,,,,,,,,,,,,,,,,,,,,,,,,,,,,,,,,,,,,,,,,,,,,,,,,,,,,,,,,,,,,,,,,,,,,,,,0.085818418,left,0,70,30,100,1,2236.328133,2236.328133,2236.328133,None,None,2,0,0.64439,0.285714286,,,,,,,,,,,,,,,,,,,,,,,,,,,,,,,,,,,,,,,,,,,,,10,16,1,2024-10-30_14h59.33.231,uWM_experiment,2022.2.3,59.99887202
,,,,,,,,,,,,,,,,15,0,15,0,,,,,,,,,,,,,,,,,,,,,,,,,,,,,,,,,,,,,,,,,,,,,,,,,,,,,,,,,,,,,,,,,,,,,,,,,,,,,,0.1,right,1,10,30,40,2,2242.995105,2242.995105,2242.995105,None,None,4,0,1.4573798,0.266666667,,,,,,,,,,,,,,,,,,,,,,,,,,,,,,,,,,,,,,,,,,,,,10,16,1,2024-10-30_14h59.33.231,uWM_experiment,2022.2.3,59.99887202
,,,,,,,,,,,,,,,,16,0,16,0,,,,,,,,,,,,,,,,,,,,,,,,,,,,,,,,,,,,,,,,,,,,,,,,,,,,,,,,,,,,,,,,,,,,,,,,,,,,,,0.1,right,1,130,30,160,2,2250.828771,2250.828771,2250.828771,None,None,4,0,2.727676,0.25,,,,,,,,,,,,,,,,,,,,,,,,,,,,,,,,,,,,,,,,,,,,,10,16,1,2024-10-30_14h59.33.231,uWM_experiment,2022.2.3,59.99887202
,,,,,,,,,,,,,,,,17,0,17,0,,,,,,,,,,,,,,,,,,,,,,,,,,,,,,,,,,,,,,,,,,,,,,,,,,,,,,,,,,,,,,,,,,,,,,,,,,,,,,0.1,left,1,100,-30,70,2,2260.57921,2260.57921,2260.57921,None,None,4,0,2.3773495,0.235294118,,,,,,,,,,,,,,,,,,,,,,,,,,,,,,,,,,,,,,,,,,,,,10,16,1,2024-10-30_14h59.33.231,uWM_experiment,2022.2.3,59.99887202
,,,,,,,,,,,,,,,,18,0,18,0,,,,,,,,,,,,,,,,,,,,,,,,,,,,,,,,,,,,,,,,,,,,,,,,,,,,,,,,,,,,,,,,,,,,,,,,,,,,,,0.1,left,1,70,-30,40,2,2269.446301,2269.446301,2269.446301,None,None,4,0,1.6142191,0.222222222,,,,,,,,,,,,,,,,,,,,,,,,,,,,,,,,,,,,,,,,,,,,,10,16,1,2024-10-30_14h59.33.231,uWM_experiment,2022.2.3,59.99887202
,,,,,,,,,,,,,,,,19,0,19,0,,,,,,,,,,,,,,,,,,,,,,,,,,,,,,,,,,,,,,,,,,,,,,,,,,,,,,,,,,,,,,,,,,,,,,,,,,,,,,0.075818418,right,1,40,30,70,1,2281.413455,2281.413455,2281.413455,None,None,2,0,0.5751077,0.210526316,,,,,,,,,,,,,,,,,,,,,,,,,,,,,,,,,,,,,,,,,,,,,10,16,1,2024-10-30_14h59.33.231,uWM_experiment,2022.2.3,59.99887202
,,,,,,,,,,,,,,,,20,0,20,0,,,,,,,,,,,,,,,,,,,,,,,,,,,,,,,,,,,,,,,,,,,,,,,,,,,,,,,,,,,,,,,,,,,,,,,,,,,,,,0.065818418,left,1,160,-30,130,1,2291.247256,2291.247256,2291.247256,None,None,2,0,0.6691862,0.2,,,,,,,,,,,,,,,,,,,,,,,,,,,,,,,,,,,,,,,,,,,,,10,16,1,2024-10-30_14h59.33.231,uWM_experiment,2022.2.3,59.99887202
,,,,,,,,,,,,,,,,21,0,21,0,,,,,,,,,,,,,,,,,,,,,,,,,,,,,,,,,,,,,,,,,,,,,,,,,,,,,,,,,,,,,,,,,,,,,,,,,,,,,,0.055818418,right,1,10,30,40,1,2301.231024,2301.231024,2301.231024,None,None,1,1,0.9495852,0.19047619,,,,,,,,,,,,,,,,,,,,,,,,,,,,,,,,,,,,,,,,,,,,,10,16,1,2024-10-30_14h59.33.231,uWM_experiment,2022.2.3,59.99887202
,,,,,,,,,,,,,,,,22,0,22,0,,,,,,,,,,,,,,,,,,,,,,,,,,,,,,,,,,,,,,,,,,,,,,,,,,,,,,,,,,,,,,,,,,,,,,,,,,,,,,0.065818418,left,0,160,30,190,1,2309.631398,2309.631398,2309.631398,None,None,1,1,1.1411094,0.227272727,,,,,,,,,,,,,,,,,,,,,,,,,,,,,,,,,,,,,,,,,,,,,10,16,1,2024-10-30_14h59.33.231,uWM_experiment,2022.2.3,59.99887202
,,,,,,,,,,,,,,,,23,0,23,0,,,,,,,,,,,,,,,,,,,,,,,,,,,,,,,,,,,,,,,,,,,,,,,,,,,,,,,,,,,,,,,,,,,,,,,,,,,,,,0.075818418,right,1,100,30,130,1,2317.415098,2317.415098,2317.415098,None,None,1,1,0.6213472,0.260869565,,,,,,,,,,,,,,,,,,,,,,,,,,,,,,,,,,,,,,,,,,,,,10,16,1,2024-10-30_14h59.33.231,uWM_experiment,2022.2.3,59.99887202
,,,,,,,,,,,,,,,,,,,,,,,,,,,,,,,,,,,,,,,,,,,,,,,,,,,,,,,,,,,,,,,,,,,,,,,,,,,,,,,,,,,,,,,,,,,,,,,,,,,,,,,,,,,,,,,,,2318.065114,2319.065141,space,8.2433644,,,,,,,,,,,,,,,,,,,,,,,,,,,,,,,,,,,,,,,,,10,16,1,2024-10-30_14h59.33.231,uWM_experiment,2022.2.3,59.99887202
,,,,,,,,,,,,,,,,,,,,0,0,0,0,0,0,0,0,,,,,,,,,,,,,,,,,,,,,,,,,,,,,,,,,,,,,,,,,,,,,,,,,,,,,,,,,,,,,,,,,,,,,,0.075818418,,,,,,,,,,,,,,,,,,,,2327.332188,2328.032215,2328.31555,2329.015598,2329.3156,2330.015641,2330.015641,2330.365649,right,1,40,30,70,1,2336.149245,2336.149245,2336.149245,None,None,3,0,3.8712024,,,,,,,,,,,,,,,,,,,10,16,1,2024-10-30_14h59.33.231,uWM_experiment,2022.2.3,59.99887202
,,,,,,,,,,,,,,,,,,,,0,0,0,0,1,0,1,0,,,,,,,,,,,,,,,,,,,,,,,,,,,,,,,,,,,,,,,,,,,,,,,,,,,,,,,,,,,,,,,,,,,,,,0,,,,,,,,,,,,,,,,,,,,,,,,,,,,right,1,10,30,40,0,2346.933088,2346.933088,2346.933088,None,None,1,1,0.567373,,,,,,,,,,,,,,,,,,,10,16,1,2024-10-30_14h59.33.231,uWM_experiment,2022.2.3,59.99887202
,,,,,,,,,,,,,,,,,,,,0,0,0,0,2,0,2,0,,,,,,,,,,,,,,,,,,,,,,,,,,,,,,,,,,,,,,,,,,,,,,,,,,,,,,,,,,,,,,,,,,,,,,0,,,,,,,,,,,,,,,,,,,,,,,,,,,,left,1,10,-30,-20,0,2353.900045,2353.900045,2353.900045,None,None,1,1,0.7924796,,,,,,,,,,,,,,,,,,,10,16,1,2024-10-30_14h59.33.231,uWM_experiment,2022.2.3,59.99887202
,,,,,,,,,,,,,,,,,,,,0,0,0,0,3,0,3,0,,,,,,,,,,,,,,,,,,,,,,,,,,,,,,,,,,,,,,,,,,,,,,,,,,,,,,,,,,,,,,,,,,,,,,0.065818418,,,,,,,,,,,,,,,,,,,,,,,,,,,,right,1,10,30,40,1,2361.35038,2361.35038,2361.35038,None,None,1,1,0.6461682,,,,,,,,,,,,,,,,,,,10,16,1,2024-10-30_14h59.33.231,uWM_experiment,2022.2.3,59.99887202
,,,,,,,,,,,,,,,,,,,,0,0,0,0,4,0,4,0,,,,,,,,,,,,,,,,,,,,,,,,,,,,,,,,,,,,,,,,,,,,,,,,,,,,,,,,,,,,,,,,,,,,,,0,,,,,,,,,,,,,,,,,,,,,,,,,,,,left,1,40,-30,10,0,2374.784341,2374.784341,2374.784341,None,None,1,1,1.1401666,,,,,,,,,,,,,,,,,,,10,16,1,2024-10-30_14h59.33.231,uWM_experiment,2022.2.3,59.99887202
,,,,,,,,,,,,,,,,,,,,0,0,0,0,5,0,5,0,,,,,,,,,,,,,,,,,,,,,,,,,,,,,,,,,,,,,,,,,,,,,,,,,,,,,,,,,,,,,,,,,,,,,,0,,,,,,,,,,,,,,,,,,,,,,,,,,,,left,0,100,30,130,0,2383.284703,2383.284703,2383.284703,None,None,1,1,0.6799878,,,,,,,,,,,,,,,,,,,10,16,1,2024-10-30_14h59.33.231,uWM_experiment,2022.2.3,59.99887202
,,,,,,,,,,,,,,,,,,,,0,0,0,0,6,0,6,0,,,,,,,,,,,,,,,,,,,,,,,,,,,,,,,,,,,,,,,,,,,,,,,,,,,,,,,,,,,,,,,,,,,,,,0.075818418,,,,,,,,,,,,,,,,,,,,,,,,,,,,left,0,10,30,40,1,2389.968352,2389.968352,2389.968352,None,None,1,1,0.8521292,,,,,,,,,,,,,,,,,,,10,16,1,2024-10-30_14h59.33.231,uWM_experiment,2022.2.3,59.99887202
,,,,,,,,,,,,,,,,,,,,0,0,0,0,7,0,7,0,,,,,,,,,,,,,,,,,,,,,,,,,,,,,,,,,,,,,,,,,,,,,,,,,,,,,,,,,,,,,,,,,,,,,,0.085818418,,,,,,,,,,,,,,,,,,,,,,,,,,,,left,1,130,-30,100,1,2398.81873,2398.81873,2398.81873,None,None,2,0,2.0739118,,,,,,,,,,,,,,,,,,,10,16,1,2024-10-30_14h59.33.231,uWM_experiment,2022.2.3,59.99887202
,,,,,,,,,,,,,,,,,,,,0,0,0,0,8,0,8,0,,,,,,,,,,,,,,,,,,,,,,,,,,,,,,,,,,,,,,,,,,,,,,,,,,,,,,,,,,,,,,,,,,,,,,0.075818418,,,,,,,,,,,,,,,,,,,,,,,,,,,,left,0,70,30,100,1,2407.902494,2407.902494,2407.902494,None,None,2,0,1.4461039,,,,,,,,,,,,,,,,,,,10,16,1,2024-10-30_14h59.33.231,uWM_experiment,2022.2.3,59.99887202
,,,,,,,,,,,,,,,,,,,,0,0,0,0,9,0,9,0,,,,,,,,,,,,,,,,,,,,,,,,,,,,,,,,,,,,,,,,,,,,,,,,,,,,,,,,,,,,,,,,,,,,,,0,,,,,,,,,,,,,,,,,,,,,,,,,,,,left,1,40,-30,10,0,2416.486198,2416.486198,2416.486198,None,None,1,1,0.5423678,,,,,,,,,,,,,,,,,,,10,16,1,2024-10-30_14h59.33.231,uWM_experiment,2022.2.3,59.99887202
,,,,,,,,,,,,,,,,,,,,0,0,0,0,10,0,10,0,,,,,,,,,,,,,,,,,,,,,,,,,,,,,,,,,,,,,,,,,,,,,,,,,,,,,,,,,,,,,,,,,,,,,,0,,,,,,,,,,,,,,,,,,,,,,,,,,,,left,1,160,-30,130,0,2424.936598,2424.936598,2424.936598,None,None,1,1,0.6439764,,,,,,,,,,,,,,,,,,,10,16,1,2024-10-30_14h59.33.231,uWM_experiment,2022.2.3,59.99887202
,,,,,,,,,,,,,,,,,,,,0,0,0,0,11,0,11,0,,,,,,,,,,,,,,,,,,,,,,,,,,,,,,,,,,,,,,,,,,,,,,,,,,,,,,,,,,,,,,,,,,,,,,0.065818418,,,,,,,,,,,,,,,,,,,,,,,,,,,,left,0,160,30,190,1,2431.68688,2431.68688,2431.68688,None,None,1,1,0.8297206,,,,,,,,,,,,,,,,,,,10,16,1,2024-10-30_14h59.33.231,uWM_experiment,2022.2.3,59.99887202
,,,,,,,,,,,,,,,,,,,,0,0,0,0,12,0,12,0,,,,,,,,,,,,,,,,,,,,,,,,,,,,,,,,,,,,,,,,,,,,,,,,,,,,,,,,,,,,,,,,,,,,,,0.075818418,,,,,,,,,,,,,,,,,,,,,,,,,,,,right,1,70,30,100,1,2441.320644,2441.320644,2441.320644,None,None,1,1,0.707944,,,,,,,,,,,,,,,,,,,10,16,1,2024-10-30_14h59.33.231,uWM_experiment,2022.2.3,59.99887202
,,,,,,,,,,,,,,,,,,,,0,0,0,0,13,0,13,0,,,,,,,,,,,,,,,,,,,,,,,,,,,,,,,,,,,,,,,,,,,,,,,,,,,,,,,,,,,,,,,,,,,,,,0.085818418,,,,,,,,,,,,,,,,,,,,,,,,,,,,left,0,130,30,160,1,2448.820963,2448.820963,2448.820963,None,None,1,1,0.5596985,,,,,,,,,,,,,,,,,,,10,16,1,2024-10-30_14h59.33.231,uWM_experiment,2022.2.3,59.99887202
,,,,,,,,,,,,,,,,,,,,0,0,0,0,14,0,14,0,,,,,,,,,,,,,,,,,,,,,,,,,,,,,,,,,,,,,,,,,,,,,,,,,,,,,,,,,,,,,,,,,,,,,,0.095818418,,,,,,,,,,,,,,,,,,,,,,,,,,,,left,1,100,-30,70,1,2455.137915,2455.137915,2455.137915,None,None,1,1,0.6986837,,,,,,,,,,,,,,,,,,,10,16,1,2024-10-30_14h59.33.231,uWM_experiment,2022.2.3,59.99887202
,,,,,,,,,,,,,,,,,,,,0,0,0,0,15,0,15,0,,,,,,,,,,,,,,,,,,,,,,,,,,,,,,,,,,,,,,,,,,,,,,,,,,,,,,,,,,,,,,,,,,,,,,0.105818418,,,,,,,,,,,,,,,,,,,,,,,,,,,,right,0,10,-30,-20,1,2463.104953,2463.104953,2463.104953,None,None,2,0,1.2757575,,,,,,,,,,,,,,,,,,,10,16,1,2024-10-30_14h59.33.231,uWM_experiment,2022.2.3,59.99887202
,,,,,,,,,,,,,,,,,,,,0,0,0,0,16,0,16,0,,,,,,,,,,,,,,,,,,,,,,,,,,,,,,,,,,,,,,,,,,,,,,,,,,,,,,,,,,,,,,,,,,,,,,0,,,,,,,,,,,,,,,,,,,,,,,,,,,,left,1,100,-30,70,0,2470.371953,2470.371953,2470.371953,None,None,1,1,0.504589,,,,,,,,,,,,,,,,,,,10,16,1,2024-10-30_14h59.33.231,uWM_experiment,2022.2.3,59.99887202
,,,,,,,,,,,,,,,,,,,,0,0,0,0,17,0,17,0,,,,,,,,,,,,,,,,,,,,,,,,,,,,,,,,,,,,,,,,,,,,,,,,,,,,,,,,,,,,,,,,,,,,,,0.095818418,,,,,,,,,,,,,,,,,,,,,,,,,,,,right,0,10,-30,-20,1,2479.155657,2479.155657,2479.155657,None,None,2,0,1.0249584,,,,,,,,,,,,,,,,,,,10,16,1,2024-10-30_14h59.33.231,uWM_experiment,2022.2.3,59.99887202
,,,,,,,,,,,,,,,,,,,,0,0,0,0,18,0,18,0,,,,,,,,,,,,,,,,,,,,,,,,,,,,,,,,,,,,,,,,,,,,,,,,,,,,,,,,,,,,,,,,,,,,,,0,,,,,,,,,,,,,,,,,,,,,,,,,,,,right,0,70,-30,40,0,2486.806013,2486.806013,2486.806013,None,None,1,1,0.6625901,,,,,,,,,,,,,,,,,,,10,16,1,2024-10-30_14h59.33.231,uWM_experiment,2022.2.3,59.99887202
,,,,,,,,,,,,,,,,,,,,0,0,0,0,19,0,19,0,,,,,,,,,,,,,,,,,,,,,,,,,,,,,,,,,,,,,,,,,,,,,,,,,,,,,,,,,,,,,,,,,,,,,,0.1,,,,,,,,,,,,,,,,,,,,,,,,,,,,left,1,130,-30,100,2,2495.806422,2495.806422,2495.806422,None,None,4,0,1.6701275,,,,,,,,,,,,,,,,,,,10,16,1,2024-10-30_14h59.33.231,uWM_experiment,2022.2.3,59.99887202
,,,,,,,,,,,,,,,,,,,,0,0,0,0,20,0,20,0,,,,,,,,,,,,,,,,,,,,,,,,,,,,,,,,,,,,,,,,,,,,,,,,,,,,,,,,,,,,,,,,,,,,,,0.085818418,,,,,,,,,,,,,,,,,,,,,,,,,,,,right,1,40,30,70,1,2504.090122,2504.090122,2504.090122,None,None,3,0,4.6745576,,,,,,,,,,,,,,,,,,,10,16,1,2024-10-30_14h59.33.231,uWM_experiment,2022.2.3,59.99887202
,,,,,,,,,,,,,,,,,,,,0,0,0,0,21,0,21,0,,,,,,,,,,,,,,,,,,,,,,,,,,,,,,,,,,,,,,,,,,,,,,,,,,,,,,,,,,,,,,,,,,,,,,0.075818418,,,,,,,,,,,,,,,,,,,,,,,,,,,,right,1,130,30,160,1,2516.52401,2516.52401,2516.52401,None,None,2,0,0.8166038,,,,,,,,,,,,,,,,,,,10,16,1,2024-10-30_14h59.33.231,uWM_experiment,2022.2.3,59.99887202
,,,,,,,,,,,,,,,,,,,,0,0,0,0,22,0,22,0,,,,,,,,,,,,,,,,,,,,,,,,,,,,,,,,,,,,,,,,,,,,,,,,,,,,,,,,,,,,,,,,,,,,,,0.065818418,,,,,,,,,,,,,,,,,,,,,,,,,,,,right,1,40,30,70,1,2523.3743,2523.3743,2523.3743,None,None,2,0,5.0542792,,,,,,,,,,,,,,,,,,,10,16,1,2024-10-30_14h59.33.231,uWM_experiment,2022.2.3,59.99887202
,,,,,,,,,,,,,,,,,,,,0,0,0,0,23,0,23,0,,,,,,,,,,,,,,,,,,,,,,,,,,,,,,,,,,,,,,,,,,,,,,,,,,,,,,,,,,,,,,,,,,,,,,0.055818418,,,,,,,,,,,,,,,,,,,,,,,,,,,,left,0,160,30,190,1,2535.708208,2535.708208,2535.708208,None,None,2,0,0.7124155,,,,,,,,,,,,,,,,,,,10,16,1,2024-10-30_14h59.33.231,uWM_experiment,2022.2.3,59.99887202
,,,,,,,,,,,,,,,,,,,,0,0,0,0,,,,,0,0,0,0,,,,,,,,,,,,,,,,,,,,,,,,,,,,,,,,,,,,,,,,,,,,,,,,,,,,,,,,,,,,,,,,,,,,,,,,,,,,,,,,,,,,,,,,,,,,,,,,,,,,,,,,,,,,2536.441537,2536.441537,space,6.1872073,None,None,,,,,,,,,,,,,10,16,1,2024-10-30_14h59.33.231,uWM_experiment,2022.2.3,59.99887202
,,,,,,,,,,,,,,,,,,,,0,0,0,0,,,,,1,0,1,0,,,,,,,,,,,,,,,,,,,,,,,,,,,,,,,,,,,,,,,,,,,,,,,,,,,,,,,,,,,,,,,,,,,,,,,,,,,,,,,,,,,,,,,,,,,,,,,,,,,,,,,,,,,,,,,,,,,,,,,,,,,,,,10,16,1,2024-10-30_14h59.33.231,uWM_experiment,2022.2.3,59.99887202
,,,,,,,,,,,,,,,,,,,,0,0,0,0,,,,,2,0,2,0,,,,,,,,,,,,,,,,,,,,,,,,,,,,,,,,,,,,,,,,,,,,,,,,,,,,,,,,,,,,,,,,,,,,,,,,,,,,,,,,,,,,,,,,,,,,,,,,,,,,,,,,,,,,,,,,,,,,,,,,,,,,,,10,16,1,2024-10-30_14h59.33.231,uWM_experiment,2022.2.3,59.99887202
,,,,,,,,,,,,,,,,,,,,1,0,1,0,0,0,0,0,,,,,,,,,,,,,,,,,,,,,,,,,,,,,,,,,,,,,,,,,,,,,,,,,,,,,,,,,,,,,,,,,,,,,,0.045818418,,,,,,,,,,,,,,,,,,,,2542.65851,2543.358518,2543.658555,2544.35857,2544.658584,2545.358614,2545.358614,2545.675321,right,0,10,-30,-20,1,2552.292264,2552.292264,2552.292264,None,None,1,1,0.7683287,,,,,,,None,,,,,,,,,,,,10,16,1,2024-10-30_14h59.33.231,uWM_experiment,2022.2.3,59.99887202
,,,,,,,,,,,,,,,,,,,,1,0,1,0,1,0,1,0,,,,,,,,,,,,,,,,,,,,,,,,,,,,,,,,,,,,,,,,,,,,,,,,,,,,,,,,,,,,,,,,,,,,,,0.055818418,,,,,,,,,,,,,,,,,,,,,,,,,,,,left,0,10,30,40,1,2559.942604,2559.942604,2559.942604,None,None,2,0,1.4859386,,,,,,,,,,,,,,,,,,,10,16,1,2024-10-30_14h59.33.231,uWM_experiment,2022.2.3,59.99887202
,,,,,,,,,,,,,,,,,,,,1,0,1,0,2,0,2,0,,,,,,,,,,,,,,,,,,,,,,,,,,,,,,,,,,,,,,,,,,,,,,,,,,,,,,,,,,,,,,,,,,,,,,0.045818418,,,,,,,,,,,,,,,,,,,,,,,,,,,,right,0,10,-30,-20,1,2567.19293,2567.19293,2567.19293,None,None,1,1,0.6758039,,,,,,,,,,,,,,,,,,,10,16,1,2024-10-30_14h59.33.231,uWM_experiment,2022.2.3,59.99887202
,,,,,,,,,,,,,,,,,,,,1,0,1,0,3,0,3,0,,,,,,,,,,,,,,,,,,,,,,,,,,,,,,,,,,,,,,,,,,,,,,,,,,,,,,,,,,,,,,,,,,,,,,0.055818418,,,,,,,,,,,,,,,,,,,,,,,,,,,,right,0,70,-30,40,1,2576.27669,2576.27669,2576.27669,None,None,1,1,2.4719313,,,,,,,,,,,,,,,,,,,10,16,1,2024-10-30_14h59.33.231,uWM_experiment,2022.2.3,59.99887202
,,,,,,,,,,,,,,,,,,,,1,0,1,0,4,0,4,0,,,,,,,,,,,,,,,,,,,,,,,,,,,,,,,,,,,,,,,,,,,,,,,,,,,,,,,,,,,,,,,,,,,,,,0.065818418,,,,,,,,,,,,,,,,,,,,,,,,,,,,right,0,40,-30,10,1,2584.743721,2584.743721,2584.743721,None,None,1,1,0.7889629,,,,,,,,,,,,,,,,,,,10,16,1,2024-10-30_14h59.33.231,uWM_experiment,2022.2.3,59.99887202
,,,,,,,,,,,,,,,,,,,,1,0,1,0,5,0,5,0,,,,,,,,,,,,,,,,,,,,,,,,,,,,,,,,,,,,,,,,,,,,,,,,,,,,,,,,,,,,,,,,,,,,,,0.075818418,,,,,,,,,,,,,,,,,,,,,,,,,,,,right,0,70,-30,40,1,2591.794038,2591.794038,2591.794038,None,None,2,0,0.8345603,,,,,,,,,,,,,,,,,,,10,16,1,2024-10-30_14h59.33.231,uWM_experiment,2022.2.3,59.99887202
,,,,,,,,,,,,,,,,,,,,1,0,1,0,6,0,6,0,,,,,,,,,,,,,,,,,,,,,,,,,,,,,,,,,,,,,,,,,,,,,,,,,,,,,,,,,,,,,,,,,,,,,,0.1,,,,,,,,,,,,,,,,,,,,,,,,,,,,right,0,10,-30,-20,2,2599.161026,2599.161026,2599.161026,None,None,4,0,1.9077627,,,,,,,,,,,,,,,,,,,10,16,1,2024-10-30_14h59.33.231,uWM_experiment,2022.2.3,59.99887202
,,,,,,,,,,,,,,,,,,,,1,0,1,0,7,0,7,0,,,,,,,,,,,,,,,,,,,,,,,,,,,,,,,,,,,,,,,,,,,,,,,,,,,,,,,,,,,,,,,,,,,,,,0,,,,,,,,,,,,,,,,,,,,,,,,,,,,right,1,40,30,70,0,2609.561504,2609.561504,2609.561504,None,None,1,1,0.8191272,,,,,,,,,,,,,,,,,,,10,16,1,2024-10-30_14h59.33.231,uWM_experiment,2022.2.3,59.99887202
,,,,,,,,,,,,,,,,,,,,1,0,1,0,8,0,8,0,,,,,,,,,,,,,,,,,,,,,,,,,,,,,,,,,,,,,,,,,,,,,,,,,,,,,,,,,,,,,,,,,,,,,,0.065818418,,,,,,,,,,,,,,,,,,,,,,,,,,,,right,1,40,30,70,1,2618.461886,2618.461886,2618.461886,None,None,1,1,2.5989103,,,,,,,,,,,,,,,,,,,10,16,1,2024-10-30_14h59.33.231,uWM_experiment,2022.2.3,59.99887202
,,,,,,,,,,,,,,,,,,,,1,0,1,0,9,0,9,0,,,,,,,,,,,,,,,,,,,,,,,,,,,,,,,,,,,,,,,,,,,,,,,,,,,,,,,,,,,,,,,,,,,,,,0.075818418,,,,,,,,,,,,,,,,,,,,,,,,,,,,right,0,130,-30,100,1,2626.712273,2626.712273,2626.712273,None,None,1,1,0.9804592,,,,,,,,,,,,,,,,,,,10,16,1,2024-10-30_14h59.33.231,uWM_experiment,2022.2.3,59.99887202
,,,,,,,,,,,,,,,,,,,,1,0,1,0,10,0,10,0,,,,,,,,,,,,,,,,,,,,,,,,,,,,,,,,,,,,,,,,,,,,,,,,,,,,,,,,,,,,,,,,,,,,,,0.085818418,,,,,,,,,,,,,,,,,,,,,,,,,,,,right,0,10,-30,-20,1,2634.42929,2634.42929,2634.42929,None,None,1,1,0.4873319,,,,,,,,,,,,,,,,,,,10,16,1,2024-10-30_14h59.33.231,uWM_experiment,2022.2.3,59.99887202
,,,,,,,,,,,,,,,,,,,,1,0,1,0,11,0,11,0,,,,,,,,,,,,,,,,,,,,,,,,,,,,,,,,,,,,,,,,,,,,,,,,,,,,,,,,,,,,,,,,,,,,,,0,,,,,,,,,,,,,,,,,,,,,,,,,,,,right,0,40,-30,10,0,2640.712885,2640.712885,2640.712885,None,None,1,1,0.7239248,,,,,,,,,,,,,,,,,,,10,16,1,2024-10-30_14h59.33.231,uWM_experiment,2022.2.3,59.99887202
,,,,,,,,,,,,,,,,,,,,1,0,1,0,12,0,12,0,,,,,,,,,,,,,,,,,,,,,,,,,,,,,,,,,,,,,,,,,,,,,,,,,,,,,,,,,,,,,,,,,,,,,,0.095818418,,,,,,,,,,,,,,,,,,,,,,,,,,,,right,0,40,-30,10,1,2649.863313,2649.863313,2649.863313,None,None,2,0,1.5173217,,,,,,,,,,,,,,,,,,,10,16,1,2024-10-30_14h59.33.231,uWM_experiment,2022.2.3,59.99887202
,,,,,,,,,,,,,,,,,,,,1,0,1,0,13,0,13,0,,,,,,,,,,,,,,,,,,,,,,,,,,,,,,,,,,,,,,,,,,,,,,,,,,,,,,,,,,,,,,,,,,,,,,0.085818418,,,,,,,,,,,,,,,,,,,,,,,,,,,,right,1,160,30,190,1,2660.047095,2660.047095,2660.047095,None,None,2,0,2.3338056,,,,,,,,,,,,,,,,,,,10,16,1,2024-10-30_14h59.33.231,uWM_experiment,2022.2.3,59.99887202
,,,,,,,,,,,,,,,,,,,,1,0,1,0,14,0,14,0,,,,,,,,,,,,,,,,,,,,,,,,,,,,,,,,,,,,,,,,,,,,,,,,,,,,,,,,,,,,,,,,,,,,,,0.075818418,,,,,,,,,,,,,,,,,,,,,,,,,,,,right,0,10,-30,-20,1,2669.080798,2669.080798,2669.080798,None,None,1,1,1.1640402,,,,,,,,,,,,,,,,,,,10,16,1,2024-10-30_14h59.33.231,uWM_experiment,2022.2.3,59.99887202
,,,,,,,,,,,,,,,,,,,,1,0,1,0,15,0,15,0,,,,,,,,,,,,,,,,,,,,,,,,,,,,,,,,,,,,,,,,,,,,,,,,,,,,,,,,,,,,,,,,,,,,,,0,,,,,,,,,,,,,,,,,,,,,,,,,,,,right,0,100,-30,70,0,2676.247795,2676.247795,2676.247795,None,None,1,1,2.1008522,,,,,,,,,,,,,,,,,,,10,16,1,2024-10-30_14h59.33.231,uWM_experiment,2022.2.3,59.99887202
,,,,,,,,,,,,,,,,,,,,1,0,1,0,16,0,16,0,,,,,,,,,,,,,,,,,,,,,,,,,,,,,,,,,,,,,,,,,,,,,,,,,,,,,,,,,,,,,,,,,,,,,,0.085818418,,,,,,,,,,,,,,,,,,,,,,,,,,,,right,0,10,-30,-20,1,2684.481502,2684.481502,2684.481502,None,None,1,1,3.2992899,,,,,,,,,,,,,,,,,,,10,16,1,2024-10-30_14h59.33.231,uWM_experiment,2022.2.3,59.99887202
,,,,,,,,,,,,,,,,,,,,1,0,1,0,17,0,17,0,,,,,,,,,,,,,,,,,,,,,,,,,,,,,,,,,,,,,,,,,,,,,,,,,,,,,,,,,,,,,,,,,,,,,,0.1,,,,,,,,,,,,,,,,,,,,,,,,,,,,left,1,70,-30,40,2,2694.298623,2694.298623,2694.298623,None,None,4,0,1.7860262,,,,,,,,,,,,,,,,,,,10,16,1,2024-10-30_14h59.33.231,uWM_experiment,2022.2.3,59.99887202
,,,,,,,,,,,,,,,,,,,,1,0,1,0,18,0,18,0,,,,,,,,,,,,,,,,,,,,,,,,,,,,,,,,,,,,,,,,,,,,,,,,,,,,,,,,,,,,,,,,,,,,,,0.095818418,,,,,,,,,,,,,,,,,,,,,,,,,,,,right,1,10,30,40,1,2702.882338,2702.882338,2702.882338,None,None,2,0,2.1224762,,,,,,,,,,,,,,,,,,,10,16,1,2024-10-30_14h59.33.231,uWM_experiment,2022.2.3,59.99887202
,,,,,,,,,,,,,,,,,,,,1,0,1,0,19,0,19,0,,,,,,,,,,,,,,,,,,,,,,,,,,,,,,,,,,,,,,,,,,,,,,,,,,,,,,,,,,,,,,,,,,,,,,0.1,,,,,,,,,,,,,,,,,,,,,,,,,,,,right,1,70,30,100,2,2713.582807,2713.582807,2713.582807,None,None,4,0,2.493951,,,,,,,,,,,,,,,,,,,10,16,1,2024-10-30_14h59.33.231,uWM_experiment,2022.2.3,59.99887202
,,,,,,,,,,,,,,,,,,,,1,0,1,0,20,0,20,0,,,,,,,,,,,,,,,,,,,,,,,,,,,,,,,,,,,,,,,,,,,,,,,,,,,,,,,,,,,,,,,,,,,,,,0.085818418,,,,,,,,,,,,,,,,,,,,,,,,,,,,right,0,160,-30,130,1,2724.199955,2724.199955,2724.199955,None,None,1,1,2.2128448,,,,,,,,,,,,,,,,,,,10,16,1,2024-10-30_14h59.33.231,uWM_experiment,2022.2.3,59.99887202
,,,,,,,,,,,,,,,,,,,,1,0,1,0,21,0,21,0,,,,,,,,,,,,,,,,,,,,,,,,,,,,,,,,,,,,,,,,,,,,,,,,,,,,,,,,,,,,,,,,,,,,,,0.095818418,,,,,,,,,,,,,,,,,,,,,,,,,,,,right,0,70,-30,40,1,2732.800337,2732.800337,2732.800337,None,None,2,0,0.8763867,,,,,,,,,,,,,,,,,,,10,16,1,2024-10-30_14h59.33.231,uWM_experiment,2022.2.3,59.99887202
,,,,,,,,,,,,,,,,,,,,1,0,1,0,22,0,22,0,,,,,,,,,,,,,,,,,,,,,,,,,,,,,,,,,,,,,,,,,,,,,,,,,,,,,,,,,,,,,,,,,,,,,,0.085818418,,,,,,,,,,,,,,,,,,,,,,,,,,,,left,0,70,30,100,1,2739.667327,2739.667327,2739.667327,None,None,2,0,3.13735,,,,,,,,,,,,,,,,,,,10,16,1,2024-10-30_14h59.33.231,uWM_experiment,2022.2.3,59.99887202
,,,,,,,,,,,,,,,,,,,,1,0,1,0,23,0,23,0,,,,,,,,,,,,,,,,,,,,,,,,,,,,,,,,,,,,,,,,,,,,,,,,,,,,,,,,,,,,,,,,,,,,,,0,,,,,,,,,,,,,,,,,,,,,,,,,,,,right,1,70,30,100,0,2748.367713,2748.367713,2748.367713,None,None,1,1,0.4849407,,,,,,,,,,,,,,,,,,,10,16,1,2024-10-30_14h59.33.231,uWM_experiment,2022.2.3,59.99887202
,,,,,,,,,,,,,,,,,,,,1,0,1,0,,,,,0,0,0,0,,,,,,,,,,,,,,,,,,,,,,,,,,,,,,,,,,,,,,,,,,,,,,,,,,,,,,,,,,,,,,,,,,,,,,,,,,,,,,,,,,,,,,,,,,,,,,,,,,,,,,,,,,,,2748.884374,2748.884374,space,22.8083659,None,None,,,,,,,,,,,,,10,16,1,2024-10-30_14h59.33.231,uWM_experiment,2022.2.3,59.99887202
,,,,,,,,,,,,,,,,,,,,1,0,1,0,,,,,1,0,1,0,,,,,,,,,,,,,,,,,,,,,,,,,,,,,,,,,,,,,,,,,,,,,,,,,,,,,,,,,,,,,,,,,,,,,,,,,,,,,,,,,,,,,,,,,,,,,,,,,,,,,,,,,,,,,,,,,,,,,,,,,,,,,,10,16,1,2024-10-30_14h59.33.231,uWM_experiment,2022.2.3,59.99887202
,,,,,,,,,,,,,,,,,,,,1,0,1,0,,,,,2,0,2,0,,,,,,,,,,,,,,,,,,,,,,,,,,,,,,,,,,,,,,,,,,,,,,,,,,,,,,,,,,,,,,,,,,,,,,,,,,,,,,,,,,,,,,,,,,,,,,,,,,,,,,,,,,,,,,,,,,,,,,,,,,,,,,10,16,1,2024-10-30_14h59.33.231,uWM_experiment,2022.2.3,59.99887202
,,,,,,,,,,,,,,,,,,,,2,0,2,0,0,0,0,0,,,,,,,,,,,,,,,,,,,,,,,,,,,,,,,,,,,,,,,,,,,,,,,,,,,,,,,,,,,,,,,,,,,,,,0.075818418,,,,,,,,,,,,,,,,,,,,2771.718738,2772.41876,2772.718805,2773.4188,2773.718855,2774.418857,2774.418857,2774.735545,left,1,70,-30,40,1,2779.919112,2779.919112,2779.919112,None,None,1,1,0.5176297,,,,,,,None,,,,,,,,,,,,10,16,1,2024-10-30_14h59.33.231,uWM_experiment,2022.2.3,59.99887202
,,,,,,,,,,,,,,,,,,,,2,0,2,0,1,0,1,0,,,,,,,,,,,,,,,,,,,,,,,,,,,,,,,,,,,,,,,,,,,,,,,,,,,,,,,,,,,,,,,,,,,,,,0.085818418,,,,,,,,,,,,,,,,,,,,,,,,,,,,right,0,40,-30,10,1,2787.786148,2787.786148,2787.786148,None,None,1,1,2.2426767,,,,,,,,,,,,,,,,,,,10,16,1,2024-10-30_14h59.33.231,uWM_experiment,2022.2.3,59.99887202
,,,,,,,,,,,,,,,,,,,,2,0,2,0,2,0,2,0,,,,,,,,,,,,,,,,,,,,,,,,,,,,,,,,,,,,,,,,,,,,,,,,,,,,,,,,,,,,,,,,,,,,,,0.095818418,,,,,,,,,,,,,,,,,,,,,,,,,,,,right,0,100,-30,70,1,2796.636508,2796.636508,2796.636508,None,None,2,0,0.8403495,,,,,,,,,,,,,,,,,,,10,16,1,2024-10-30_14h59.33.231,uWM_experiment,2022.2.3,59.99887202
,,,,,,,,,,,,,,,,,,,,2,0,2,0,3,0,3,0,,,,,,,,,,,,,,,,,,,,,,,,,,,,,,,,,,,,,,,,,,,,,,,,,,,,,,,,,,,,,,,,,,,,,,0.085818418,,,,,,,,,,,,,,,,,,,,,,,,,,,,right,0,100,-30,70,1,2803.270158,2803.270158,2803.270158,None,None,2,0,1.174731,,,,,,,,,,,,,,,,,,,10,16,1,2024-10-30_14h59.33.231,uWM_experiment,2022.2.3,59.99887202
,,,,,,,,,,,,,,,,,,,,2,0,2,0,4,0,4,0,,,,,,,,,,,,,,,,,,,,,,,,,,,,,,,,,,,,,,,,,,,,,,,,,,,,,,,,,,,,,,,,,,,,,,0.075818418,,,,,,,,,,,,,,,,,,,,,,,,,,,,left,1,100,-30,70,1,2812.137236,2812.137236,2812.137236,None,None,2,0,1.315666,,,,,,,,,,,,,,,,,,,10,16,1,2024-10-30_14h59.33.231,uWM_experiment,2022.2.3,59.99887202
,,,,,,,,,,,,,,,,,,,,2,0,2,0,5,0,5,0,,,,,,,,,,,,,,,,,,,,,,,,,,,,,,,,,,,,,,,,,,,,,,,,,,,,,,,,,,,,,,,,,,,,,,0.065818418,,,,,,,,,,,,,,,,,,,,,,,,,,,,left,1,130,-30,100,1,2821.037633,2821.037633,2821.037633,None,None,3,0,4.9112362,,,,,,,,,,,,,,,,,,,10,16,1,2024-10-30_14h59.33.231,uWM_experiment,2022.2.3,59.99887202
,,,,,,,,,,,,,,,,,,,,2,0,2,0,6,0,6,0,,,,,,,,,,,,,,,,,,,,,,,,,,,,,,,,,,,,,,,,,,,,,,,,,,,,,,,,,,,,,,,,,,,,,,0,,,,,,,,,,,,,,,,,,,,,,,,,,,,right,1,40,30,70,0,2831.554789,2831.554789,2831.554789,None,None,1,1,0.9940667,,,,,,,,,,,,,,,,,,,10,16,1,2024-10-30_14h59.33.231,uWM_experiment,2022.2.3,59.99887202
,,,,,,,,,,,,,,,,,,,,2,0,2,0,7,0,7,0,,,,,,,,,,,,,,,,,,,,,,,,,,,,,,,,,,,,,,,,,,,,,,,,,,,,,,,,,,,,,,,,,,,,,,0.055818418,,,,,,,,,,,,,,,,,,,,,,,,,,,,right,0,100,-30,70,1,2838.271756,2838.271756,2838.271756,None,None,1,1,0.8369976,,,,,,,,,,,,,,,,,,,10,16,1,2024-10-30_14h59.33.231,uWM_experiment,2022.2.3,59.99887202
,,,,,,,,,,,,,,,,,,,,2,0,2,0,8,0,8,0,,,,,,,,,,,,,,,,,,,,,,,,,,,,,,,,,,,,,,,,,,,,,,,,,,,,,,,,,,,,,,,,,,,,,,0.065818418,,,,,,,,,,,,,,,,,,,,,,,,,,,,left,1,160,-30,130,1,2847.455485,2847.455485,2847.455485,None,None,1,1,2.0773789,,,,,,,,,,,,,,,,,,,10,16,1,2024-10-30_14h59.33.231,uWM_experiment,2022.2.3,59.99887202
,,,,,,,,,,,,,,,,,,,,2,0,2,0,9,0,9,0,,,,,,,,,,,,,,,,,,,,,,,,,,,,,,,,,,,,,,,,,,,,,,,,,,,,,,,,,,,,,,,,,,,,,,0.075818418,,,,,,,,,,,,,,,,,,,,,,,,,,,,left,0,10,30,40,1,2857.472603,2857.472603,2857.472603,None,None,2,0,0.9961859,,,,,,,,,,,,,,,,,,,10,16,1,2024-10-30_14h59.33.231,uWM_experiment,2022.2.3,59.99887202
,,,,,,,,,,,,,,,,,,,,2,0,2,0,10,0,10,0,,,,,,,,,,,,,,,,,,,,,,,,,,,,,,,,,,,,,,,,,,,,,,,,,,,,,,,,,,,,,,,,,,,,,,0.065818418,,,,,,,,,,,,,,,,,,,,,,,,,,,,left,0,10,30,40,1,2865.406292,2865.406292,2865.406292,None,None,2,0,0.8065577,,,,,,,,,,,,,,,,,,,10,16,1,2024-10-30_14h59.33.231,uWM_experiment,2022.2.3,59.99887202
,,,,,,,,,,,,,,,,,,,,2,0,2,0,11,0,11,0,,,,,,,,,,,,,,,,,,,,,,,,,,,,,,,,,,,,,,,,,,,,,,,,,,,,,,,,,,,,,,,,,,,,,,0,,,,,,,,,,,,,,,,,,,,,,,,,,,,right,1,10,30,40,0,2875.673416,2875.673416,2875.673416,None,None,1,1,1.2754673,,,,,,,,,,,,,,,,,,,10,16,1,2024-10-30_14h59.33.231,uWM_experiment,2022.2.3,59.99887202
,,,,,,,,,,,,,,,,,,,,2,0,2,0,12,0,12,0,,,,,,,,,,,,,,,,,,,,,,,,,,,,,,,,,,,,,,,,,,,,,,,,,,,,,,,,,,,,,,,,,,,,,,0.1,,,,,,,,,,,,,,,,,,,,,,,,,,,,right,1,130,30,160,2,2884.190452,2884.190452,2884.190452,None,None,4,0,0.9904678,,,,,,,,,,,,,,,,,,,10,16,1,2024-10-30_14h59.33.231,uWM_experiment,2022.2.3,59.99887202
,,,,,,,,,,,,,,,,,,,,2,0,2,0,13,0,13,0,,,,,,,,,,,,,,,,,,,,,,,,,,,,,,,,,,,,,,,,,,,,,,,,,,,,,,,,,,,,,,,,,,,,,,0.055818418,,,,,,,,,,,,,,,,,,,,,,,,,,,,right,0,100,-30,70,1,2892.207517,2892.207517,2892.207517,None,None,1,1,0.8052527,,,,,,,,,,,,,,,,,,,10,16,1,2024-10-30_14h59.33.231,uWM_experiment,2022.2.3,59.99887202
,,,,,,,,,,,,,,,,,,,,2,0,2,0,14,0,14,0,,,,,,,,,,,,,,,,,,,,,,,,,,,,,,,,,,,,,,,,,,,,,,,,,,,,,,,,,,,,,,,,,,,,,,0,,,,,,,,,,,,,,,,,,,,,,,,,,,,right,1,100,30,130,0,2899.624477,2899.624477,2899.624477,None,None,1,1,0.884333,,,,,,,,,,,,,,,,,,,10,16,1,2024-10-30_14h59.33.231,uWM_experiment,2022.2.3,59.99887202
,,,,,,,,,,,,,,,,,,,,2,0,2,0,15,0,15,0,,,,,,,,,,,,,,,,,,,,,,,,,,,,,,,,,,,,,,,,,,,,,,,,,,,,,,,,,,,,,,,,,,,,,,0.065818418,,,,,,,,,,,,,,,,,,,,,,,,,,,,right,0,100,-30,70,1,2906.2081,2906.2081,2906.2081,None,None,1,1,0.4046787,,,,,,,,,,,,,,,,,,,10,16,1,2024-10-30_14h59.33.231,uWM_experiment,2022.2.3,59.99887202
,,,,,,,,,,,,,,,,,,,,2,0,2,0,16,0,16,0,,,,,,,,,,,,,,,,,,,,,,,,,,,,,,,,,,,,,,,,,,,,,,,,,,,,,,,,,,,,,,,,,,,,,,0.075818418,,,,,,,,,,,,,,,,,,,,,,,,,,,,right,0,70,-30,40,1,2914.425138,2914.425138,2914.425138,None,None,1,1,0.9477544,,,,,,,,,,,,,,,,,,,10,16,1,2024-10-30_14h59.33.231,uWM_experiment,2022.2.3,59.99887202
,,,,,,,,,,,,,,,,,,,,2,0,2,0,17,0,17,0,,,,,,,,,,,,,,,,,,,,,,,,,,,,,,,,,,,,,,,,,,,,,,,,,,,,,,,,,,,,,,,,,,,,,,0,,,,,,,,,,,,,,,,,,,,,,,,,,,,right,0,100,-30,70,0,2921.10879,2921.10879,2921.10879,None,None,1,1,0.4719854,,,,,,,,,,,,,,,,,,,10,16,1,2024-10-30_14h59.33.231,uWM_experiment,2022.2.3,59.99887202
,,,,,,,,,,,,,,,,,,,,2,0,2,0,18,0,18,0,,,,,,,,,,,,,,,,,,,,,,,,,,,,,,,,,,,,,,,,,,,,,,,,,,,,,,,,,,,,,,,,,,,,,,0.085818418,,,,,,,,,,,,,,,,,,,,,,,,,,,,left,0,160,30,190,1,2930.842567,2930.842567,2930.842567,None,None,1,1,0.5222323,,,,,,,,,,,,,,,,,,,10,16,1,2024-10-30_14h59.33.231,uWM_experiment,2022.2.3,59.99887202
,,,,,,,,,,,,,,,,,,,,2,0,2,0,19,0,19,0,,,,,,,,,,,,,,,,,,,,,,,,,,,,,,,,,,,,,,,,,,,,,,,,,,,,,,,,,,,,,,,,,,,,,,0.095818418,,,,,,,,,,,,,,,,,,,,,,,,,,,,left,1,70,-30,40,1,2938.526222,2938.526222,2938.526222,None,None,2,0,0.7107093,,,,,,,,,,,,,,,,,,,10,16,1,2024-10-30_14h59.33.231,uWM_experiment,2022.2.3,59.99887202
,,,,,,,,,,,,,,,,,,,,2,0,2,0,20,0,20,0,,,,,,,,,,,,,,,,,,,,,,,,,,,,,,,,,,,,,,,,,,,,,,,,,,,,,,,,,,,,,,,,,,,,,,0,,,,,,,,,,,,,,,,,,,,,,,,,,,,right,1,10,30,40,0,2945.843215,2945.843215,2945.843215,None,None,1,1,0.7375821,,,,,,,,,,,,,,,,,,,10,16,1,2024-10-30_14h59.33.231,uWM_experiment,2022.2.3,59.99887202
,,,,,,,,,,,,,,,,,,,,2,0,2,0,21,0,21,0,,,,,,,,,,,,,,,,,,,,,,,,,,,,,,,,,,,,,,,,,,,,,,,,,,,,,,,,,,,,,,,,,,,,,,0.085818418,,,,,,,,,,,,,,,,,,,,,,,,,,,,right,0,100,-30,70,1,2952.993558,2952.993558,2952.993558,None,None,2,0,1.2513853,,,,,,,,,,,,,,,,,,,10,16,1,2024-10-30_14h59.33.231,uWM_experiment,2022.2.3,59.99887202
,,,,,,,,,,,,,,,,,,,,2,0,2,0,22,0,22,0,,,,,,,,,,,,,,,,,,,,,,,,,,,,,,,,,,,,,,,,,,,,,,,,,,,,,,,,,,,,,,,,,,,,,,0.075818418,,,,,,,,,,,,,,,,,,,,,,,,,,,,left,0,100,30,130,1,2964.210712,2964.210712,2964.210712,None,None,2,0,2.17009,,,,,,,,,,,,,,,,,,,10,16,1,2024-10-30_14h59.33.231,uWM_experiment,2022.2.3,59.99887202
,,,,,,,,,,,,,,,,,,,,2,0,2,0,23,0,23,0,,,,,,,,,,,,,,,,,,,,,,,,,,,,,,,,,,,,,,,,,,,,,,,,,,,,,,,,,,,,,,,,,,,,,,0.065818418,,,,,,,,,,,,,,,,,,,,,,,,,,,,left,1,160,-30,130,1,2973.144432,2973.144432,2973.144432,None,None,2,0,1.1244281,,,,,,,,,,,,,,,,,,,10,16,1,2024-10-30_14h59.33.231,uWM_experiment,2022.2.3,59.99887202
,,,,,,,,,,,,,,,,,,,,2,0,2,0,,,,,0,0,0,0,,,,,,,,,,,,,,,,,,,,,,,,,,,,,,,,,,,,,,,,,,,,,,,,,,,,,,,,,,,,,,,,,,,,,,,,,,,,,,,,,,,,,,,,,,,,,,,,,,,,,,,,,,,,2974.294475,2974.294475,space,4.0224528,space,None,,2978.344683,2978.344683,14.2522727,,,,,,,,,10,16,1,2024-10-30_14h59.33.231,uWM_experiment,2022.2.3,59.99887202
,,,,,,,,,,,,,,,,,,,,2,0,2,0,,,,,1,0,1,0,,,,,,,,,,,,,,,,,,,,,,,,,,,,,,,,,,,,,,,,,,,,,,,,,,,,,,,,,,,,,,,,,,,,,,,,,,,,,,,,,,,,,,,,,,,,,,,,,,,,,,,,,,,,,,,,,,,,,,,,,,,,,,10,16,1,2024-10-30_14h59.33.231,uWM_experiment,2022.2.3,59.99887202
,,,,,,,,,,,,,,,,,,,,2,0,2,0,,,,,2,0,2,0,,,,,,,,,,,,,,,,,,,,,,,,,,,,,,,,,,,,,,,,,,,,,,,,,,,,,,,,,,,,,,,,,,,,,,,,,,,,,,,,,,,,,,,,,,,,,,,,,,,,,,,,,,,,,,,,,,,,,,,,,,,,,,10,16,1,2024-10-30_14h59.33.231,uWM_experiment,2022.2.3,59.99887202
,,,,,,,,,,,,,,,,,,,,3,0,3,0,0,0,0,0,,,,,,,,,,,,,,,,,,,,,,,,,,,,,,,,,,,,,,,,,,,,,,,,,,,,,,,,,,,,,,,,,,,,,,0,,,,,,,,,,,,,,,,,,,,2992.628654,2993.328668,2993.628679,2994.328714,2994.628779,2995.328757,2995.328757,2995.645454,left,0,100,30,130,0,3002.445745,3002.445745,3002.445745,None,None,1,1,3.583241,,,,,,,None,,,,,,,,,,,,10,16,1,2024-10-30_14h59.33.231,uWM_experiment,2022.2.3,59.99887202
,,,,,,,,,,,,,,,,,,,,3,0,3,0,1,0,1,0,,,,,,,,,,,,,,,,,,,,,,,,,,,,,,,,,,,,,,,,,,,,,,,,,,,,,,,,,,,,,,,,,,,,,,0.055818418,,,,,,,,,,,,,,,,,,,,,,,,,,,,right,1,160,30,190,1,3012.479528,3012.479528,3012.479528,None,None,1,1,1.6533227,,,,,,,,,,,,,,,,,,,10,16,1,2024-10-30_14h59.33.231,uWM_experiment,2022.2.3,59.99887202
,,,,,,,,,,,,,,,,,,,,3,0,3,0,2,0,2,0,,,,,,,,,,,,,,,,,,,,,,,,,,,,,,,,,,,,,,,,,,,,,,,,,,,,,,,,,,,,,,,,,,,,,,0.065818418,,,,,,,,,,,,,,,,,,,,,,,,,,,,left,0,100,30,130,1,3021.879966,3021.879966,3021.879966,None,None,2,0,0.716942,,,,,,,,,,,,,,,,,,,10,16,1,2024-10-30_14h59.33.231,uWM_experiment,2022.2.3,59.99887202
,,,,,,,,,,,,,,,,,,,,3,0,3,0,3,0,3,0,,,,,,,,,,,,,,,,,,,,,,,,,,,,,,,,,,,,,,,,,,,,,,,,,,,,,,,,,,,,,,,,,,,,,,0.055818418,,,,,,,,,,,,,,,,,,,,,,,,,,,,left,0,130,30,160,1,3032.330418,3032.330418,3032.330418,None,None,1,1,0.6586251,,,,,,,,,,,,,,,,,,,10,16,1,2024-10-30_14h59.33.231,uWM_experiment,2022.2.3,59.99887202
,,,,,,,,,,,,,,,,,,,,3,0,3,0,4,0,4,0,,,,,,,,,,,,,,,,,,,,,,,,,,,,,,,,,,,,,,,,,,,,,,,,,,,,,,,,,,,,,,,,,,,,,,0,,,,,,,,,,,,,,,,,,,,,,,,,,,,right,1,10,30,40,0,3040.914154,3040.914154,3040.914154,None,None,1,1,0.4670664,,,,,,,,,,,,,,,,,,,10,16,1,2024-10-30_14h59.33.231,uWM_experiment,2022.2.3,59.99887202
,,,,,,,,,,,,,,,,,,,,3,0,3,0,5,0,5,0,,,,,,,,,,,,,,,,,,,,,,,,,,,,,,,,,,,,,,,,,,,,,,,,,,,,,,,,,,,,,,,,,,,,,,0.065818418,,,,,,,,,,,,,,,,,,,,,,,,,,,,right,1,160,30,190,1,3048.647813,3048.647813,3048.647813,None,None,1,1,0.6051155,,,,,,,,,,,,,,,,,,,10,16,1,2024-10-30_14h59.33.231,uWM_experiment,2022.2.3,59.99887202
,,,,,,,,,,,,,,,,,,,,3,0,3,0,6,0,6,0,,,,,,,,,,,,,,,,,,,,,,,,,,,,,,,,,,,,,,,,,,,,,,,,,,,,,,,,,,,,,,,,,,,,,,0.075818418,,,,,,,,,,,,,,,,,,,,,,,,,,,,right,1,160,30,190,1,3055.881488,3055.881488,3055.881488,None,None,1,1,0.715405,,,,,,,,,,,,,,,,,,,10,16,1,2024-10-30_14h59.33.231,uWM_experiment,2022.2.3,59.99887202
,,,,,,,,,,,,,,,,,,,,3,0,3,0,7,0,7,0,,,,,,,,,,,,,,,,,,,,,,,,,,,,,,,,,,,,,,,,,,,,,,,,,,,,,,,,,,,,,,,,,,,,,,0.085818418,,,,,,,,,,,,,,,,,,,,,,,,,,,,right,0,10,-30,-20,1,3065.715252,3065.715252,3065.715252,None,None,2,0,0.7536335,,,,,,,,,,,,,,,,,,,10,16,1,2024-10-30_14h59.33.231,uWM_experiment,2022.2.3,59.99887202
,,,,,,,,,,,,,,,,,,,,3,0,3,0,8,0,8,0,,,,,,,,,,,,,,,,,,,,,,,,,,,,,,,,,,,,,,,,,,,,,,,,,,,,,,,,,,,,,,,,,,,,,,0.075818418,,,,,,,,,,,,,,,,,,,,,,,,,,,,right,0,40,-30,10,1,3073.532287,3073.532287,3073.532287,None,None,2,0,1.1767453,,,,,,,,,,,,,,,,,,,10,16,1,2024-10-30_14h59.33.231,uWM_experiment,2022.2.3,59.99887202
,,,,,,,,,,,,,,,,,,,,3,0,3,0,9,0,9,0,,,,,,,,,,,,,,,,,,,,,,,,,,,,,,,,,,,,,,,,,,,,,,,,,,,,,,,,,,,,,,,,,,,,,,0.1,,,,,,,,,,,,,,,,,,,,,,,,,,,,right,1,130,30,160,2,3081.699299,3081.699299,3081.699299,None,None,4,0,1.2175867,,,,,,,,,,,,,,,,,,,10,16,1,2024-10-30_14h59.33.231,uWM_experiment,2022.2.3,59.99887202
,,,,,,,,,,,,,,,,,,,,3,0,3,0,10,0,10,0,,,,,,,,,,,,,,,,,,,,,,,,,,,,,,,,,,,,,,,,,,,,,,,,,,,,,,,,,,,,,,,,,,,,,,0,,,,,,,,,,,,,,,,,,,,,,,,,,,,left,1,10,-30,-20,0,3089.949692,3089.949692,3089.949692,None,None,1,1,1.08717,,,,,,,,,,,,,,,,,,,10,16,1,2024-10-30_14h59.33.231,uWM_experiment,2022.2.3,59.99887202
,,,,,,,,,,,,,,,,,,,,3,0,3,0,11,0,11,0,,,,,,,,,,,,,,,,,,,,,,,,,,,,,,,,,,,,,,,,,,,,,,,,,,,,,,,,,,,,,,,,,,,,,,0,,,,,,,,,,,,,,,,,,,,,,,,,,,,left,0,70,30,100,0,3104.733684,3104.733684,3104.733684,None,None,1,1,0.6712156,,,,,,,,,,,,,,,,,,,10,16,1,2024-10-30_14h59.33.231,uWM_experiment,2022.2.3,59.99887202
,,,,,,,,,,,,,,,,,,,,3,0,3,0,12,0,12,0,,,,,,,,,,,,,,,,,,,,,,,,,,,,,,,,,,,,,,,,,,,,,,,,,,,,,,,,,,,,,,,,,,,,,,0,,,,,,,,,,,,,,,,,,,,,,,,,,,,left,1,160,-30,130,0,3112.050675,3112.050675,3112.050675,None,None,1,1,1.4183351,,,,,,,,,,,,,,,,,,,10,16,1,2024-10-30_14h59.33.231,uWM_experiment,2022.2.3,59.99887202
,,,,,,,,,,,,,,,,,,,,3,0,3,0,13,0,13,0,,,,,,,,,,,,,,,,,,,,,,,,,,,,,,,,,,,,,,,,,,,,,,,,,,,,,,,,,,,,,,,,,,,,,,0.065818418,,,,,,,,,,,,,,,,,,,,,,,,,,,,left,0,100,30,130,1,3122.417808,3122.417808,3122.417808,None,None,1,1,1.1152758,,,,,,,,,,,,,,,,,,,10,16,1,2024-10-30_14h59.33.231,uWM_experiment,2022.2.3,59.99887202
,,,,,,,,,,,,,,,,,,,,3,0,3,0,14,0,14,0,,,,,,,,,,,,,,,,,,,,,,,,,,,,,,,,,,,,,,,,,,,,,,,,,,,,,,,,,,,,,,,,,,,,,,0,,,,,,,,,,,,,,,,,,,,,,,,,,,,left,0,100,30,130,0,3129.751466,3129.751466,3129.751466,None,None,1,1,0.557593,,,,,,,,,,,,,,,,,,,10,16,1,2024-10-30_14h59.33.231,uWM_experiment,2022.2.3,59.99887202
,,,,,,,,,,,,,,,,,,,,3,0,3,0,15,0,15,0,,,,,,,,,,,,,,,,,,,,,,,,,,,,,,,,,,,,,,,,,,,,,,,,,,,,,,,,,,,,,,,,,,,,,,0,,,,,,,,,,,,,,,,,,,,,,,,,,,,left,1,10,-30,-20,0,3137.035124,3137.035124,3137.035124,None,None,1,1,0.8017886,,,,,,,,,,,,,,,,,,,10,16,1,2024-10-30_14h59.33.231,uWM_experiment,2022.2.3,59.99887202
,,,,,,,,,,,,,,,,,,,,3,0,3,0,16,0,16,0,,,,,,,,,,,,,,,,,,,,,,,,,,,,,,,,,,,,,,,,,,,,,,,,,,,,,,,,,,,,,,,,,,,,,,0.075818418,,,,,,,,,,,,,,,,,,,,,,,,,,,,left,1,160,-30,130,1,3143.852065,3143.852065,3143.852065,None,None,2,0,0.9289213,,,,,,,,,,,,,,,,,,,10,16,1,2024-10-30_14h59.33.231,uWM_experiment,2022.2.3,59.99887202
,,,,,,,,,,,,,,,,,,,,3,0,3,0,17,0,17,0,,,,,,,,,,,,,,,,,,,,,,,,,,,,,,,,,,,,,,,,,,,,,,,,,,,,,,,,,,,,,,,,,,,,,,0.065818418,,,,,,,,,,,,,,,,,,,,,,,,,,,,left,1,160,-30,130,1,3153.402509,3153.402509,3153.402509,None,None,3,0,1.9624434,,,,,,,,,,,,,,,,,,,10,16,1,2024-10-30_14h59.33.231,uWM_experiment,2022.2.3,59.99887202
,,,,,,,,,,,,,,,,,,,,3,0,3,0,18,0,18,0,,,,,,,,,,,,,,,,,,,,,,,,,,,,,,,,,,,,,,,,,,,,,,,,,,,,,,,,,,,,,,,,,,,,,,0,,,,,,,,,,,,,,,,,,,,,,,,,,,,left,0,70,30,100,0,3161.4862,3161.4862,3161.4862,None,None,1,1,0.7187213,,,,,,,,,,,,,,,,,,,10,16,1,2024-10-30_14h59.33.231,uWM_experiment,2022.2.3,59.99887202
,,,,,,,,,,,,,,,,,,,,3,0,3,0,19,0,19,0,,,,,,,,,,,,,,,,,,,,,,,,,,,,,,,,,,,,,,,,,,,,,,,,,,,,,,,,,,,,,,,,,,,,,,0.055818418,,,,,,,,,,,,,,,,,,,,,,,,,,,,right,1,10,30,40,1,3168.569846,3168.569846,3168.569846,None,None,1,1,0.3471496,,,,,,,,,,,,,,,,,,,10,16,1,2024-10-30_14h59.33.231,uWM_experiment,2022.2.3,59.99887202
,,,,,,,,,,,,,,,,,,,,3,0,3,0,20,0,20,0,,,,,,,,,,,,,,,,,,,,,,,,,,,,,,,,,,,,,,,,,,,,,,,,,,,,,,,,,,,,,,,,,,,,,,0.065818418,,,,,,,,,,,,,,,,,,,,,,,,,,,,right,1,40,30,70,1,3174.803451,3174.803451,3174.803451,None,None,2,0,0.9694821,,,,,,,,,,,,,,,,,,,10,16,1,2024-10-30_14h59.33.231,uWM_experiment,2022.2.3,59.99887202
,,,,,,,,,,,,,,,,,,,,3,0,3,0,21,0,21,0,,,,,,,,,,,,,,,,,,,,,,,,,,,,,,,,,,,,,,,,,,,,,,,,,,,,,,,,,,,,,,,,,,,,,,0.055818418,,,,,,,,,,,,,,,,,,,,,,,,,,,,left,1,160,-30,130,1,3182.920502,3182.920502,3182.920502,None,None,2,0,0.4844378,,,,,,,,,,,,,,,,,,,10,16,1,2024-10-30_14h59.33.231,uWM_experiment,2022.2.3,59.99887202
,,,,,,,,,,,,,,,,,,,,3,0,3,0,22,0,22,0,,,,,,,,,,,,,,,,,,,,,,,,,,,,,,,,,,,,,,,,,,,,,,,,,,,,,,,,,,,,,,,,,,,,,,0,,,,,,,,,,,,,,,,,,,,,,,,,,,,right,1,160,30,190,0,3189.637479,3189.637479,3189.637479,None,None,1,1,0.6554729,,,,,,,,,,,,,,,,,,,10,16,1,2024-10-30_14h59.33.231,uWM_experiment,2022.2.3,59.99887202
,,,,,,,,,,,,,,,,,,,,3,0,3,0,23,0,23,0,,,,,,,,,,,,,,,,,,,,,,,,,,,,,,,,,,,,,,,,,,,,,,,,,,,,,,,,,,,,,,,,,,,,,,0,,,,,,,,,,,,,,,,,,,,,,,,,,,,left,0,70,30,100,0,3197.687834,3197.687834,3197.687834,None,None,1,1,4.7732653,,,,,,,,,,,,,,,,,,,10,16,1,2024-10-30_14h59.33.231,uWM_experiment,2022.2.3,59.99887202
,,,,,,,,,,,,,,,,,,,,3,0,3,0,,,,,0,0,0,0,,,,,,,,,,,,,,,,,,,,,,,,,,,,,,,,,,,,,,,,,,,,,,,,,,,,,,,,,,,,,,,,,,,,,,,,,,,,,,,,,,,,,,,,,,,,,,,,,,,,,,,,,,,,3202.488018,3202.488018,space,4.9251036,None,None,,,,,,,,,,,,,10,16,1,2024-10-30_14h59.33.231,uWM_experiment,2022.2.3,59.99887202
,,,,,,,,,,,,,,,,,,,,3,0,3,0,,,,,1,0,1,0,,,,,,,,,,,,,,,,,,,,,,,,,,,,,,,,,,,,,,,,,,,,,,,,,,,,,,,,,,,,,,,,,,,,,,,,,,,,,,,,,,,,,,,,,,,,,,,,,,,,,,,,,,,,,,,,,,,,,,,,,,,,,,10,16,1,2024-10-30_14h59.33.231,uWM_experiment,2022.2.3,59.99887202
,,,,,,,,,,,,,,,,,,,,3,0,3,0,,,,,2,0,2,0,,,,,,,,,,,,,,,,,,,,,,,,,,,,,,,,,,,,,,,,,,,,,,,,,,,,,,,,,,,,,,,,,,,,,,,,,,,,,,,,,,,,,,,,,,,,,,,,,,,,,,,,,,,,,,,,,,,,,,,,,,,,,,10,16,1,2024-10-30_14h59.33.231,uWM_experiment,2022.2.3,59.99887202
,,,,,,,,,,,,,,,,,,,,4,0,4,0,0,0,0,0,,,,,,,,,,,,,,,,,,,,,,,,,,,,,,,,,,,,,,,,,,,,,,,,,,,,,,,,,,,,,,,,,,,,,,0.045818418,,,,,,,,,,,,,,,,,,,,3207.438248,3208.138279,3208.438325,3209.138323,3209.43834,3210.138387,3210.138387,3210.455065,right,1,10,30,40,1,3215.921976,3215.921976,3215.921976,None,None,1,1,0.4509644,,,,,,,None,,,,,,,,,,,,10,16,1,2024-10-30_14h59.33.231,uWM_experiment,2022.2.3,59.99887202
,,,,,,,,,,,,,,,,,,,,4,0,4,0,1,0,1,0,,,,,,,,,,,,,,,,,,,,,,,,,,,,,,,,,,,,,,,,,,,,,,,,,,,,,,,,,,,,,,,,,,,,,,0.055818418,,,,,,,,,,,,,,,,,,,,,,,,,,,,left,0,70,30,100,1,3223.638993,3223.638993,3223.638993,None,None,1,1,1.1420042,,,,,,,,,,,,,,,,,,,10,16,1,2024-10-30_14h59.33.231,uWM_experiment,2022.2.3,59.99887202
,,,,,,,,,,,,,,,,,,,,4,0,4,0,2,0,2,0,,,,,,,,,,,,,,,,,,,,,,,,,,,,,,,,,,,,,,,,,,,,,,,,,,,,,,,,,,,,,,,,,,,,,,0.065818418,,,,,,,,,,,,,,,,,,,,,,,,,,,,left,1,160,-30,130,1,3231.572681,3231.572681,3231.572681,None,None,1,1,2.4084166,,,,,,,,,,,,,,,,,,,10,16,1,2024-10-30_14h59.33.231,uWM_experiment,2022.2.3,59.99887202
,,,,,,,,,,,,,,,,,,,,4,0,4,0,3,0,3,0,,,,,,,,,,,,,,,,,,,,,,,,,,,,,,,,,,,,,,,,,,,,,,,,,,,,,,,,,,,,,,,,,,,,,,0,,,,,,,,,,,,,,,,,,,,,,,,,,,,left,0,100,30,130,0,3240.639749,3240.639749,3240.639749,None,None,1,1,0.493406,,,,,,,,,,,,,,,,,,,10,16,1,2024-10-30_14h59.33.231,uWM_experiment,2022.2.3,59.99887202
,,,,,,,,,,,,,,,,,,,,4,0,4,0,4,0,4,0,,,,,,,,,,,,,,,,,,,,,,,,,,,,,,,,,,,,,,,,,,,,,,,,,,,,,,,,,,,,,,,,,,,,,,0.075818418,,,,,,,,,,,,,,,,,,,,,,,,,,,,right,0,130,-30,100,1,3247.790078,3247.790078,3247.790078,None,None,2,0,1.0229843,,,,,,,,,,,,,,,,,,,10,16,1,2024-10-30_14h59.33.231,uWM_experiment,2022.2.3,59.99887202
,,,,,,,,,,,,,,,,,,,,4,0,4,0,5,0,5,0,,,,,,,,,,,,,,,,,,,,,,,,,,,,,,,,,,,,,,,,,,,,,,,,,,,,,,,,,,,,,,,,,,,,,,0.065818418,,,,,,,,,,,,,,,,,,,,,,,,,,,,right,0,70,-30,40,1,3256.323773,3256.323773,3256.323773,None,None,1,1,0.9133295,,,,,,,,,,,,,,,,,,,10,16,1,2024-10-30_14h59.33.231,uWM_experiment,2022.2.3,59.99887202
,,,,,,,,,,,,,,,,,,,,4,0,4,0,6,0,6,0,,,,,,,,,,,,,,,,,,,,,,,,,,,,,,,,,,,,,,,,,,,,,,,,,,,,,,,,,,,,,,,,,,,,,,0.075818418,,,,,,,,,,,,,,,,,,,,,,,,,,,,left,1,10,-30,-20,1,3263.257457,3263.257457,3263.257457,None,None,2,0,0.7236404,,,,,,,,,,,,,,,,,,,10,16,1,2024-10-30_14h59.33.231,uWM_experiment,2022.2.3,59.99887202
,,,,,,,,,,,,,,,,,,,,4,0,4,0,7,0,7,0,,,,,,,,,,,,,,,,,,,,,,,,,,,,,,,,,,,,,,,,,,,,,,,,,,,,,,,,,,,,,,,,,,,,,,0.065818418,,,,,,,,,,,,,,,,,,,,,,,,,,,,left,1,160,-30,130,1,3270.191062,3270.191062,3270.191062,None,None,2,0,0.8859398,,,,,,,,,,,,,,,,,,,10,16,1,2024-10-30_14h59.33.231,uWM_experiment,2022.2.3,59.99887202
,,,,,,,,,,,,,,,,,,,,4,0,4,0,8,0,8,0,,,,,,,,,,,,,,,,,,,,,,,,,,,,,,,,,,,,,,,,,,,,,,,,,,,,,,,,,,,,,,,,,,,,,,0.055818418,,,,,,,,,,,,,,,,,,,,,,,,,,,,left,0,100,30,130,1,3277.074693,3277.074693,3277.074693,None,None,1,1,0.4903738,,,,,,,,,,,,,,,,,,,10,16,1,2024-10-30_14h59.33.231,uWM_experiment,2022.2.3,59.99887202
,,,,,,,,,,,,,,,,,,,,4,0,4,0,9,0,9,0,,,,,,,,,,,,,,,,,,,,,,,,,,,,,,,,,,,,,,,,,,,,,,,,,,,,,,,,,,,,,,,,,,,,,,0.065818418,,,,,,,,,,,,,,,,,,,,,,,,,,,,right,1,160,30,190,1,3284.625047,3284.625047,3284.625047,None,None,2,0,0.8039247,,,,,,,,,,,,,,,,,,,10,16,1,2024-10-30_14h59.33.231,uWM_experiment,2022.2.3,59.99887202
,,,,,,,,,,,,,,,,,,,,4,0,4,0,10,0,10,0,,,,,,,,,,,,,,,,,,,,,,,,,,,,,,,,,,,,,,,,,,,,,,,,,,,,,,,,,,,,,,,,,,,,,,0.055818418,,,,,,,,,,,,,,,,,,,,,,,,,,,,right,1,40,30,70,1,3292.508726,3292.508726,3292.508726,None,None,2,0,0.4324342,,,,,,,,,,,,,,,,,,,10,16,1,2024-10-30_14h59.33.231,uWM_experiment,2022.2.3,59.99887202
,,,,,,,,,,,,,,,,,,,,4,0,4,0,11,0,11,0,,,,,,,,,,,,,,,,,,,,,,,,,,,,,,,,,,,,,,,,,,,,,,,,,,,,,,,,,,,,,,,,,,,,,,0.1,,,,,,,,,,,,,,,,,,,,,,,,,,,,right,1,40,30,70,2,3299.40903,3299.40903,3299.40903,None,None,4,0,1.683967,,,,,,,,,,,,,,,,,,,10,16,1,2024-10-30_14h59.33.231,uWM_experiment,2022.2.3,59.99887202
,,,,,,,,,,,,,,,,,,,,4,0,4,0,12,0,12,0,,,,,,,,,,,,,,,,,,,,,,,,,,,,,,,,,,,,,,,,,,,,,,,,,,,,,,,,,,,,,,,,,,,,,,0.045818418,,,,,,,,,,,,,,,,,,,,,,,,,,,,left,1,130,-30,100,1,3307.042697,3307.042697,3307.042697,None,None,1,1,0.5543007,,,,,,,,,,,,,,,,,,,10,16,1,2024-10-30_14h59.33.231,uWM_experiment,2022.2.3,59.99887202
,,,,,,,,,,,,,,,,,,,,4,0,4,0,13,0,13,0,,,,,,,,,,,,,,,,,,,,,,,,,,,,,,,,,,,,,,,,,,,,,,,,,,,,,,,,,,,,,,,,,,,,,,0,,,,,,,,,,,,,,,,,,,,,,,,,,,,left,0,70,30,100,0,3314.976416,3314.976416,3314.976416,None,None,1,1,0.7967485,,,,,,,,,,,,,,,,,,,10,16,1,2024-10-30_14h59.33.231,uWM_experiment,2022.2.3,59.99887202
,,,,,,,,,,,,,,,,,,,,4,0,4,0,14,0,14,0,,,,,,,,,,,,,,,,,,,,,,,,,,,,,,,,,,,,,,,,,,,,,,,,,,,,,,,,,,,,,,,,,,,,,,0,,,,,,,,,,,,,,,,,,,,,,,,,,,,left,0,130,30,160,0,3323.526802,3323.526802,3323.526802,None,None,1,1,2.4861962,,,,,,,,,,,,,,,,,,,10,16,1,2024-10-30_14h59.33.231,uWM_experiment,2022.2.3,59.99887202
,,,,,,,,,,,,,,,,,,,,4,0,4,0,15,0,15,0,,,,,,,,,,,,,,,,,,,,,,,,,,,,,,,,,,,,,,,,,,,,,,,,,,,,,,,,,,,,,,,,,,,,,,0,,,,,,,,,,,,,,,,,,,,,,,,,,,,left,1,10,-30,-20,0,3333.293892,3333.293892,3333.293892,None,None,1,1,0.255145,,,,,,,,,,,,,,,,,,,10,16,1,2024-10-30_14h59.33.231,uWM_experiment,2022.2.3,59.99887202
,,,,,,,,,,,,,,,,,,,,4,0,4,0,16,0,16,0,,,,,,,,,,,,,,,,,,,,,,,,,,,,,,,,,,,,,,,,,,,,,,,,,,,,,,,,,,,,,,,,,,,,,,0.055818418,,,,,,,,,,,,,,,,,,,,,,,,,,,,left,0,70,30,100,1,3340.294219,3340.294219,3340.294219,None,None,1,1,0.3988765,,,,,,,,,,,,,,,,,,,10,16,1,2024-10-30_14h59.33.231,uWM_experiment,2022.2.3,59.99887202
,,,,,,,,,,,,,,,,,,,,4,0,4,0,17,0,17,0,,,,,,,,,,,,,,,,,,,,,,,,,,,,,,,,,,,,,,,,,,,,,,,,,,,,,,,,,,,,,,,,,,,,,,0.065818418,,,,,,,,,,,,,,,,,,,,,,,,,,,,left,0,10,30,40,1,3347.177863,3347.177863,3347.177863,None,None,2,0,1.0351533,,,,,,,,,,,,,,,,,,,10,16,1,2024-10-30_14h59.33.231,uWM_experiment,2022.2.3,59.99887202
,,,,,,,,,,,,,,,,,,,,4,0,4,0,18,0,18,0,,,,,,,,,,,,,,,,,,,,,,,,,,,,,,,,,,,,,,,,,,,,,,,,,,,,,,,,,,,,,,,,,,,,,,0.055818418,,,,,,,,,,,,,,,,,,,,,,,,,,,,left,1,10,-30,-20,1,3354.328156,3354.328156,3354.328156,None,None,1,1,0.6849729,,,,,,,,,,,,,,,,,,,10,16,1,2024-10-30_14h59.33.231,uWM_experiment,2022.2.3,59.99887202
,,,,,,,,,,,,,,,,,,,,4,0,4,0,19,0,19,0,,,,,,,,,,,,,,,,,,,,,,,,,,,,,,,,,,,,,,,,,,,,,,,,,,,,,,,,,,,,,,,,,,,,,,0,,,,,,,,,,,,,,,,,,,,,,,,,,,,left,0,70,30,100,0,3361.911836,3361.911836,3361.911836,None,None,1,1,1.6453238,,,,,,,,,,,,,,,,,,,10,16,1,2024-10-30_14h59.33.231,uWM_experiment,2022.2.3,59.99887202
,,,,,,,,,,,,,,,,,,,,4,0,4,0,20,0,20,0,,,,,,,,,,,,,,,,,,,,,,,,,,,,,,,,,,,,,,,,,,,,,,,,,,,,,,,,,,,,,,,,,,,,,,0.065818418,,,,,,,,,,,,,,,,,,,,,,,,,,,,left,1,160,-30,130,1,3370.795575,3370.795575,3370.795575,None,None,2,0,2.4736269,,,,,,,,,,,,,,,,,,,10,16,1,2024-10-30_14h59.33.231,uWM_experiment,2022.2.3,59.99887202
,,,,,,,,,,,,,,,,,,,,4,0,4,0,21,0,21,0,,,,,,,,,,,,,,,,,,,,,,,,,,,,,,,,,,,,,,,,,,,,,,,,,,,,,,,,,,,,,,,,,,,,,,0.055818418,,,,,,,,,,,,,,,,,,,,,,,,,,,,left,1,130,-30,100,1,3379.895974,3379.895974,3379.895974,None,None,2,0,2.0050646,,,,,,,,,,,,,,,,,,,10,16,1,2024-10-30_14h59.33.231,uWM_experiment,2022.2.3,59.99887202
,,,,,,,,,,,,,,,,,,,,4,0,4,0,22,0,22,0,,,,,,,,,,,,,,,,,,,,,,,,,,,,,,,,,,,,,,,,,,,,,,,,,,,,,,,,,,,,,,,,,,,,,,0,,,,,,,,,,,,,,,,,,,,,,,,,,,,left,0,70,30,100,0,3387.979665,3387.979665,3387.979665,None,None,1,1,0.6095552,,,,,,,,,,,,,,,,,,,10,16,1,2024-10-30_14h59.33.231,uWM_experiment,2022.2.3,59.99887202
,,,,,,,,,,,,,,,,,,,,4,0,4,0,23,0,23,0,,,,,,,,,,,,,,,,,,,,,,,,,,,,,,,,,,,,,,,,,,,,,,,,,,,,,,,,,,,,,,,,,,,,,,0.045818418,,,,,,,,,,,,,,,,,,,,,,,,,,,,left,0,70,30,100,1,3395.096651,3395.096651,3395.096651,None,None,1,1,0.2684561,,,,,,,,,,,,,,,,,,,10,16,1,2024-10-30_14h59.33.231,uWM_experiment,2022.2.3,59.99887202
,,,,,,,,,,,,,,,,,,,,4,0,4,0,,,,,0,0,0,0,,,,,,,,,,,,,,,,,,,,,,,,,,,,,,,,,,,,,,,,,,,,,,,,,,,,,,,,,,,,,,,,,,,,,,,,,,,,,,,,,,,,,,,,,,,,,,,,,,,,,,,,,,,,3395.396647,3395.396647,space,74.6725672,None,None,,,,,,,,,,,,,10,16,1,2024-10-30_14h59.33.231,uWM_experiment,2022.2.3,59.99887202
,,,,,,,,,,,,,,,,,,,,4,0,4,0,,,,,1,0,1,0,,,,,,,,,,,,,,,,,,,,,,,,,,,,,,,,,,,,,,,,,,,,,,,,,,,,,,,,,,,,,,,,,,,,,,,,,,,,,,,,,,,,,,,,,,,,,,,,,,,,,,,,,,,,,,,,,,,,,,,,,,,,,,10,16,1,2024-10-30_14h59.33.231,uWM_experiment,2022.2.3,59.99887202
,,,,,,,,,,,,,,,,,,,,4,0,4,0,,,,,2,0,2,0,,,,,,,,,,,,,,,,,,,,,,,,,,,,,,,,,,,,,,,,,,,,,,,,,,,,,,,,,,,,,,,,,,,,,,,,,,,,,,,,,,,,,,,,,,,,,,,,,,,,,,,,,,,,,,,,,,,,,,,,,,,,,,10,16,1,2024-10-30_14h59.33.231,uWM_experiment,2022.2.3,59.99887202
,,,,,,,,,,,,,,,,,,,,5,0,5,0,0,0,0,0,,,,,,,,,,,,,,,,,,,,,,,,,,,,,,,,,,,,,,,,,,,,,,,,,,,,,,,,,,,,,,,,,,,,,,0.055818418,,,,,,,,,,,,,,,,,,,,3470.100015,3470.800045,3471.100058,3471.800091,3472.100118,3472.800121,3472.800121,3473.11683,right,1,160,30,190,1,3478.133732,3478.133732,3478.133732,None,None,1,1,1.59954,,,,,,,None,,,,,,,,,,,,10,16,1,2024-10-30_14h59.33.231,uWM_experiment,2022.2.3,59.99887202
,,,,,,,,,,,,,,,,,,,,5,0,5,0,1,0,1,0,,,,,,,,,,,,,,,,,,,,,,,,,,,,,,,,,,,,,,,,,,,,,,,,,,,,,,,,,,,,,,,,,,,,,,0,,,,,,,,,,,,,,,,,,,,,,,,,,,,left,1,160,-30,130,0,3485.600733,3485.600733,3485.600733,None,None,1,1,1.6444738,,,,,,,,,,,,,,,,,,,10,16,1,2024-10-30_14h59.33.231,uWM_experiment,2022.2.3,59.99887202
,,,,,,,,,,,,,,,,,,,,5,0,5,0,2,0,2,0,,,,,,,,,,,,,,,,,,,,,,,,,,,,,,,,,,,,,,,,,,,,,,,,,,,,,,,,,,,,,,,,,,,,,,0.065818418,,,,,,,,,,,,,,,,,,,,,,,,,,,,right,1,160,30,190,1,3496.60122,3496.60122,3496.60122,None,None,2,0,1.3159975,,,,,,,,,,,,,,,,,,,10,16,1,2024-10-30_14h59.33.231,uWM_experiment,2022.2.3,59.99887202
,,,,,,,,,,,,,,,,,,,,5,0,5,0,3,0,3,0,,,,,,,,,,,,,,,,,,,,,,,,,,,,,,,,,,,,,,,,,,,,,,,,,,,,,,,,,,,,,,,,,,,,,,0.055818418,,,,,,,,,,,,,,,,,,,,,,,,,,,,left,0,100,30,130,1,3503.768211,3503.768211,3503.768211,None,None,1,1,2.1490548,,,,,,,,,,,,,,,,,,,10,16,1,2024-10-30_14h59.33.231,uWM_experiment,2022.2.3,59.99887202
,,,,,,,,,,,,,,,,,,,,5,0,5,0,4,0,4,0,,,,,,,,,,,,,,,,,,,,,,,,,,,,,,,,,,,,,,,,,,,,,,,,,,,,,,,,,,,,,,,,,,,,,,0.065818418,,,,,,,,,,,,,,,,,,,,,,,,,,,,right,1,40,30,70,1,3511.651885,3511.651885,3511.651885,None,None,2,0,0.6892403,,,,,,,,,,,,,,,,,,,10,16,1,2024-10-30_14h59.33.231,uWM_experiment,2022.2.3,59.99887202
,,,,,,,,,,,,,,,,,,,,5,0,5,0,5,0,5,0,,,,,,,,,,,,,,,,,,,,,,,,,,,,,,,,,,,,,,,,,,,,,,,,,,,,,,,,,,,,,,,,,,,,,,0,,,,,,,,,,,,,,,,,,,,,,,,,,,,right,1,160,30,190,0,3522.269037,3522.269037,3522.269037,None,None,2,0,1.9680642,,,,,,,,,,,,,,,,,,,10,16,1,2024-10-30_14h59.33.231,uWM_experiment,2022.2.3,59.99887202
,,,,,,,,,,,,,,,,,,,,5,0,5,0,6,0,6,0,,,,,,,,,,,,,,,,,,,,,,,,,,,,,,,,,,,,,,,,,,,,,,,,,,,,,,,,,,,,,,,,,,,,,,0.055818418,,,,,,,,,,,,,,,,,,,,,,,,,,,,right,1,40,30,70,1,3530.352737,3530.352737,3530.352737,None,None,1,1,0.844506,,,,,,,,,,,,,,,,,,,10,16,1,2024-10-30_14h59.33.231,uWM_experiment,2022.2.3,59.99887202
,,,,,,,,,,,,,,,,,,,,5,0,5,0,7,0,7,0,,,,,,,,,,,,,,,,,,,,,,,,,,,,,,,,,,,,,,,,,,,,,,,,,,,,,,,,,,,,,,,,,,,,,,0,,,,,,,,,,,,,,,,,,,,,,,,,,,,left,0,100,30,130,0,3538.536434,3538.536434,3538.536434,None,None,1,1,1.2846858,,,,,,,,,,,,,,,,,,,10,16,1,2024-10-30_14h59.33.231,uWM_experiment,2022.2.3,59.99887202
,,,,,,,,,,,,,,,,,,,,5,0,5,0,8,0,8,0,,,,,,,,,,,,,,,,,,,,,,,,,,,,,,,,,,,,,,,,,,,,,,,,,,,,,,,,,,,,,,,,,,,,,,0.065818418,,,,,,,,,,,,,,,,,,,,,,,,,,,,left,1,130,-30,100,1,3548.336875,3548.336875,3548.336875,None,None,3,0,4.0923551,,,,,,,,,,,,,,,,,,,10,16,1,2024-10-30_14h59.33.231,uWM_experiment,2022.2.3,59.99887202
,,,,,,,,,,,,,,,,,,,,5,0,5,0,9,0,9,0,,,,,,,,,,,,,,,,,,,,,,,,,,,,,,,,,,,,,,,,,,,,,,,,,,,,,,,,,,,,,,,,,,,,,,0.055818418,,,,,,,,,,,,,,,,,,,,,,,,,,,,right,0,70,-30,40,1,3558.570663,3558.570663,3558.570663,None,None,1,1,2.5385453,,,,,,,,,,,,,,,,,,,10,16,1,2024-10-30_14h59.33.231,uWM_experiment,2022.2.3,59.99887202
,,,,,,,,,,,,,,,,,,,,5,0,5,0,10,0,10,0,,,,,,,,,,,,,,,,,,,,,,,,,,,,,,,,,,,,,,,,,,,,,,,,,,,,,,,,,,,,,,,,,,,,,,0.065818418,,,,,,,,,,,,,,,,,,,,,,,,,,,,left,1,70,-30,40,1,3567.171051,3567.171051,3567.171051,None,None,2,0,1.258191,,,,,,,,,,,,,,,,,,,10,16,1,2024-10-30_14h59.33.231,uWM_experiment,2022.2.3,59.99887202
,,,,,,,,,,,,,,,,,,,,5,0,5,0,11,0,11,0,,,,,,,,,,,,,,,,,,,,,,,,,,,,,,,,,,,,,,,,,,,,,,,,,,,,,,,,,,,,,,,,,,,,,,0.055818418,,,,,,,,,,,,,,,,,,,,,,,,,,,,right,0,70,-30,40,1,3574.154684,3574.154684,3574.154684,None,None,1,1,2.0586349,,,,,,,,,,,,,,,,,,,10,16,1,2024-10-30_14h59.33.231,uWM_experiment,2022.2.3,59.99887202
,,,,,,,,,,,,,,,,,,,,5,0,5,0,12,0,12,0,,,,,,,,,,,,,,,,,,,,,,,,,,,,,,,,,,,,,,,,,,,,,,,,,,,,,,,,,,,,,,,,,,,,,,0,,,,,,,,,,,,,,,,,,,,,,,,,,,,left,1,160,-30,130,0,3582.321708,3582.321708,3582.321708,None,None,1,1,0.6436504,,,,,,,,,,,,,,,,,,,10,16,1,2024-10-30_14h59.33.231,uWM_experiment,2022.2.3,59.99887202
,,,,,,,,,,,,,,,,,,,,5,0,5,0,13,0,13,0,,,,,,,,,,,,,,,,,,,,,,,,,,,,,,,,,,,,,,,,,,,,,,,,,,,,,,,,,,,,,,,,,,,,,,0.065818418,,,,,,,,,,,,,,,,,,,,,,,,,,,,left,0,70,30,100,1,3589.388715,3589.388715,3589.388715,None,None,2,0,0.4324953,,,,,,,,,,,,,,,,,,,10,16,1,2024-10-30_14h59.33.231,uWM_experiment,2022.2.3,59.99887202
,,,,,,,,,,,,,,,,,,,,5,0,5,0,14,0,14,0,,,,,,,,,,,,,,,,,,,,,,,,,,,,,,,,,,,,,,,,,,,,,,,,,,,,,,,,,,,,,,,,,,,,,,0.055818418,,,,,,,,,,,,,,,,,,,,,,,,,,,,right,0,100,-30,70,1,3596.238997,3596.238997,3596.238997,None,None,2,0,0.8063323,,,,,,,,,,,,,,,,,,,10,16,1,2024-10-30_14h59.33.231,uWM_experiment,2022.2.3,59.99887202
,,,,,,,,,,,,,,,,,,,,5,0,5,0,15,0,15,0,,,,,,,,,,,,,,,,,,,,,,,,,,,,,,,,,,,,,,,,,,,,,,,,,,,,,,,,,,,,,,,,,,,,,,0.1,,,,,,,,,,,,,,,,,,,,,,,,,,,,right,1,130,30,160,2,3603.822683,3603.822683,3603.822683,None,None,4,0,0.8946413,,,,,,,,,,,,,,,,,,,10,16,1,2024-10-30_14h59.33.231,uWM_experiment,2022.2.3,59.99887202
,,,,,,,,,,,,,,,,,,,,5,0,5,0,16,0,16,0,,,,,,,,,,,,,,,,,,,,,,,,,,,,,,,,,,,,,,,,,,,,,,,,,,,,,,,,,,,,,,,,,,,,,,0,,,,,,,,,,,,,,,,,,,,,,,,,,,,right,1,40,30,70,0,3611.256363,3611.256363,3611.256363,None,None,1,1,0.804822,,,,,,,,,,,,,,,,,,,10,16,1,2024-10-30_14h59.33.231,uWM_experiment,2022.2.3,59.99887202
,,,,,,,,,,,,,,,,,,,,5,0,5,0,17,0,17,0,,,,,,,,,,,,,,,,,,,,,,,,,,,,,,,,,,,,,,,,,,,,,,,,,,,,,,,,,,,,,,,,,,,,,,0,,,,,,,,,,,,,,,,,,,,,,,,,,,,right,1,10,30,40,0,3618.523312,3618.523312,3618.523312,None,None,1,1,1.153864,,,,,,,,,,,,,,,,,,,10,16,1,2024-10-30_14h59.33.231,uWM_experiment,2022.2.3,59.99887202
,,,,,,,,,,,,,,,,,,,,5,0,5,0,18,0,18,0,,,,,,,,,,,,,,,,,,,,,,,,,,,,,,,,,,,,,,,,,,,,,,,,,,,,,,,,,,,,,,,,,,,,,,0,,,,,,,,,,,,,,,,,,,,,,,,,,,,left,1,130,-30,100,0,3629.457146,3629.457146,3629.457146,None,None,1,1,2.2921115,,,,,,,,,,,,,,,,,,,10,16,1,2024-10-30_14h59.33.231,uWM_experiment,2022.2.3,59.99887202
,,,,,,,,,,,,,,,,,,,,5,0,5,0,19,0,19,0,,,,,,,,,,,,,,,,,,,,,,,,,,,,,,,,,,,,,,,,,,,,,,,,,,,,,,,,,,,,,,,,,,,,,,0.1,,,,,,,,,,,,,,,,,,,,,,,,,,,,left,0,160,30,190,2,3642.157724,3642.157724,3642.157724,None,None,4,0,1.0874503,,,,,,,,,,,,,,,,,,,10,16,1,2024-10-30_14h59.33.231,uWM_experiment,2022.2.3,59.99887202
,,,,,,,,,,,,,,,,,,,,5,0,5,0,20,0,20,0,,,,,,,,,,,,,,,,,,,,,,,,,,,,,,,,,,,,,,,,,,,,,,,,,,,,,,,,,,,,,,,,,,,,,,0,,,,,,,,,,,,,,,,,,,,,,,,,,,,right,1,160,30,190,0,3653.308241,3653.308241,3653.308241,None,None,1,1,0.7610564,,,,,,,,,,,,,,,,,,,10,16,1,2024-10-30_14h59.33.231,uWM_experiment,2022.2.3,59.99887202
,,,,,,,,,,,,,,,,,,,,5,0,5,0,21,0,21,0,,,,,,,,,,,,,,,,,,,,,,,,,,,,,,,,,,,,,,,,,,,,,,,,,,,,,,,,,,,,,,,,,,,,,,0,,,,,,,,,,,,,,,,,,,,,,,,,,,,right,0,40,-30,10,0,3659.775173,3659.775173,3659.775173,None,None,1,1,0.8860267,,,,,,,,,,,,,,,,,,,10,16,1,2024-10-30_14h59.33.231,uWM_experiment,2022.2.3,59.99887202
,,,,,,,,,,,,,,,,,,,,5,0,5,0,22,0,22,0,,,,,,,,,,,,,,,,,,,,,,,,,,,,,,,,,,,,,,,,,,,,,,,,,,,,,,,,,,,,,,,,,,,,,,0.045818418,,,,,,,,,,,,,,,,,,,,,,,,,,,,left,1,130,-30,100,1,3667.608856,3667.608856,3667.608856,None,None,1,1,0.7005117,,,,,,,,,,,,,,,,,,,10,16,1,2024-10-30_14h59.33.231,uWM_experiment,2022.2.3,59.99887202
,,,,,,,,,,,,,,,,,,,,5,0,5,0,23,0,23,0,,,,,,,,,,,,,,,,,,,,,,,,,,,,,,,,,,,,,,,,,,,,,,,,,,,,,,,,,,,,,,,,,,,,,,0.055818418,,,,,,,,,,,,,,,,,,,,,,,,,,,,right,1,40,30,70,1,3675.375871,3675.375871,3675.375871,None,None,2,0,0.7413995,,,,,,,,,,,,,,,,,,,10,16,1,2024-10-30_14h59.33.231,uWM_experiment,2022.2.3,59.99887202
,,,,,,,,,,,,,,,,,,,,5,0,5,0,,,,,0,0,0,0,,,,,,,,,,,,,,,,,,,,,,,,,,,,,,,,,,,,,,,,,,,,,,,,,,,,,,,,,,,,,,,,,,,,,,,,,,,,,,,,,,,,,,,,,,,,,,,,,,,,,,,,,,,,3676.142562,3676.142562,space,3.7827469,space,None,,3679.942772,3679.942772,4.078502,,,,,,,,,10,16,1,2024-10-30_14h59.33.231,uWM_experiment,2022.2.3,59.99887202
,,,,,,,,,,,,,,,,,,,,5,0,5,0,,,,,1,0,1,0,,,,,,,,,,,,,,,,,,,,,,,,,,,,,,,,,,,,,,,,,,,,,,,,,,,,,,,,,,,,,,,,,,,,,,,,,,,,,,,,,,,,,,,,,,,,,,,,,,,,,,,,,,,,,,,,,,,,,,,,,,,,,,10,16,1,2024-10-30_14h59.33.231,uWM_experiment,2022.2.3,59.99887202
,,,,,,,,,,,,,,,,,,,,5,0,5,0,,,,,2,0,2,0,,,,,,,,,,,,,,,,,,,,,,,,,,,,,,,,,,,,,,,,,,,,,,,,,,,,,,,,,,,,,,,,,,,,,,,,,,,,,,,,,,,,,,,,,,,,,,,,,,,,,,,,,,,,,,,,,,,,,,,,,,,,,,10,16,1,2024-10-30_14h59.33.231,uWM_experiment,2022.2.3,59.99887202
,,,,,,,,,,,,,,,,,,,,6,0,6,0,0,0,0,0,,,,,,,,,,,,,,,,,,,,,,,,,,,,,,,,,,,,,,,,,,,,,,,,,,,,,,,,,,,,,,,,,,,,,,0.045818418,,,,,,,,,,,,,,,,,,,,3684.042925,3684.742985,3685.042968,3685.742999,3686.043018,3686.743041,3686.743041,3687.05974,right,0,70,-30,40,1,3692.043295,3692.043295,3692.043295,None,None,1,1,7.5699136,,,,,,,None,,,,,,,,,,,,10,16,1,2024-10-30_14h59.33.231,uWM_experiment,2022.2.3,59.99887202
,,,,,,,,,,,,,,,,,,,,6,0,6,0,1,0,1,0,,,,,,,,,,,,,,,,,,,,,,,,,,,,,,,,,,,,,,,,,,,,,,,,,,,,,,,,,,,,,,,,,,,,,,0.055818418,,,,,,,,,,,,,,,,,,,,,,,,,,,,right,0,100,-30,70,1,3705.727219,3705.727219,3705.727219,None,None,1,1,0.5741507,,,,,,,,,,,,,,,,,,,10,16,1,2024-10-30_14h59.33.231,uWM_experiment,2022.2.3,59.99887202
,,,,,,,,,,,,,,,,,,,,6,0,6,0,2,0,2,0,,,,,,,,,,,,,,,,,,,,,,,,,,,,,,,,,,,,,,,,,,,,,,,,,,,,,,,,,,,,,,,,,,,,,,0.065818418,,,,,,,,,,,,,,,,,,,,,,,,,,,,right,1,40,30,70,1,3714.010931,3714.010931,3714.010931,None,None,2,0,1.2904495,,,,,,,,,,,,,,,,,,,10,16,1,2024-10-30_14h59.33.231,uWM_experiment,2022.2.3,59.99887202
,,,,,,,,,,,,,,,,,,,,6,0,6,0,3,0,3,0,,,,,,,,,,,,,,,,,,,,,,,,,,,,,,,,,,,,,,,,,,,,,,,,,,,,,,,,,,,,,,,,,,,,,,0,,,,,,,,,,,,,,,,,,,,,,,,,,,,right,0,100,-30,70,0,3721.527936,3721.527936,3721.527936,None,None,1,1,0.6213035,,,,,,,,,,,,,,,,,,,10,16,1,2024-10-30_14h59.33.231,uWM_experiment,2022.2.3,59.99887202
,,,,,,,,,,,,,,,,,,,,6,0,6,0,4,0,4,0,,,,,,,,,,,,,,,,,,,,,,,,,,,,,,,,,,,,,,,,,,,,,,,,,,,,,,,,,,,,,,,,,,,,,,0,,,,,,,,,,,,,,,,,,,,,,,,,,,,left,0,130,30,160,0,3728.294924,3728.294924,3728.294924,None,None,1,1,0.2783874,,,,,,,,,,,,,,,,,,,10,16,1,2024-10-30_14h59.33.231,uWM_experiment,2022.2.3,59.99887202
,,,,,,,,,,,,,,,,,,,,6,0,6,0,5,0,5,0,,,,,,,,,,,,,,,,,,,,,,,,,,,,,,,,,,,,,,,,,,,,,,,,,,,,,,,,,,,,,,,,,,,,,,0.055818418,,,,,,,,,,,,,,,,,,,,,,,,,,,,right,0,40,-30,10,1,3734.745209,3734.745209,3734.745209,None,None,1,1,0.4200189,,,,,,,,,,,,,,,,,,,10,16,1,2024-10-30_14h59.33.231,uWM_experiment,2022.2.3,59.99887202
,,,,,,,,,,,,,,,,,,,,6,0,6,0,6,0,6,0,,,,,,,,,,,,,,,,,,,,,,,,,,,,,,,,,,,,,,,,,,,,,,,,,,,,,,,,,,,,,,,,,,,,,,0.065818418,,,,,,,,,,,,,,,,,,,,,,,,,,,,right,0,100,-30,70,1,3740.995493,3740.995493,3740.995493,None,None,1,1,0.3697662,,,,,,,,,,,,,,,,,,,10,16,1,2024-10-30_14h59.33.231,uWM_experiment,2022.2.3,59.99887202
,,,,,,,,,,,,,,,,,,,,6,0,6,0,7,0,7,0,,,,,,,,,,,,,,,,,,,,,,,,,,,,,,,,,,,,,,,,,,,,,,,,,,,,,,,,,,,,,,,,,,,,,,0.075818418,,,,,,,,,,,,,,,,,,,,,,,,,,,,right,1,70,30,100,1,3747.645776,3747.645776,3747.645776,None,None,2,0,0.7915216,,,,,,,,,,,,,,,,,,,10,16,1,2024-10-30_14h59.33.231,uWM_experiment,2022.2.3,59.99887202
,,,,,,,,,,,,,,,,,,,,6,0,6,0,8,0,8,0,,,,,,,,,,,,,,,,,,,,,,,,,,,,,,,,,,,,,,,,,,,,,,,,,,,,,,,,,,,,,,,,,,,,,,0.065818418,,,,,,,,,,,,,,,,,,,,,,,,,,,,left,1,10,-30,-20,1,3754.529428,3754.529428,3754.529428,None,None,2,0,0.4038285,,,,,,,,,,,,,,,,,,,10,16,1,2024-10-30_14h59.33.231,uWM_experiment,2022.2.3,59.99887202
,,,,,,,,,,,,,,,,,,,,6,0,6,0,9,0,9,0,,,,,,,,,,,,,,,,,,,,,,,,,,,,,,,,,,,,,,,,,,,,,,,,,,,,,,,,,,,,,,,,,,,,,,0.055818418,,,,,,,,,,,,,,,,,,,,,,,,,,,,left,0,100,30,130,1,3761.013042,3761.013042,3761.013042,None,None,2,0,0.4643608,,,,,,,,,,,,,,,,,,,10,16,1,2024-10-30_14h59.33.231,uWM_experiment,2022.2.3,59.99887202
,,,,,,,,,,,,,,,,,,,,6,0,6,0,10,0,10,0,,,,,,,,,,,,,,,,,,,,,,,,,,,,,,,,,,,,,,,,,,,,,,,,,,,,,,,,,,,,,,,,,,,,,,0.045818418,,,,,,,,,,,,,,,,,,,,,,,,,,,,right,0,70,-30,40,1,3767.496654,3767.496654,3767.496654,None,None,1,1,1.7567087,,,,,,,,,,,,,,,,,,,10,16,1,2024-10-30_14h59.33.231,uWM_experiment,2022.2.3,59.99887202
,,,,,,,,,,,,,,,,,,,,6,0,6,0,11,0,11,0,,,,,,,,,,,,,,,,,,,,,,,,,,,,,,,,,,,,,,,,,,,,,,,,,,,,,,,,,,,,,,,,,,,,,,0.055818418,,,,,,,,,,,,,,,,,,,,,,,,,,,,left,1,100,-30,70,1,3776.113735,3776.113735,3776.113735,None,None,2,0,0.7395113,,,,,,,,,,,,,,,,,,,10,16,1,2024-10-30_14h59.33.231,uWM_experiment,2022.2.3,59.99887202
,,,,,,,,,,,,,,,,,,,,6,0,6,0,12,0,12,0,,,,,,,,,,,,,,,,,,,,,,,,,,,,,,,,,,,,,,,,,,,,,,,,,,,,,,,,,,,,,,,,,,,,,,0.045818418,,,,,,,,,,,,,,,,,,,,,,,,,,,,left,1,40,-30,10,1,3783.06402,3783.06402,3783.06402,None,None,2,0,1.6453524,,,,,,,,,,,,,,,,,,,10,16,1,2024-10-30_14h59.33.231,uWM_experiment,2022.2.3,59.99887202
,,,,,,,,,,,,,,,,,,,,6,0,6,0,13,0,13,0,,,,,,,,,,,,,,,,,,,,,,,,,,,,,,,,,,,,,,,,,,,,,,,,,,,,,,,,,,,,,,,,,,,,,,0.035818418,,,,,,,,,,,,,,,,,,,,,,,,,,,,right,0,70,-30,40,1,3790.464363,3790.464363,3790.464363,None,None,2,0,0.6849003,,,,,,,,,,,,,,,,,,,10,16,1,2024-10-30_14h59.33.231,uWM_experiment,2022.2.3,59.99887202
,,,,,,,,,,,,,,,,,,,,6,0,6,0,14,0,14,0,,,,,,,,,,,,,,,,,,,,,,,,,,,,,,,,,,,,,,,,,,,,,,,,,,,,,,,,,,,,,,,,,,,,,,0,,,,,,,,,,,,,,,,,,,,,,,,,,,,left,1,130,-30,100,0,3797.331346,3797.331346,3797.331346,None,None,2,0,1.2581174,,,,,,,,,,,,,,,,,,,10,16,1,2024-10-30_14h59.33.231,uWM_experiment,2022.2.3,59.99887202
,,,,,,,,,,,,,,,,,,,,6,0,6,0,15,0,15,0,,,,,,,,,,,,,,,,,,,,,,,,,,,,,,,,,,,,,,,,,,,,,,,,,,,,,,,,,,,,,,,,,,,,,,0.025818418,,,,,,,,,,,,,,,,,,,,,,,,,,,,left,1,160,-30,130,1,3804.915007,3804.915007,3804.915007,None,None,1,1,1.1304331,,,,,,,,,,,,,,,,,,,10,16,1,2024-10-30_14h59.33.231,uWM_experiment,2022.2.3,59.99887202
,,,,,,,,,,,,,,,,,,,,6,0,6,0,16,0,16,0,,,,,,,,,,,,,,,,,,,,,,,,,,,,,,,,,,,,,,,,,,,,,,,,,,,,,,,,,,,,,,,,,,,,,,0.035818418,,,,,,,,,,,,,,,,,,,,,,,,,,,,right,0,70,-30,40,1,3811.865318,3811.865318,3811.865318,None,None,1,1,0.8039521,,,,,,,,,,,,,,,,,,,10,16,1,2024-10-30_14h59.33.231,uWM_experiment,2022.2.3,59.99887202
,,,,,,,,,,,,,,,,,,,,6,0,6,0,17,0,17,0,,,,,,,,,,,,,,,,,,,,,,,,,,,,,,,,,,,,,,,,,,,,,,,,,,,,,,,,,,,,,,,,,,,,,,0.045818418,,,,,,,,,,,,,,,,,,,,,,,,,,,,right,0,70,-30,40,1,3818.482276,3818.482276,3818.482276,None,None,1,1,0.4830622,,,,,,,,,,,,,,,,,,,10,16,1,2024-10-30_14h59.33.231,uWM_experiment,2022.2.3,59.99887202
,,,,,,,,,,,,,,,,,,,,6,0,6,0,18,0,18,0,,,,,,,,,,,,,,,,,,,,,,,,,,,,,,,,,,,,,,,,,,,,,,,,,,,,,,,,,,,,,,,,,,,,,,0.055818418,,,,,,,,,,,,,,,,,,,,,,,,,,,,left,1,130,-30,100,1,3824.715905,3824.715905,3824.715905,None,None,1,1,0.7774961,,,,,,,,,,,,,,,,,,,10,16,1,2024-10-30_14h59.33.231,uWM_experiment,2022.2.3,59.99887202
,,,,,,,,,,,,,,,,,,,,6,0,6,0,19,0,19,0,,,,,,,,,,,,,,,,,,,,,,,,,,,,,,,,,,,,,,,,,,,,,,,,,,,,,,,,,,,,,,,,,,,,,,0.065818418,,,,,,,,,,,,,,,,,,,,,,,,,,,,right,1,160,30,190,1,3832.982911,3832.982911,3832.982911,None,None,1,1,1.9584363,,,,,,,,,,,,,,,,,,,10,16,1,2024-10-30_14h59.33.231,uWM_experiment,2022.2.3,59.99887202
,,,,,,,,,,,,,,,,,,,,6,0,6,0,20,0,20,0,,,,,,,,,,,,,,,,,,,,,,,,,,,,,,,,,,,,,,,,,,,,,,,,,,,,,,,,,,,,,,,,,,,,,,0,,,,,,,,,,,,,,,,,,,,,,,,,,,,left,1,130,-30,100,0,3840.799956,3840.799956,3840.799956,None,None,1,1,1.6774567,,,,,,,,,,,,,,,,,,,10,16,1,2024-10-30_14h59.33.231,uWM_experiment,2022.2.3,59.99887202
,,,,,,,,,,,,,,,,,,,,6,0,6,0,21,0,21,0,,,,,,,,,,,,,,,,,,,,,,,,,,,,,,,,,,,,,,,,,,,,,,,,,,,,,,,,,,,,,,,,,,,,,,0,,,,,,,,,,,,,,,,,,,,,,,,,,,,right,0,40,-30,10,0,3848.65031,3848.65031,3848.65031,None,None,1,1,0.8430504,,,,,,,,,,,,,,,,,,,10,16,1,2024-10-30_14h59.33.231,uWM_experiment,2022.2.3,59.99887202
,,,,,,,,,,,,,,,,,,,,6,0,6,0,22,0,22,0,,,,,,,,,,,,,,,,,,,,,,,,,,,,,,,,,,,,,,,,,,,,,,,,,,,,,,,,,,,,,,,,,,,,,,0,,,,,,,,,,,,,,,,,,,,,,,,,,,,left,0,100,30,130,0,3856.267322,3856.267322,3856.267322,None,None,1,1,0.7140471,,,,,,,,,,,,,,,,,,,10,16,1,2024-10-30_14h59.33.231,uWM_experiment,2022.2.3,59.99887202
,,,,,,,,,,,,,,,,,,,,6,0,6,0,23,0,23,0,,,,,,,,,,,,,,,,,,,,,,,,,,,,,,,,,,,,,,,,,,,,,,,,,,,,,,,,,,,,,,,,,,,,,,0.075818418,,,,,,,,,,,,,,,,,,,,,,,,,,,,left,0,160,30,190,1,3865.634402,3865.634402,3865.634402,None,None,2,0,1.547068,,,,,,,,,,,,,,,,,,,10,16,1,2024-10-30_14h59.33.231,uWM_experiment,2022.2.3,59.99887202
,,,,,,,,,,,,,,,,,,,,6,0,6,0,,,,,0,0,0,0,,,,,,,,,,,,,,,,,,,,,,,,,,,,,,,,,,,,,,,,,,,,,,,,,,,,,,,,,,,,,,,,,,,,,,,,,,,,,,,,,,,,,,,,,,,,,,,,,,,,,,,,,,,,3867.201125,3867.201125,space,35.2762613,None,space,,,,,3902.502681,3902.502681,9.5907338,,,,,,10,16,1,2024-10-30_14h59.33.231,uWM_experiment,2022.2.3,59.99887202
,,,,,,,,,,,,,,,,,,,,6,0,6,0,,,,,1,0,1,0,,,,,,,,,,,,,,,,,,,,,,,,,,,,,,,,,,,,,,,,,,,,,,,,,,,,,,,,,,,,,,,,,,,,,,,,,,,,,,,,,,,,,,,,,,,,,,,,,,,,,,,,,,,,,,,,,,,,,,,,,,,,,,10,16,1,2024-10-30_14h59.33.231,uWM_experiment,2022.2.3,59.99887202
,,,,,,,,,,,,,,,,,,,,6,0,6,0,,,,,2,0,2,0,,,,,,,,,,,,,,,,,,,,,,,,,,,,,,,,,,,,,,,,,,,,,,,,,,,,,,,,,,,,,,,,,,,,,,,,,,,,,,,,,,,,,,,,,,,,,,,,,,,,,,,,,,,,,,,,,,,,,,,,,,,,,,10,16,1,2024-10-30_14h59.33.231,uWM_experiment,2022.2.3,59.99887202
,,,,,,,,,,,,,,,,,,,,7,0,7,0,0,0,0,0,,,,,,,,,,,,,,,,,,,,,,,,,,,,,,,,,,,,,,,,,,,,,,,,,,,,,,,,,,,,,,,,,,,,,,0,,,,,,,,,,,,,,,,,,,,3924.97037,3925.67042,3925.953748,3926.653777,3926.953791,3927.653822,3927.653822,3927.970533,right,1,160,30,190,0,3933.020751,3933.020751,3933.020751,None,None,1,1,0.5045675,,,,,,,space,,,,,,,3921.936922,3921.936922,3.0045872,,,10,16,1,2024-10-30_14h59.33.231,uWM_experiment,2022.2.3,59.99887202
,,,,,,,,,,,,,,,,,,,,7,0,7,0,1,0,1,0,,,,,,,,,,,,,,,,,,,,,,,,,,,,,,,,,,,,,,,,,,,,,,,,,,,,,,,,,,,,,,,,,,,,,,0,,,,,,,,,,,,,,,,,,,,,,,,,,,,left,1,160,-30,130,0,3939.971061,3939.971061,3939.971061,None,None,1,1,0.9784481,,,,,,,,,,,,,,,,,,,10,16,1,2024-10-30_14h59.33.231,uWM_experiment,2022.2.3,59.99887202
,,,,,,,,,,,,,,,,,,,,7,0,7,0,2,0,2,0,,,,,,,,,,,,,,,,,,,,,,,,,,,,,,,,,,,,,,,,,,,,,,,,,,,,,,,,,,,,,,,,,,,,,,0.065818418,,,,,,,,,,,,,,,,,,,,,,,,,,,,left,1,40,-30,10,1,3947.371373,3947.371373,3947.371373,None,None,2,0,0.5699663,,,,,,,,,,,,,,,,,,,10,16,1,2024-10-30_14h59.33.231,uWM_experiment,2022.2.3,59.99887202
,,,,,,,,,,,,,,,,,,,,7,0,7,0,3,0,3,0,,,,,,,,,,,,,,,,,,,,,,,,,,,,,,,,,,,,,,,,,,,,,,,,,,,,,,,,,,,,,,,,,,,,,,0.1,,,,,,,,,,,,,,,,,,,,,,,,,,,,right,1,130,30,160,2,3956.555116,3956.555116,3956.555116,None,None,4,0,1.866378,,,,,,,,,,,,,,,,,,,10,16,1,2024-10-30_14h59.33.231,uWM_experiment,2022.2.3,59.99887202
,,,,,,,,,,,,,,,,,,,,7,0,7,0,4,0,4,0,,,,,,,,,,,,,,,,,,,,,,,,,,,,,,,,,,,,,,,,,,,,,,,,,,,,,,,,,,,,,,,,,,,,,,0.055818418,,,,,,,,,,,,,,,,,,,,,,,,,,,,right,1,40,30,70,1,3964.305473,3964.305473,3964.305473,None,None,2,0,2.2760504,,,,,,,,,,,,,,,,,,,10,16,1,2024-10-30_14h59.33.231,uWM_experiment,2022.2.3,59.99887202
,,,,,,,,,,,,,,,,,,,,7,0,7,0,5,0,5,0,,,,,,,,,,,,,,,,,,,,,,,,,,,,,,,,,,,,,,,,,,,,,,,,,,,,,,,,,,,,,,,,,,,,,,0.045818418,,,,,,,,,,,,,,,,,,,,,,,,,,,,right,0,40,-30,10,1,3973.555903,3973.555903,3973.555903,None,None,2,0,2.17755,,,,,,,,,,,,,,,,,,,10,16,1,2024-10-30_14h59.33.231,uWM_experiment,2022.2.3,59.99887202
,,,,,,,,,,,,,,,,,,,,7,0,7,0,6,0,6,0,,,,,,,,,,,,,,,,,,,,,,,,,,,,,,,,,,,,,,,,,,,,,,,,,,,,,,,,,,,,,,,,,,,,,,0.035818418,,,,,,,,,,,,,,,,,,,,,,,,,,,,left,0,100,30,130,1,3981.68961,3981.68961,3981.68961,None,None,1,1,0.4839082,,,,,,,,,,,,,,,,,,,10,16,1,2024-10-30_14h59.33.231,uWM_experiment,2022.2.3,59.99887202
,,,,,,,,,,,,,,,,,,,,7,0,7,0,7,0,7,0,,,,,,,,,,,,,,,,,,,,,,,,,,,,,,,,,,,,,,,,,,,,,,,,,,,,,,,,,,,,,,,,,,,,,,0.045818418,,,,,,,,,,,,,,,,,,,,,,,,,,,,left,1,130,-30,100,1,3989.339931,3989.339931,3989.339931,None,None,1,1,0.5054603,,,,,,,,,,,,,,,,,,,10,16,1,2024-10-30_14h59.33.231,uWM_experiment,2022.2.3,59.99887202
,,,,,,,,,,,,,,,,,,,,7,0,7,0,8,0,8,0,,,,,,,,,,,,,,,,,,,,,,,,,,,,,,,,,,,,,,,,,,,,,,,,,,,,,,,,,,,,,,,,,,,,,,0.055818418,,,,,,,,,,,,,,,,,,,,,,,,,,,,right,1,70,30,100,1,3996.240263,3996.240263,3996.240263,None,None,2,0,1.8850949,,,,,,,,,,,,,,,,,,,10,16,1,2024-10-30_14h59.33.231,uWM_experiment,2022.2.3,59.99887202
,,,,,,,,,,,,,,,,,,,,7,0,7,0,9,0,9,0,,,,,,,,,,,,,,,,,,,,,,,,,,,,,,,,,,,,,,,,,,,,,,,,,,,,,,,,,,,,,,,,,,,,,,0.045818418,,,,,,,,,,,,,,,,,,,,,,,,,,,,left,1,130,-30,100,1,4003.990585,4003.990585,4003.990585,None,None,2,0,1.3429906,,,,,,,,,,,,,,,,,,,10,16,1,2024-10-30_14h59.33.231,uWM_experiment,2022.2.3,59.99887202
,,,,,,,,,,,,,,,,,,,,7,0,7,0,10,0,10,0,,,,,,,,,,,,,,,,,,,,,,,,,,,,,,,,,,,,,,,,,,,,,,,,,,,,,,,,,,,,,,,,,,,,,,0.035818418,,,,,,,,,,,,,,,,,,,,,,,,,,,,left,1,40,-30,10,1,4012.207624,4012.207624,4012.207624,None,None,1,1,0.7578013,,,,,,,,,,,,,,,,,,,10,16,1,2024-10-30_14h59.33.231,uWM_experiment,2022.2.3,59.99887202
,,,,,,,,,,,,,,,,,,,,7,0,7,0,11,0,11,0,,,,,,,,,,,,,,,,,,,,,,,,,,,,,,,,,,,,,,,,,,,,,,,,,,,,,,,,,,,,,,,,,,,,,,0.045818418,,,,,,,,,,,,,,,,,,,,,,,,,,,,right,0,100,-30,70,1,4020.591345,4020.591345,4020.591345,None,None,1,1,5.1501081,,,,,,,,,,,,,,,,,,,10,16,1,2024-10-30_14h59.33.231,uWM_experiment,2022.2.3,59.99887202
,,,,,,,,,,,,,,,,,,,,7,0,7,0,12,0,12,0,,,,,,,,,,,,,,,,,,,,,,,,,,,,,,,,,,,,,,,,,,,,,,,,,,,,,,,,,,,,,,,,,,,,,,0.1,,,,,,,,,,,,,,,,,,,,,,,,,,,,left,1,130,-30,100,2,4034.091964,4034.091964,4034.091964,None,None,4,0,1.0255509,,,,,,,,,,,,,,,,,,,10,16,1,2024-10-30_14h59.33.231,uWM_experiment,2022.2.3,59.99887202
,,,,,,,,,,,,,,,,,,,,7,0,7,0,13,0,13,0,,,,,,,,,,,,,,,,,,,,,,,,,,,,,,,,,,,,,,,,,,,,,,,,,,,,,,,,,,,,,,,,,,,,,,0.055818418,,,,,,,,,,,,,,,,,,,,,,,,,,,,right,1,40,30,70,1,4041.04227,4041.04227,4041.04227,None,None,1,1,1.6992972,,,,,,,,,,,,,,,,,,,10,16,1,2024-10-30_14h59.33.231,uWM_experiment,2022.2.3,59.99887202
,,,,,,,,,,,,,,,,,,,,7,0,7,0,14,0,14,0,,,,,,,,,,,,,,,,,,,,,,,,,,,,,,,,,,,,,,,,,,,,,,,,,,,,,,,,,,,,,,,,,,,,,,0,,,,,,,,,,,,,,,,,,,,,,,,,,,,right,0,100,-30,70,0,4048.409221,4048.409221,4048.409221,None,None,1,1,1.9803426,,,,,,,,,,,,,,,,,,,10,16,1,2024-10-30_14h59.33.231,uWM_experiment,2022.2.3,59.99887202
,,,,,,,,,,,,,,,,,,,,7,0,7,0,15,0,15,0,,,,,,,,,,,,,,,,,,,,,,,,,,,,,,,,,,,,,,,,,,,,,,,,,,,,,,,,,,,,,,,,,,,,,,0.065818418,,,,,,,,,,,,,,,,,,,,,,,,,,,,left,1,70,-30,40,1,4057.592982,4057.592982,4057.592982,None,None,1,1,0.8525682,,,,,,,,,,,,,,,,,,,10,16,1,2024-10-30_14h59.33.231,uWM_experiment,2022.2.3,59.99887202
,,,,,,,,,,,,,,,,,,,,7,0,7,0,16,0,16,0,,,,,,,,,,,,,,,,,,,,,,,,,,,,,,,,,,,,,,,,,,,,,,,,,,,,,,,,,,,,,,,,,,,,,,0.075818418,,,,,,,,,,,,,,,,,,,,,,,,,,,,right,0,100,-30,70,1,4064.009948,4064.009948,4064.009948,None,None,1,1,0.3554985,,,,,,,,,,,,,,,,,,,10,16,1,2024-10-30_14h59.33.231,uWM_experiment,2022.2.3,59.99887202
,,,,,,,,,,,,,,,,,,,,7,0,7,0,17,0,17,0,,,,,,,,,,,,,,,,,,,,,,,,,,,,,,,,,,,,,,,,,,,,,,,,,,,,,,,,,,,,,,,,,,,,,,0.085818418,,,,,,,,,,,,,,,,,,,,,,,,,,,,left,0,70,30,100,1,4070.276912,4070.276912,4070.276912,None,None,1,1,0.9845047,,,,,,,,,,,,,,,,,,,10,16,1,2024-10-30_14h59.33.231,uWM_experiment,2022.2.3,59.99887202
,,,,,,,,,,,,,,,,,,,,7,0,7,0,18,0,18,0,,,,,,,,,,,,,,,,,,,,,,,,,,,,,,,,,,,,,,,,,,,,,,,,,,,,,,,,,,,,,,,,,,,,,,0.095818418,,,,,,,,,,,,,,,,,,,,,,,,,,,,left,0,160,30,190,1,4077.527219,4077.527219,4077.527219,None,None,2,0,1.0382081,,,,,,,,,,,,,,,,,,,10,16,1,2024-10-30_14h59.33.231,uWM_experiment,2022.2.3,59.99887202
,,,,,,,,,,,,,,,,,,,,7,0,7,0,19,0,19,0,,,,,,,,,,,,,,,,,,,,,,,,,,,,,,,,,,,,,,,,,,,,,,,,,,,,,,,,,,,,,,,,,,,,,,0.085818418,,,,,,,,,,,,,,,,,,,,,,,,,,,,right,0,40,-30,10,1,4084.54421,4084.54421,4084.54421,None,None,1,1,1.1652727,,,,,,,,,,,,,,,,,,,10,16,1,2024-10-30_14h59.33.231,uWM_experiment,2022.2.3,59.99887202
,,,,,,,,,,,,,,,,,,,,7,0,7,0,20,0,20,0,,,,,,,,,,,,,,,,,,,,,,,,,,,,,,,,,,,,,,,,,,,,,,,,,,,,,,,,,,,,,,,,,,,,,,0,,,,,,,,,,,,,,,,,,,,,,,,,,,,left,0,100,30,130,0,4091.311166,4091.311166,4091.311166,None,None,1,1,1.6382553,,,,,,,,,,,,,,,,,,,10,16,1,2024-10-30_14h59.33.231,uWM_experiment,2022.2.3,59.99887202
,,,,,,,,,,,,,,,,,,,,7,0,7,0,21,0,21,0,,,,,,,,,,,,,,,,,,,,,,,,,,,,,,,,,,,,,,,,,,,,,,,,,,,,,,,,,,,,,,,,,,,,,,0,,,,,,,,,,,,,,,,,,,,,,,,,,,,left,0,100,30,130,0,4102.528362,4102.528362,4102.528362,None,None,1,1,1.0370711,,,,,,,,,,,,,,,,,,,10,16,1,2024-10-30_14h59.33.231,uWM_experiment,2022.2.3,59.99887202
,,,,,,,,,,,,,,,,,,,,7,0,7,0,22,0,22,0,,,,,,,,,,,,,,,,,,,,,,,,,,,,,,,,,,,,,,,,,,,,,,,,,,,,,,,,,,,,,,,,,,,,,,0.095818418,,,,,,,,,,,,,,,,,,,,,,,,,,,,right,0,10,-30,-20,1,4110.478709,4110.478709,4110.478709,None,None,2,0,1.9347122,,,,,,,,,,,,,,,,,,,10,16,1,2024-10-30_14h59.33.231,uWM_experiment,2022.2.3,59.99887202
,,,,,,,,,,,,,,,,,,,,7,0,7,0,23,0,23,0,,,,,,,,,,,,,,,,,,,,,,,,,,,,,,,,,,,,,,,,,,,,,,,,,,,,,,,,,,,,,,,,,,,,,,0.085818418,,,,,,,,,,,,,,,,,,,,,,,,,,,,left,1,130,-30,100,1,4118.612385,4118.612385,4118.612385,None,None,1,1,2.1850163,,,,,,,,,,,,,,,,,,,10,16,1,2024-10-30_14h59.33.231,uWM_experiment,2022.2.3,59.99887202
,,,,,,,,,,,,,,,,,,,,7,0,7,0,,,,,0,0,0,0,,,,,,,,,,,,,,,,,,,,,,,,,,,,,,,,,,,,,,,,,,,,,,,,,,,,,,,,,,,,,,,,,,,,,,,,,,,,,,,,,,,,,,,,,,,,,,,,,,,,,,,,,,,,4120.829145,4120.829145,space,11.7283297,None,None,,,,,,,,,,,,,10,16,1,2024-10-30_14h59.33.231,uWM_experiment,2022.2.3,59.99887202
,,,,,,,,,,,,,,,,,,,,7,0,7,0,,,,,1,0,1,0,,,,,,,,,,,,,,,,,,,,,,,,,,,,,,,,,,,,,,,,,,,,,,,,,,,,,,,,,,,,,,,,,,,,,,,,,,,,,,,,,,,,,,,,,,,,,,,,,,,,,,,,,,,,,,,,,,,,,,,,,,,,,,10,16,1,2024-10-30_14h59.33.231,uWM_experiment,2022.2.3,59.99887202
,,,,,,,,,,,,,,,,,,,,7,0,7,0,,,,,2,0,2,0,,,,,,,,,,,,,,,,,,,,,,,,,,,,,,,,,,,,,,,,,,,,,,,,,,,,,,,,,,,,,,,,,,,,,,,,,,,,,,,,,,,,,,,,,,,,,,,,,,,,,,,,,,,,,,,,,,,,,,,,,,,,,,10,16,1,2024-10-30_14h59.33.231,uWM_experiment,2022.2.3,59.99887202
,,,,,,,,,,,,,,,,,,,,8,0,8,0,0,0,0,0,,,,,,,,,,,,,,,,,,,,,,,,,,,,,,,,,,,,,,,,,,,,,,,,,,,,,,,,,,,,,,,,,,,,,,0.095818418,,,,,,,,,,,,,,,,,,,,4132.579674,4133.27971,4133.57972,4134.27975,4134.579767,4135.279773,4135.279773,4135.596481,right,1,40,30,70,1,4140.313375,4140.313375,4140.313375,None,None,1,1,1.1322085,,,,,,,None,,,,,,,,,,,,10,16,1,2024-10-30_14h59.33.231,uWM_experiment,2022.2.3,59.99887202
,,,,,,,,,,,,,,,,,,,,8,0,8,0,1,0,1,0,,,,,,,,,,,,,,,,,,,,,,,,,,,,,,,,,,,,,,,,,,,,,,,,,,,,,,,,,,,,,,,,,,,,,,0.105818418,,,,,,,,,,,,,,,,,,,,,,,,,,,,right,0,70,-30,40,1,4147.180346,4147.180346,4147.180346,None,None,1,1,3.6092755,,,,,,,,,,,,,,,,,,,10,16,1,2024-10-30_14h59.33.231,uWM_experiment,2022.2.3,59.99887202
,,,,,,,,,,,,,,,,,,,,8,0,8,0,2,0,2,0,,,,,,,,,,,,,,,,,,,,,,,,,,,,,,,,,,,,,,,,,,,,,,,,,,,,,,,,,,,,,,,,,,,,,,0,,,,,,,,,,,,,,,,,,,,,,,,,,,,left,0,130,30,160,0,4156.914123,4156.914123,4156.914123,None,None,1,1,0.7553485,,,,,,,,,,,,,,,,,,,10,16,1,2024-10-30_14h59.33.231,uWM_experiment,2022.2.3,59.99887202
,,,,,,,,,,,,,,,,,,,,8,0,8,0,3,0,3,0,,,,,,,,,,,,,,,,,,,,,,,,,,,,,,,,,,,,,,,,,,,,,,,,,,,,,,,,,,,,,,,,,,,,,,0.115818418,,,,,,,,,,,,,,,,,,,,,,,,,,,,right,1,10,30,40,1,4163.947767,4163.947767,4163.947767,None,None,2,0,0.4338142,,,,,,,,,,,,,,,,,,,10,16,1,2024-10-30_14h59.33.231,uWM_experiment,2022.2.3,59.99887202
,,,,,,,,,,,,,,,,,,,,8,0,8,0,4,0,4,0,,,,,,,,,,,,,,,,,,,,,,,,,,,,,,,,,,,,,,,,,,,,,,,,,,,,,,,,,,,,,,,,,,,,,,0.105818418,,,,,,,,,,,,,,,,,,,,,,,,,,,,right,1,160,30,190,1,4174.281586,4174.281586,4174.281586,None,None,2,0,2.0439979,,,,,,,,,,,,,,,,,,,10,16,1,2024-10-30_14h59.33.231,uWM_experiment,2022.2.3,59.99887202
,,,,,,,,,,,,,,,,,,,,8,0,8,0,5,0,5,0,,,,,,,,,,,,,,,,,,,,,,,,,,,,,,,,,,,,,,,,,,,,,,,,,,,,,,,,,,,,,,,,,,,,,,0.095818418,,,,,,,,,,,,,,,,,,,,,,,,,,,,left,1,130,-30,100,1,4182.448603,4182.448603,4182.448603,None,None,2,0,0.7970284,,,,,,,,,,,,,,,,,,,10,16,1,2024-10-30_14h59.33.231,uWM_experiment,2022.2.3,59.99887202
,,,,,,,,,,,,,,,,,,,,8,0,8,0,6,0,6,0,,,,,,,,,,,,,,,,,,,,,,,,,,,,,,,,,,,,,,,,,,,,,,,,,,,,,,,,,,,,,,,,,,,,,,0.085818418,,,,,,,,,,,,,,,,,,,,,,,,,,,,left,1,70,-30,40,1,4189.782259,4189.782259,4189.782259,None,None,2,0,0.4473648,,,,,,,,,,,,,,,,,,,10,16,1,2024-10-30_14h59.33.231,uWM_experiment,2022.2.3,59.99887202
,,,,,,,,,,,,,,,,,,,,8,0,8,0,7,0,7,0,,,,,,,,,,,,,,,,,,,,,,,,,,,,,,,,,,,,,,,,,,,,,,,,,,,,,,,,,,,,,,,,,,,,,,0.075818418,,,,,,,,,,,,,,,,,,,,,,,,,,,,right,1,10,30,40,1,4198.815981,4198.815981,4198.815981,None,None,2,0,1.0136984,,,,,,,,,,,,,,,,,,,10,16,1,2024-10-30_14h59.33.231,uWM_experiment,2022.2.3,59.99887202
,,,,,,,,,,,,,,,,,,,,8,0,8,0,8,0,8,0,,,,,,,,,,,,,,,,,,,,,,,,,,,,,,,,,,,,,,,,,,,,,,,,,,,,,,,,,,,,,,,,,,,,,,0.065818418,,,,,,,,,,,,,,,,,,,,,,,,,,,,right,1,40,30,70,1,4205.732973,4205.732973,4205.732973,None,None,2,0,0.8806171,,,,,,,,,,,,,,,,,,,10,16,1,2024-10-30_14h59.33.231,uWM_experiment,2022.2.3,59.99887202
,,,,,,,,,,,,,,,,,,,,8,0,8,0,9,0,9,0,,,,,,,,,,,,,,,,,,,,,,,,,,,,,,,,,,,,,,,,,,,,,,,,,,,,,,,,,,,,,,,,,,,,,,0.055818418,,,,,,,,,,,,,,,,,,,,,,,,,,,,left,0,70,30,100,1,4212.499924,4212.499924,4212.499924,None,None,2,0,2.1215546,,,,,,,,,,,,,,,,,,,10,16,1,2024-10-30_14h59.33.231,uWM_experiment,2022.2.3,59.99887202
,,,,,,,,,,,,,,,,,,,,8,0,8,0,10,0,10,0,,,,,,,,,,,,,,,,,,,,,,,,,,,,,,,,,,,,,,,,,,,,,,,,,,,,,,,,,,,,,,,,,,,,,,0.045818418,,,,,,,,,,,,,,,,,,,,,,,,,,,,left,0,130,30,160,1,4220.666975,4220.666975,4220.666975,None,None,1,1,0.3705136,,,,,,,,,,,,,,,,,,,10,16,1,2024-10-30_14h59.33.231,uWM_experiment,2022.2.3,59.99887202
,,,,,,,,,,,,,,,,,,,,8,0,8,0,11,0,11,0,,,,,,,,,,,,,,,,,,,,,,,,,,,,,,,,,,,,,,,,,,,,,,,,,,,,,,,,,,,,,,,,,,,,,,0.055818418,,,,,,,,,,,,,,,,,,,,,,,,,,,,right,0,100,-30,70,1,4226.983921,4226.983921,4226.983921,None,None,1,1,0.4616726,,,,,,,,,,,,,,,,,,,10,16,1,2024-10-30_14h59.33.231,uWM_experiment,2022.2.3,59.99887202
,,,,,,,,,,,,,,,,,,,,8,0,8,0,12,0,12,0,,,,,,,,,,,,,,,,,,,,,,,,,,,,,,,,,,,,,,,,,,,,,,,,,,,,,,,,,,,,,,,,,,,,,,0.065818418,,,,,,,,,,,,,,,,,,,,,,,,,,,,left,0,70,30,100,1,4233.217536,4233.217536,4233.217536,None,None,1,1,1.0120379,,,,,,,,,,,,,,,,,,,10,16,1,2024-10-30_14h59.33.231,uWM_experiment,2022.2.3,59.99887202
,,,,,,,,,,,,,,,,,,,,8,0,8,0,13,0,13,0,,,,,,,,,,,,,,,,,,,,,,,,,,,,,,,,,,,,,,,,,,,,,,,,,,,,,,,,,,,,,,,,,,,,,,0.075818418,,,,,,,,,,,,,,,,,,,,,,,,,,,,right,0,40,-30,10,1,4240.684545,4240.684545,4240.684545,None,None,1,1,3.4171434,,,,,,,,,,,,,,,,,,,10,16,1,2024-10-30_14h59.33.231,uWM_experiment,2022.2.3,59.99887202
,,,,,,,,,,,,,,,,,,,,8,0,8,0,14,0,14,0,,,,,,,,,,,,,,,,,,,,,,,,,,,,,,,,,,,,,,,,,,,,,,,,,,,,,,,,,,,,,,,,,,,,,,0.085818418,,,,,,,,,,,,,,,,,,,,,,,,,,,,right,0,70,-30,40,1,4250.3683,4250.3683,4250.3683,None,None,1,1,3.9813601,,,,,,,,,,,,,,,,,,,10,16,1,2024-10-30_14h59.33.231,uWM_experiment,2022.2.3,59.99887202
,,,,,,,,,,,,,,,,,,,,8,0,8,0,15,0,15,0,,,,,,,,,,,,,,,,,,,,,,,,,,,,,,,,,,,,,,,,,,,,,,,,,,,,,,,,,,,,,,,,,,,,,,0,,,,,,,,,,,,,,,,,,,,,,,,,,,,left,0,100,30,130,0,4260.268738,4260.268738,4260.268738,None,None,1,1,0.7128678,,,,,,,,,,,,,,,,,,,10,16,1,2024-10-30_14h59.33.231,uWM_experiment,2022.2.3,59.99887202
,,,,,,,,,,,,,,,,,,,,8,0,8,0,16,0,16,0,,,,,,,,,,,,,,,,,,,,,,,,,,,,,,,,,,,,,,,,,,,,,,,,,,,,,,,,,,,,,,,,,,,,,,0.095818418,,,,,,,,,,,,,,,,,,,,,,,,,,,,right,0,130,-30,100,1,4267.352366,4267.352366,4267.352366,None,None,2,0,0.5252205,,,,,,,,,,,,,,,,,,,10,16,1,2024-10-30_14h59.33.231,uWM_experiment,2022.2.3,59.99887202
,,,,,,,,,,,,,,,,,,,,8,0,8,0,17,0,17,0,,,,,,,,,,,,,,,,,,,,,,,,,,,,,,,,,,,,,,,,,,,,,,,,,,,,,,,,,,,,,,,,,,,,,,0.085818418,,,,,,,,,,,,,,,,,,,,,,,,,,,,right,0,40,-30,10,1,4274.019357,4274.019357,4274.019357,None,None,2,0,0.3701807,,,,,,,,,,,,,,,,,,,10,16,1,2024-10-30_14h59.33.231,uWM_experiment,2022.2.3,59.99887202
,,,,,,,,,,,,,,,,,,,,8,0,8,0,18,0,18,0,,,,,,,,,,,,,,,,,,,,,,,,,,,,,,,,,,,,,,,,,,,,,,,,,,,,,,,,,,,,,,,,,,,,,,0.075818418,,,,,,,,,,,,,,,,,,,,,,,,,,,,left,1,40,-30,10,1,4280.552988,4280.552988,4280.552988,None,None,2,0,3.0365437,,,,,,,,,,,,,,,,,,,10,16,1,2024-10-30_14h59.33.231,uWM_experiment,2022.2.3,59.99887202
,,,,,,,,,,,,,,,,,,,,8,0,8,0,19,0,19,0,,,,,,,,,,,,,,,,,,,,,,,,,,,,,,,,,,,,,,,,,,,,,,,,,,,,,,,,,,,,,,,,,,,,,,0.1,,,,,,,,,,,,,,,,,,,,,,,,,,,,right,1,40,30,70,2,4289.636726,4289.636726,4289.636726,None,None,4,0,0.8328539,,,,,,,,,,,,,,,,,,,10,16,1,2024-10-30_14h59.33.231,uWM_experiment,2022.2.3,59.99887202
,,,,,,,,,,,,,,,,,,,,8,0,8,0,20,0,20,0,,,,,,,,,,,,,,,,,,,,,,,,,,,,,,,,,,,,,,,,,,,,,,,,,,,,,,,,,,,,,,,,,,,,,,0,,,,,,,,,,,,,,,,,,,,,,,,,,,,right,0,100,-30,70,0,4297.620394,4297.620394,4297.620394,None,None,1,1,0.8892079,,,,,,,,,,,,,,,,,,,10,16,1,2024-10-30_14h59.33.231,uWM_experiment,2022.2.3,59.99887202
,,,,,,,,,,,,,,,,,,,,8,0,8,0,21,0,21,0,,,,,,,,,,,,,,,,,,,,,,,,,,,,,,,,,,,,,,,,,,,,,,,,,,,,,,,,,,,,,,,,,,,,,,0.065818418,,,,,,,,,,,,,,,,,,,,,,,,,,,,right,0,100,-30,70,1,4306.920835,4306.920835,4306.920835,None,None,1,1,1.4367039,,,,,,,,,,,,,,,,,,,10,16,1,2024-10-30_14h59.33.231,uWM_experiment,2022.2.3,59.99887202
,,,,,,,,,,,,,,,,,,,,8,0,8,0,22,0,22,0,,,,,,,,,,,,,,,,,,,,,,,,,,,,,,,,,,,,,,,,,,,,,,,,,,,,,,,,,,,,,,,,,,,,,,0.075818418,,,,,,,,,,,,,,,,,,,,,,,,,,,,right,1,160,30,190,1,4316.137916,4316.137916,4316.137916,None,None,2,0,1.5397944,,,,,,,,,,,,,,,,,,,10,16,1,2024-10-30_14h59.33.231,uWM_experiment,2022.2.3,59.99887202
,,,,,,,,,,,,,,,,,,,,8,0,8,0,23,0,23,0,,,,,,,,,,,,,,,,,,,,,,,,,,,,,,,,,,,,,,,,,,,,,,,,,,,,,,,,,,,,,,,,,,,,,,0.065818418,,,,,,,,,,,,,,,,,,,,,,,,,,,,left,1,40,-30,10,1,4324.054919,4324.054919,4324.054919,None,None,2,0,1.0068045,,,,,,,,,,,,,,,,,,,10,16,1,2024-10-30_14h59.33.231,uWM_experiment,2022.2.3,59.99887202
,,,,,,,,,,,,,,,,,,,,8,0,8,0,,,,,0,0,0,0,,,,,,,,,,,,,,,,,,,,,,,,,,,,,,,,,,,,,,,,,,,,,,,,,,,,,,,,,,,,,,,,,,,,,,,,,,,,,,,,,,,,,,,,,,,,,,,,,,,,,,,,,,,,4325.088294,4325.088294,space,81.2134372,space,None,,4406.325269,4406.325269,5.4884333,,,,,,,,,10,16,1,2024-10-30_14h59.33.231,uWM_experiment,2022.2.3,59.99887202
,,,,,,,,,,,,,,,,,,,,8,0,8,0,,,,,1,0,1,0,,,,,,,,,,,,,,,,,,,,,,,,,,,,,,,,,,,,,,,,,,,,,,,,,,,,,,,,,,,,,,,,,,,,,,,,,,,,,,,,,,,,,,,,,,,,,,,,,,,,,,,,,,,,,,,,,,,,,,,,,,,,,,10,16,1,2024-10-30_14h59.33.231,uWM_experiment,2022.2.3,59.99887202
,,,,,,,,,,,,,,,,,,,,8,0,8,0,,,,,2,0,2,0,,,,,,,,,,,,,,,,,,,,,,,,,,,,,,,,,,,,,,,,,,,,,,,,,,,,,,,,,,,,,,,,,,,,,,,,,,,,,,,,,,,,,,,,,,,,,,,,,,,,,,,,,,,,,,,,,,,,,,,,,,,,,,10,16,1,2024-10-30_14h59.33.231,uWM_experiment,2022.2.3,59.99887202
,,,,,,,,,,,,,,,,,,,,9,0,9,0,0,0,0,0,,,,,,,,,,,,,,,,,,,,,,,,,,,,,,,,,,,,,,,,,,,,,,,,,,,,,,,,,,,,,,,,,,,,,,0.1,,,,,,,,,,,,,,,,,,,,4411.842162,4412.542206,4412.842222,4413.542273,4413.842251,4414.542296,4414.542296,4414.858988,right,0,10,-30,-20,2,4420.425902,4420.425902,4420.425902,None,None,4,0,1.3557516,,,,,,,None,,,,,,,,,,,,10,16,1,2024-10-30_14h59.33.231,uWM_experiment,2022.2.3,59.99887202
,,,,,,,,,,,,,,,,,,,,9,0,9,0,1,0,1,0,,,,,,,,,,,,,,,,,,,,,,,,,,,,,,,,,,,,,,,,,,,,,,,,,,,,,,,,,,,,,,,,,,,,,,0,,,,,,,,,,,,,,,,,,,,,,,,,,,,right,0,40,-30,10,0,4428.942961,4428.942961,4428.942961,None,None,1,1,3.8706854,,,,,,,,,,,,,,,,,,,10,16,1,2024-10-30_14h59.33.231,uWM_experiment,2022.2.3,59.99887202
,,,,,,,,,,,,,,,,,,,,9,0,9,0,2,0,2,0,,,,,,,,,,,,,,,,,,,,,,,,,,,,,,,,,,,,,,,,,,,,,,,,,,,,,,,,,,,,,,,,,,,,,,0.055818418,,,,,,,,,,,,,,,,,,,,,,,,,,,,right,1,10,30,40,1,4438.510064,4438.510064,4438.510064,None,None,1,1,2.3517245,,,,,,,,,,,,,,,,,,,10,16,1,2024-10-30_14h59.33.231,uWM_experiment,2022.2.3,59.99887202
,,,,,,,,,,,,,,,,,,,,9,0,9,0,3,0,3,0,,,,,,,,,,,,,,,,,,,,,,,,,,,,,,,,,,,,,,,,,,,,,,,,,,,,,,,,,,,,,,,,,,,,,,0.065818418,,,,,,,,,,,,,,,,,,,,,,,,,,,,left,1,160,-30,130,1,4446.910428,4446.910428,4446.910428,None,None,1,1,1.1112763,,,,,,,,,,,,,,,,,,,10,16,1,2024-10-30_14h59.33.231,uWM_experiment,2022.2.3,59.99887202
,,,,,,,,,,,,,,,,,,,,9,0,9,0,4,0,4,0,,,,,,,,,,,,,,,,,,,,,,,,,,,,,,,,,,,,,,,,,,,,,,,,,,,,,,,,,,,,,,,,,,,,,,0.075818418,,,,,,,,,,,,,,,,,,,,,,,,,,,,right,0,70,-30,40,1,4453.594051,4453.594051,4453.594051,None,None,1,1,0.83558,,,,,,,,,,,,,,,,,,,10,16,1,2024-10-30_14h59.33.231,uWM_experiment,2022.2.3,59.99887202
,,,,,,,,,,,,,,,,,,,,9,0,9,0,5,0,5,0,,,,,,,,,,,,,,,,,,,,,,,,,,,,,,,,,,,,,,,,,,,,,,,,,,,,,,,,,,,,,,,,,,,,,,0,,,,,,,,,,,,,,,,,,,,,,,,,,,,right,1,10,30,40,0,4460.161014,4460.161014,4460.161014,None,None,1,1,0.7486165,,,,,,,,,,,,,,,,,,,10,16,1,2024-10-30_14h59.33.231,uWM_experiment,2022.2.3,59.99887202
,,,,,,,,,,,,,,,,,,,,9,0,9,0,6,0,6,0,,,,,,,,,,,,,,,,,,,,,,,,,,,,,,,,,,,,,,,,,,,,,,,,,,,,,,,,,,,,,,,,,,,,,,0.085818418,,,,,,,,,,,,,,,,,,,,,,,,,,,,right,1,160,30,190,1,4467.59468,4467.59468,4467.59468,None,None,3,0,9.234954,,,,,,,,,,,,,,,,,,,10,16,1,2024-10-30_14h59.33.231,uWM_experiment,2022.2.3,59.99887202
