PreTrainingPAS4_loop.thisRepN,PreTrainingPAS4_loop.thisTrialN,PreTrainingPAS4_loop.thisN,PreTrainingPAS4_loop.thisIndex,PreTrainingPAS1_loop.thisRepN,PreTrainingPAS1_loop.thisTrialN,PreTrainingPAS1_loop.thisN,PreTrainingPAS1_loop.thisIndex,RepeatCV_loop.thisRepN,RepeatCV_loop.thisTrialN,RepeatCV_loop.thisN,RepeatCV_loop.thisIndex,TrainingCV_loop.thisRepN,TrainingCV_loop.thisTrialN,TrainingCV_loop.thisN,TrainingCV_loop.thisIndex,TrainingCAL_loop.thisRepN,TrainingCAL_loop.thisTrialN,TrainingCAL_loop.thisN,TrainingCAL_loop.thisIndex,blocks_loop.thisRepN,blocks_loop.thisTrialN,blocks_loop.thisN,blocks_loop.thisIndex,trials_loop.thisRepN,trials_loop.thisTrialN,trials_loop.thisN,trials_loop.thisIndex,TrainingPAS1_loop.thisRepN,TrainingPAS1_loop.thisTrialN,TrainingPAS1_loop.thisN,TrainingPAS1_loop.thisIndex,spacebarWelcome0.started,spacebarWelcome0.keys,spacebarWelcome0.rt,spacebarWelcome1.started,gaborWelcome1.started,maskWelcome1.started,textMaskWelcome1.started,spacebarWelcome1.keys,spacebarWelcome1.rt,spacebarWelcome2.started,spacebarWelcome2.keys,spacebarWelcome2.rt,textInst_PreTrainingPAS4.started,spacebarPreTrainingPAS4.started,spacebarPreTrainingPAS4.keys,spacebarPreTrainingPAS4.rt,textPreTrainingPAS1.started,spacebarPreTrainingPAS1.started,spacebarPreTrainingPAS1.keys,spacebarPreTrainingPAS1.rt,textQUEST0.started,spacebarQUEST0.started,spacebarQUEST0.keys,spacebarQUEST0.rt,spacebar0.started,spacebar0.keys,spacebar0.rt,spacebar1.started,spacebar1.keys,spacebar1.rt,textInstructions2.started,spacebar2.started,Gabor1Inst2.started,Gabor2Inst2.started,Gabor3Inst2.started,Gabor4Inst2.started,spacebar2.keys,spacebar2.rt,textInstructionsPAS.started,spacebarInstPAS.started,spacebarInstPAS.keys,spacebarInstPAS.rt,textInstructions3.started,spacebar3.started,spacebar3.keys,spacebar3.rt,WMresp_CV,WMresp_CV_acc,oriMemo_CV,gyre_CV,oriTest_CV,feedbackText.started,feedbackText.stopped,sliderCV.started,PAStextCV.started,PASkeyCV.started,sliderCV.response,sliderCV.rt,PASkeyCV.keys,PASkeyCV.corr,PASkeyCV.rt,TextInstructionsCAL.started,spacebarCAL.started,spacebarCAL.keys,spacebarCAL.rt,contrast,WMresp_CAL,WMresp_CAL_acc,oriMemo_CAL,gyre_CAL,oriTest_CAL,cue_CAL,sliderCAL.started,PAStextCAL.started,PASkeyCAL.started,sliderCAL.response,sliderCAL.rt,PASkeyCAL.keys,PASkeyCAL.corr,PASkeyCAL.rt,propUnseen_CAL,textStart.started,spacebar4.started,spacebar4.keys,spacebar4.rt,three.started,three.stopped,two.started,two.stopped,one.started,one.stopped,blank_countdown.started,blank_countdown.stopped,WMresp,WMresp_acc,oriMemo,gyre,oriTest,cue,slider.started,textPAS_firstGabor.started,PASkey.started,slider.response,slider.rt,PASkey.keys,PASkey.corr,PASkey.rt,spacebarContinue.started,textBreak.started,spacebarContinue.keys,spacebarContinue.rt,spacebar_reminder.keys,spacebar_TrainingPAS1.keys,spacebar_endpractice.keys,spacebar_reminder.started,textReminder.started,spacebar_reminder.rt,textInst_TrainingPAS1.started,spacebar_TrainingPAS1.started,spacebar_TrainingPAS1.rt,textend_practicePAS1.started,spacebar_endpractice.started,spacebar_endpractice.rt,textThanks.started,buttonURL.started,buttonURL.numClicks,buttonURL.timesOn,buttonURL.timesOff,laboratory,participant,session,date,expName,psychopyVersion,frameRate
,,,,,,,,,,,,,,,,,,,,,,,,,,,,,,,,81.4473979,space,15.699934,,,,,,,,,,,,,,,,,,,,,,,,,,,,,,,,,,,,,,,,,,,,,,,,,,,,,,,,,,,,,,,,,,,,,,,,,,,,,,,,,,,,,,,,,,,,,,,,,,,,,,,,,,,,,,,,,,,,,,,,,,,,,,10,17,2,2024-11-10_18h21.04.406,uWM_experiment,2022.2.3,60.00456035
,,,,,,,,,,,,,,,,,,,,,,,,,,,,,,,,,,,97.1813176,97.1813176,97.1813176,97.1813176,space,14.2779514,,,,,,,,,,,,,,,,,,,,,,,,,,,,,,,,,,,,,,,,,,,,,,,,,,,,,,,,,,,,,,,,,,,,,,,,,,,,,,,,,,,,,,,,,,,,,,,,,,,,,,,,,,,,,,,,,,,,,,,,10,17,2,2024-11-10_18h21.04.406,uWM_experiment,2022.2.3,60.00456035
,,,,,,,,,,,,,,,,,,,,,,,,,,,,,,,,,,,,,,,,,111.4986478,space,11.1685832,,,,,,,,,,,,,,,,,,,,,,,,,,,,,,,,,,,,,,,,,,,,,,,,,,,,,,,,,,,,,,,,,,,,,,,,,,,,,,,,,,,,,,,,,,,,,,,,,,,,,,,,,,,,,,,,,,,,,10,17,2,2024-11-10_18h21.04.406,uWM_experiment,2022.2.3,60.00456035
,,,,,,,,,,,,,,,,,,,,,,,,,,,,,,,,,,,,,,,,,,,,122.699083,122.699083,space,2.6004363,,,,,,,,,,,,,,,,,,,,,,,,,,,,,,,,,,,,,,,,,,,,,,,,,,,,,,,,,,,,,,,,,,,,,,,,,,,,,,,,,,,,,,,,,,,,,,,,,,,,,,,,,,,,,,,,,10,17,2,2024-11-10_18h21.04.406,uWM_experiment,2022.2.3,60.00456035
0,0,0,0,,,,,,,,,,,,,,,,,,,,,,,,,,,,,,,,,,,,,,,,,,,,,,,,,,,,,,,,,,,,,,,,,,,,,,,,,,,,,,,,,,,,,,,,,,,,,,,,,,,,,,,,,,,,,,,,,,,,,,,,,,,,,,,,,,,,,,,,,,,,,,,,,,,,,,,,,,,,,10,17,2,2024-11-10_18h21.04.406,uWM_experiment,2022.2.3,60.00456035
1,0,1,0,,,,,,,,,,,,,,,,,,,,,,,,,,,,,,,,,,,,,,,,,,,,,,,,,,,,,,,,,,,,,,,,,,,,,,,,,,,,,,,,,,,,,,,,,,,,,,,,,,,,,,,,,,,,,,,,,,,,,,,,,,,,,,,,,,,,,,,,,,,,,,,,,,,,,,,,,,,,,10,17,2,2024-11-10_18h21.04.406,uWM_experiment,2022.2.3,60.00456035
2,0,2,0,,,,,,,,,,,,,,,,,,,,,,,,,,,,,,,,,,,,,,,,,,,,,,,,,,,,,,,,,,,,,,,,,,,,,,,,,,,,,,,,,,,,,,,,,,,,,,,,,,,,,,,,,,,,,,,,,,,,,,,,,,,,,,,,,,,,,,,,,,,,,,,,,,,,,,,,,,,,,10,17,2,2024-11-10_18h21.04.406,uWM_experiment,2022.2.3,60.00456035
,,,,,,,,,,,,,,,,,,,,,,,,,,,,,,,,,,,,,,,,,,,,,,,,140.9498981,140.9498981,space,4.2054368,,,,,,,,,,,,,,,,,,,,,,,,,,,,,,,,,,,,,,,,,,,,,,,,,,,,,,,,,,,,,,,,,,,,,,,,,,,,,,,,,,,,,,,,,,,,,,,,,,,,,,,,,,,,,10,17,2,2024-11-10_18h21.04.406,uWM_experiment,2022.2.3,60.00456035
,,,,0,0,0,0,,,,,,,,,,,,,,,,,,,,,,,,,,,,,,,,,,,,,,,,,,,,,,,,,,,,,,,,,,,,,,,,,,,,,,,,,,,,,,,,,,,,,,,,,,,,,,,,,,,,,,,,,,,,,,,,,,,,,,,,,,,,,,,,,,,,,,,,,,,,,,,,,,,,,,,,,10,17,2,2024-11-10_18h21.04.406,uWM_experiment,2022.2.3,60.00456035
,,,,1,0,1,0,,,,,,,,,,,,,,,,,,,,,,,,,,,,,,,,,,,,,,,,,,,,,,,,,,,,,,,,,,,,,,,,,,,,,,,,,,,,,,,,,,,,,,,,,,,,,,,,,,,,,,,,,,,,,,,,,,,,,,,,,,,,,,,,,,,,,,,,,,,,,,,,,,,,,,,,,10,17,2,2024-11-10_18h21.04.406,uWM_experiment,2022.2.3,60.00456035
,,,,2,0,2,0,,,,,,,,,,,,,,,,,,,,,,,,,,,,,,,,,,,,,,,,,,,,,,,,,,,,,,,,,,,,,,,,,,,,,,,,,,,,,,,,,,,,,,,,,,,,,,,,,,,,,,,,,,,,,,,,,,,,,,,,,,,,,,,,,,,,,,,,,,,,,,,,,,,,,,,,,10,17,2,2024-11-10_18h21.04.406,uWM_experiment,2022.2.3,60.00456035
,,,,,,,,,,,,,,,,,,,,,,,,,,,,,,,,,,,,,,,,,,,,,,,,,,,,152.8337846,152.8337846,space,3.8015423,,,,,,,,,,,,,,,,,,,,,,,,,,,,,,,,,,,,,,,,,,,,,,,,,,,,,,,,,,,,,,,,,,,,,,,,,,,,,,,,,,,,,,,,,,,,,,,,,,,,,,,,,10,17,2,2024-11-10_18h21.04.406,uWM_experiment,2022.2.3,60.00456035
,,,,,,,,,,,,,,,,,,,,,,,,,,,,,,,,,,,,,,,,,,,,,,,,,,,,,,,,285.0230842,space,5.396395,,,,,,,,,,,,,,,,,,,,,,,,,,,,,,,,,,,,,,,,,,,,,,,,,,,,,,,,,,,,,,,,,,,,,,,,,,,,,,,,,,,,,,,,,,,,,,,,,,,,,,10,17,2,2024-11-10_18h21.04.406,uWM_experiment,2022.2.3,60.00456035
,,,,,,,,,,,,,,,,,,,,,,,,,,,,,,,,,,,,,,,,,,,,,,,,,,,,,,,,,,,290.4399689,space,27.7236202,,,,,,,,,,,,,,,,,,,,,,,,,,,,,,,,,,,,,,,,,,,,,,,,,,,,,,,,,,,,,,,,,,,,,,,,,,,,,,,,,,,,,,,,,,,,,,,,,,,10,17,2,2024-11-10_18h21.04.406,uWM_experiment,2022.2.3,60.00456035
,,,,,,,,,,,,,,,,,,,,,,,,,,,,,,,,,,,,,,,,,,,,,,,,,,,,,,,,,,,,,,318.1912235,318.1912235,318.1912235,318.1912235,318.1912235,318.1912235,space,22.724414,,,,,,,,,,,,,,,,,,,,,,,,,,,,,,,,,,,,,,,,,,,,,,,,,,,,,,,,,,,,,,,,,,,,,,,,,,,,,,,,,,,,,,,,,,,10,17,2,2024-11-10_18h21.04.406,uWM_experiment,2022.2.3,60.00456035
,,,,,,,,,,,,,,,,,,,,,,,,,,,,,,,,,,,,,,,,,,,,,,,,,,,,,,,,,,,,,,,,,,,,,,340.9422382,340.9422382,space,10.693385,,,,,,,,,,,,,,,,,,,,,,,,,,,,,,,,,,,,,,,,,,,,,,,,,,,,,,,,,,,,,,,,,,,,,,,,,,,,,,,,,,,,,,,10,17,2,2024-11-10_18h21.04.406,uWM_experiment,2022.2.3,60.00456035
,,,,,,,,,,,,,,,,,,,,,,,,,,,,,,,,,,,,,,,,,,,,,,,,,,,,,,,,,,,,,,,,,,,,,,,,,,351.6593963,351.6593963,space,6.7442882,,,,,,,,,,,,,,,,,,,,,,,,,,,,,,,,,,,,,,,,,,,,,,,,,,,,,,,,,,,,,,,,,,,,,,,,,,,,,,,,,,,10,17,2,2024-11-10_18h21.04.406,uWM_experiment,2022.2.3,60.00456035
,,,,,,,,0,0,0,0,0,0,0,0,,,,,,,,,,,,,,,,,,,,,,,,,,,,,,,,,,,,,,,,,,,,,,,,,,,,,,,,,,,,,,,left,0,40,30,70,370.2436064,371.2436292,371.2436292,371.2436292,371.2436292,None,None,1,1,2.5280197,,,,,,,,,,,,,,,,,,,,,,,,,,,,,,,,,,,,,,,,,,,,,,,,,,,,,,,,,,,,,,,,,,,,10,17,2,2024-11-10_18h21.04.406,uWM_experiment,2022.2.3,60.00456035
,,,,,,,,0,0,0,0,1,0,1,0,,,,,,,,,,,,,,,,,,,,,,,,,,,,,,,,,,,,,,,,,,,,,,,,,,,,,,,,,,,,,,,right,1,10,30,40,380.9440817,381.9441097,381.9441097,381.9441097,381.9441097,None,None,4,0,3.2995739,,,,,,,,,,,,,,,,,,,,,,,,,,,,,,,,,,,,,,,,,,,,,,,,,,,,,,,,,,,,,,,,,,,,10,17,2,2024-11-10_18h21.04.406,uWM_experiment,2022.2.3,60.00456035
,,,,,,,,0,0,0,0,2,0,2,0,,,,,,,,,,,,,,,,,,,,,,,,,,,,,,,,,,,,,,,,,,,,,,,,,,,,,,,,,,,,,,,left,1,100,-30,70,391.1612296,392.1612445,392.1612445,392.1612445,392.1612445,None,None,4,0,1.8264014,,,,,,,,,,,,,,,,,,,,,,,,,,,,,,,,,,,,,,,,,,,,,,,,,,,,,,,,,,,,,,,,,,,,10,17,2,2024-11-10_18h21.04.406,uWM_experiment,2022.2.3,60.00456035
,,,,,,,,0,0,0,0,3,0,3,0,,,,,,,,,,,,,,,,,,,,,,,,,,,,,,,,,,,,,,,,,,,,,,,,,,,,,,,,,,,,,,,left,0,130,30,160,399.6949632,400.6949608,400.6949608,400.6949608,400.6949608,None,None,4,0,2.972744,,,,,,,,,,,,,,,,,,,,,,,,,,,,,,,,,,,,,,,,,,,,,,,,,,,,,,,,,,,,,,,,,,,,10,17,2,2024-11-10_18h21.04.406,uWM_experiment,2022.2.3,60.00456035
,,,,,,,,0,0,0,0,4,0,4,0,,,,,,,,,,,,,,,,,,,,,,,,,,,,,,,,,,,,,,,,,,,,,,,,,,,,,,,,,,,,,,,left,1,160,-30,130,413.478898,,414.4789151,414.4789151,414.4789151,None,None,4,0,1.5247736,,,,,,,,,,,,,,,,,,,,,,,,,,,,,,,,,,,,,,,,,,,,,,,,,,,,,,,,,,,,,,,,,,,,10,17,2,2024-11-10_18h21.04.406,uWM_experiment,2022.2.3,60.00456035
,,,,,,,,0,0,0,0,5,0,5,0,,,,,,,,,,,,,,,,,,,,,,,,,,,,,,,,,,,,,,,,,,,,,,,,,,,,,,,,,,,,,,,right,0,10,-30,-20,426.2127939,427.2128321,427.2128321,427.2128321,427.2128321,None,None,4,0,2.5828945,,,,,,,,,,,,,,,,,,,,,,,,,,,,,,,,,,,,,,,,,,,,,,,,,,,,,,,,,,,,,,,,,,,,10,17,2,2024-11-10_18h21.04.406,uWM_experiment,2022.2.3,60.00456035
,,,,,,,,0,0,0,0,,,,,,,,,,,,,,,,,,,,,,,,,,,,,,,,,,,,,,,,,,,,,,,,,,,,,,,,,,,,,,,,,,,,,,,,,,,,,,,,,,,,,,,,,,,,,,,,,,,,,,,,,,,,,,,,,,,,,,,,,,,,,,,,,,,,,,,,,,,,,,,,,,,,,10,17,2,2024-11-10_18h21.04.406,uWM_experiment,2022.2.3,60.00456035
,,,,,,,,,,,,,,,,,,,,,,,,,,,,,,,,,,,,,,,,,,,,,,,,,,,,,,,,,,,,,,,,,,,,,,,,,,,,,,,,,,,,,,,,,,,,,434.663185,434.663185,space,3.0285783,,,,,,,,,,,,,,,,,,,,,,,,,,,,,,,,,,,,,,,,,,,,,,,,,,,,,,,,,,,,,,,,10,17,2,2024-11-10_18h21.04.406,uWM_experiment,2022.2.3,60.00456035
,,,,,,,,,,,,,,,,0,0,0,0,,,,,,,,,,,,,,,,,,,,,,,,,,,,,,,,,,,,,,,,,,,,,,,,,,,,,,,,,,,,,,,,,,,,,,,,,,,,,,0.155039171,left,1,130,-30,100,1,447.830449,447.830449,447.830449,None,None,3,0,2.5893414,,,,,,,,,,,,,,,,,,,,,,,,,,,,,,,,,,,,,,,,,,,,,,,,,10,17,2,2024-11-10_18h21.04.406,uWM_experiment,2022.2.3,60.00456035
,,,,,,,,,,,,,,,,1,0,1,0,,,,,,,,,,,,,,,,,,,,,,,,,,,,,,,,,,,,,,,,,,,,,,,,,,,,,,,,,,,,,,,,,,,,,,,,,,,,,,0.1,left,1,70,-30,40,2,458.1142419,458.1142419,458.1142419,None,None,4,0,1.2174069,0,,,,,,,,,,,,,,,,,,,,,,,,,,,,,,,,,,,,,,,,,,,,,,,,10,17,2,2024-11-10_18h21.04.406,uWM_experiment,2022.2.3,60.00456035
,,,,,,,,,,,,,,,,2,0,2,0,,,,,,,,,,,,,,,,,,,,,,,,,,,,,,,,,,,,,,,,,,,,,,,,,,,,,,,,,,,,,,,,,,,,,,,,,,,,,,0.145039171,left,0,100,30,130,1,469.7481212,469.7481212,469.7481212,None,None,2,0,2.4156355,0,,,,,,,,,,,,,,,,,,,,,,,,,,,,,,,,,,,,,,,,,,,,,,,,10,17,2,2024-11-10_18h21.04.406,uWM_experiment,2022.2.3,60.00456035
,,,,,,,,,,,,,,,,3,0,3,0,,,,,,,,,,,,,,,,,,,,,,,,,,,,,,,,,,,,,,,,,,,,,,,,,,,,,,,,,,,,,,,,,,,,,,,,,,,,,,0.135039171,right,1,160,30,190,1,478.9985299,478.9985299,478.9985299,None,None,3,0,1.2851395,0,,,,,,,,,,,,,,,,,,,,,,,,,,,,,,,,,,,,,,,,,,,,,,,,10,17,2,2024-11-10_18h21.04.406,uWM_experiment,2022.2.3,60.00456035
,,,,,,,,,,,,,,,,4,0,4,0,,,,,,,,,,,,,,,,,,,,,,,,,,,,,,,,,,,,,,,,,,,,,,,,,,,,,,,,,,,,,,,,,,,,,,,,,,,,,,0.1,left,1,40,-30,10,2,486.982216,486.982216,486.982216,None,None,4,0,0.4295852,0,,,,,,,,,,,,,,,,,,,,,,,,,,,,,,,,,,,,,,,,,,,,,,,,10,17,2,2024-11-10_18h21.04.406,uWM_experiment,2022.2.3,60.00456035
,,,,,,,,,,,,,,,,5,0,5,0,,,,,,,,,,,,,,,,,,,,,,,,,,,,,,,,,,,,,,,,,,,,,,,,,,,,,,,,,,,,,,,,,,,,,,,,,,,,,,0.1,right,1,10,30,40,2,494.0325149,494.0325149,494.0325149,None,None,4,0,1.6031831,0,,,,,,,,,,,,,,,,,,,,,,,,,,,,,,,,,,,,,,,,,,,,,,,,10,17,2,2024-11-10_18h21.04.406,uWM_experiment,2022.2.3,60.00456035
,,,,,,,,,,,,,,,,,,,,,,,,,,,,,,,,,,,,,,,,,,,,,,,,,,,,,,,,,,,,,,,,,,,,,,,,,,,,,,,,,,,,,,,,,,,,,,,,,,,,,,,,,,,,,,,,,495.6659156,496.6493009,space,5.9544986,,,,,,,,,,,,,,,,,,,,,,,,,,,,,,,,,,,,,,,,,,,,10,17,2,2024-11-10_18h21.04.406,uWM_experiment,2022.2.3,60.00456035
,,,,,,,,,,,,,,,,,,,,0,0,0,0,0,0,0,0,,,,,,,,,,,,,,,,,,,,,,,,,,,,,,,,,,,,,,,,,,,,,,,,,,,,,,,,,,,,,,,,,,,,,,0.135039171,,,,,,,,,,,,,,,,,,,,502.6329127,503.3329441,503.6162886,504.3163161,504.6163332,505.316364,505.316364,505.6664007,right,0,70,-30,40,1,520.6004214,520.6004214,520.6004214,None,None,1,1,5.0513145,,,,,,,,,,,,,,,,,,,,,,10,17,2,2024-11-10_18h21.04.406,uWM_experiment,2022.2.3,60.00456035
,,,,,,,,,,,,,,,,,,,,0,0,0,0,1,0,1,0,,,,,,,,,,,,,,,,,,,,,,,,,,,,,,,,,,,,,,,,,,,,,,,,,,,,,,,,,,,,,,,,,,,,,,0.145039171,,,,,,,,,,,,,,,,,,,,,,,,,,,,left,1,160,-30,130,1,534.2843732,534.2843732,534.2843732,None,None,2,0,1.9034271,,,,,,,,,,,,,,,,,,,,,,10,17,2,2024-11-10_18h21.04.406,uWM_experiment,2022.2.3,60.00456035
,,,,,,,,,,,,,,,,,,,,0,0,0,0,2,0,2,0,,,,,,,,,,,,,,,,,,,,,,,,,,,,,,,,,,,,,,,,,,,,,,,,,,,,,,,,,,,,,,,,,,,,,,0.135039171,,,,,,,,,,,,,,,,,,,,,,,,,,,,right,0,100,-30,70,1,547.2182699,547.2182699,547.2182699,None,None,3,0,1.713648,,,,,,,,,,,,,,,,,,,,,,10,17,2,2024-11-10_18h21.04.406,uWM_experiment,2022.2.3,60.00456035
,,,,,,,,,,,,,,,,,,,,0,0,0,0,3,0,3,0,,,,,,,,,,,,,,,,,,,,,,,,,,,,,,,,,,,,,,,,,,,,,,,,,,,,,,,,,,,,,,,,,,,,,,0,,,,,,,,,,,,,,,,,,,,,,,,,,,,right,1,40,30,70,0,556.6520453,556.6520453,556.6520453,None,None,3,0,9.271745,,,,,,,,,,,,,,,,,,,,,,10,17,2,2024-11-10_18h21.04.406,uWM_experiment,2022.2.3,60.00456035
,,,,,,,,,,,,,,,,,,,,0,0,0,0,4,0,4,0,,,,,,,,,,,,,,,,,,,,,,,,,,,,,,,,,,,,,,,,,,,,,,,,,,,,,,,,,,,,,,,,,,,,,,0.125039171,,,,,,,,,,,,,,,,,,,,,,,,,,,,right,1,40,30,70,1,577.4362959,577.4362959,577.4362959,None,None,1,1,0.6635962,,,,,,,,,,,,,,,,,,,,,,10,17,2,2024-11-10_18h21.04.406,uWM_experiment,2022.2.3,60.00456035
,,,,,,,,,,,,,,,,,,,,0,0,0,0,5,0,5,0,,,,,,,,,,,,,,,,,,,,,,,,,,,,,,,,,,,,,,,,,,,,,,,,,,,,,,,,,,,,,,,,,,,,,,0.135039171,,,,,,,,,,,,,,,,,,,,,,,,,,,,left,1,160,-30,130,1,584.3699715,584.3699715,584.3699715,None,None,1,1,1.6979874,,,,,,,,,,,,,,,,,,,,,,10,17,2,2024-11-10_18h21.04.406,uWM_experiment,2022.2.3,60.00456035
,,,,,,,,,,,,,,,,,,,,0,0,0,0,6,0,6,0,,,,,,,,,,,,,,,,,,,,,,,,,,,,,,,,,,,,,,,,,,,,,,,,,,,,,,,,,,,,,,,,,,,,,,0,,,,,,,,,,,,,,,,,,,,,,,,,,,,left,1,130,-30,100,0,591.4702966,591.4702966,591.4702966,None,None,1,1,0.3256448,,,,,,,,,,,,,,,,,,,,,,10,17,2,2024-11-10_18h21.04.406,uWM_experiment,2022.2.3,60.00456035
,,,,,,,,,,,,,,,,,,,,0,0,0,0,7,0,7,0,,,,,,,,,,,,,,,,,,,,,,,,,,,,,,,,,,,,,,,,,,,,,,,,,,,,,,,,,,,,,,,,,,,,,,0.145039171,,,,,,,,,,,,,,,,,,,,,,,,,,,,right,1,10,30,40,1,599.1206388,599.1206388,599.1206388,None,None,3,0,1.8512046,,,,,,,,,,,,,,,,,,,,,,10,17,2,2024-11-10_18h21.04.406,uWM_experiment,2022.2.3,60.00456035
,,,,,,,,,,,,,,,,,,,,0,0,0,0,8,0,8,0,,,,,,,,,,,,,,,,,,,,,,,,,,,,,,,,,,,,,,,,,,,,,,,,,,,,,,,,,,,,,,,,,,,,,,0.135039171,,,,,,,,,,,,,,,,,,,,,,,,,,,,right,1,160,30,190,1,610.4378036,610.4378036,610.4378036,None,None,3,0,0.8700655,,,,,,,,,,,,,,,,,,,,,,10,17,2,2024-11-10_18h21.04.406,uWM_experiment,2022.2.3,60.00456035
,,,,,,,,,,,,,,,,,,,,0,0,0,0,9,0,9,0,,,,,,,,,,,,,,,,,,,,,,,,,,,,,,,,,,,,,,,,,,,,,,,,,,,,,,,,,,,,,,,,,,,,,,0.125039171,,,,,,,,,,,,,,,,,,,,,,,,,,,,left,0,70,30,100,1,619.52155,619.52155,619.52155,None,None,3,0,0.7463705,,,,,,,,,,,,,,,,,,,,,,10,17,2,2024-11-10_18h21.04.406,uWM_experiment,2022.2.3,60.00456035
,,,,,,,,,,,,,,,,,,,,0,0,0,0,10,0,10,0,,,,,,,,,,,,,,,,,,,,,,,,,,,,,,,,,,,,,,,,,,,,,,,,,,,,,,,,,,,,,,,,,,,,,,0.115039171,,,,,,,,,,,,,,,,,,,,,,,,,,,,right,1,100,30,130,1,626.3385591,626.3385591,626.3385591,None,None,2,0,2.9533048,,,,,,,,,,,,,,,,,,,,,,10,17,2,2024-11-10_18h21.04.406,uWM_experiment,2022.2.3,60.00456035
,,,,,,,,,,,,,,,,,,,,0,0,0,0,11,0,11,0,,,,,,,,,,,,,,,,,,,,,,,,,,,,,,,,,,,,,,,,,,,,,,,,,,,,,,,,,,,,,,,,,,,,,,0.105039171,,,,,,,,,,,,,,,,,,,,,,,,,,,,left,1,100,-30,70,1,634.4222304,634.4222304,634.4222304,None,None,1,1,0.2376626,,,,,,,,,,,,,,,,,,,,,,10,17,2,2024-11-10_18h21.04.406,uWM_experiment,2022.2.3,60.00456035
,,,,,,,,,,,,,,,,,,,,0,0,0,0,12,0,12,0,,,,,,,,,,,,,,,,,,,,,,,,,,,,,,,,,,,,,,,,,,,,,,,,,,,,,,,,,,,,,,,,,,,,,,0.115039171,,,,,,,,,,,,,,,,,,,,,,,,,,,,left,0,130,30,160,1,640.6058499,640.6058499,640.6058499,None,None,2,0,0.6461866,,,,,,,,,,,,,,,,,,,,,,10,17,2,2024-11-10_18h21.04.406,uWM_experiment,2022.2.3,60.00456035
,,,,,,,,,,,,,,,,,,,,0,0,0,0,13,0,13,0,,,,,,,,,,,,,,,,,,,,,,,,,,,,,,,,,,,,,,,,,,,,,,,,,,,,,,,,,,,,,,,,,,,,,,0.105039171,,,,,,,,,,,,,,,,,,,,,,,,,,,,left,0,70,30,100,1,646.7727987,646.7727987,646.7727987,None,None,1,1,0.303109,,,,,,,,,,,,,,,,,,,,,,10,17,2,2024-11-10_18h21.04.406,uWM_experiment,2022.2.3,60.00456035
,,,,,,,,,,,,,,,,,,,,0,0,0,0,14,0,14,0,,,,,,,,,,,,,,,,,,,,,,,,,,,,,,,,,,,,,,,,,,,,,,,,,,,,,,,,,,,,,,,,,,,,,,0.115039171,,,,,,,,,,,,,,,,,,,,,,,,,,,,left,1,130,-30,100,1,652.7230519,652.7230519,652.7230519,None,None,2,0,0.4569971,,,,,,,,,,,,,,,,,,,,,,10,17,2,2024-11-10_18h21.04.406,uWM_experiment,2022.2.3,60.00456035
,,,,,,,,,,,,,,,,,,,,0,0,0,0,15,0,15,0,,,,,,,,,,,,,,,,,,,,,,,,,,,,,,,,,,,,,,,,,,,,,,,,,,,,,,,,,,,,,,,,,,,,,,0.105039171,,,,,,,,,,,,,,,,,,,,,,,,,,,,left,1,160,-30,130,1,659.5900228,659.5900228,659.5900228,None,None,1,1,0.3580412,,,,,,,,,,,,,,,,,,,,,,10,17,2,2024-11-10_18h21.04.406,uWM_experiment,2022.2.3,60.00456035
,,,,,,,,,,,,,,,,,,,,0,0,0,0,16,0,16,0,,,,,,,,,,,,,,,,,,,,,,,,,,,,,,,,,,,,,,,,,,,,,,,,,,,,,,,,,,,,,,,,,,,,,,0.115039171,,,,,,,,,,,,,,,,,,,,,,,,,,,,left,0,100,30,130,1,667.190374,667.190374,667.190374,None,None,2,0,0.6055235,,,,,,,,,,,,,,,,,,,,,,10,17,2,2024-11-10_18h21.04.406,uWM_experiment,2022.2.3,60.00456035
,,,,,,,,,,,,,,,,,,,,0,0,0,0,17,0,17,0,,,,,,,,,,,,,,,,,,,,,,,,,,,,,,,,,,,,,,,,,,,,,,,,,,,,,,,,,,,,,,,,,,,,,,0.105039171,,,,,,,,,,,,,,,,,,,,,,,,,,,,left,1,100,-30,70,1,678.1908653,678.1908653,678.1908653,None,None,1,1,0.2612252,,,,,,,,,,,,,,,,,,,,,,10,17,2,2024-11-10_18h21.04.406,uWM_experiment,2022.2.3,60.00456035
,,,,,,,,,,,,,,,,,,,,0,0,0,0,18,0,18,0,,,,,,,,,,,,,,,,,,,,,,,,,,,,,,,,,,,,,,,,,,,,,,,,,,,,,,,,,,,,,,,,,,,,,,0.115039171,,,,,,,,,,,,,,,,,,,,,,,,,,,,left,1,100,-30,70,1,683.8244741,683.8244741,683.8244741,None,None,1,1,0.3315028,,,,,,,,,,,,,,,,,,,,,,10,17,2,2024-11-10_18h21.04.406,uWM_experiment,2022.2.3,60.00456035
,,,,,,,,,,,,,,,,,,,,0,0,0,0,19,0,19,0,,,,,,,,,,,,,,,,,,,,,,,,,,,,,,,,,,,,,,,,,,,,,,,,,,,,,,,,,,,,,,,,,,,,,,0.125039171,,,,,,,,,,,,,,,,,,,,,,,,,,,,left,1,130,-30,100,1,689.57472,689.57472,689.57472,None,None,1,1,0.2692619,,,,,,,,,,,,,,,,,,,,,,10,17,2,2024-11-10_18h21.04.406,uWM_experiment,2022.2.3,60.00456035
,,,,,,,,,,,,,,,,,,,,0,0,0,0,20,0,20,0,,,,,,,,,,,,,,,,,,,,,,,,,,,,,,,,,,,,,,,,,,,,,,,,,,,,,,,,,,,,,,,,,,,,,,0,,,,,,,,,,,,,,,,,,,,,,,,,,,,left,0,40,30,70,0,695.5416473,695.5416473,695.5416473,None,None,1,1,0.2784161,,,,,,,,,,,,,,,,,,,,,,10,17,2,2024-11-10_18h21.04.406,uWM_experiment,2022.2.3,60.00456035
,,,,,,,,,,,,,,,,,,,,0,0,0,0,21,0,21,0,,,,,,,,,,,,,,,,,,,,,,,,,,,,,,,,,,,,,,,,,,,,,,,,,,,,,,,,,,,,,,,,,,,,,,0.135039171,,,,,,,,,,,,,,,,,,,,,,,,,,,,left,1,160,-30,130,1,701.7586021,701.7586021,701.7586021,None,None,2,0,0.3654272,,,,,,,,,,,,,,,,,,,,,,10,17,2,2024-11-10_18h21.04.406,uWM_experiment,2022.2.3,60.00456035
,,,,,,,,,,,,,,,,,,,,0,0,0,0,22,0,22,0,,,,,,,,,,,,,,,,,,,,,,,,,,,,,,,,,,,,,,,,,,,,,,,,,,,,,,,,,,,,,,,,,,,,,,0.125039171,,,,,,,,,,,,,,,,,,,,,,,,,,,,right,1,100,30,130,1,709.5256409,709.5256409,709.5256409,None,None,2,0,0.6304255,,,,,,,,,,,,,,,,,,,,,,10,17,2,2024-11-10_18h21.04.406,uWM_experiment,2022.2.3,60.00456035
,,,,,,,,,,,,,,,,,,,,0,0,0,0,23,0,23,0,,,,,,,,,,,,,,,,,,,,,,,,,,,,,,,,,,,,,,,,,,,,,,,,,,,,,,,,,,,,,,,,,,,,,,0.115039171,,,,,,,,,,,,,,,,,,,,,,,,,,,,left,1,130,-30,100,1,716.1925741,716.1925741,716.1925741,None,None,3,0,1.3156048,,,,,,,,,,,,,,,,,,,,,,10,17,2,2024-11-10_18h21.04.406,uWM_experiment,2022.2.3,60.00456035
,,,,,,,,,,,,,,,,,,,,0,0,0,0,,,,,0,0,0,0,,,,,,,,,,,,,,,,,,,,,,,,,,,,,,,,,,,,,,,,,,,,,,,,,,,,,,,,,,,,,,,,,,,,,,,,,,,,,,,,,,,,,,,,,,,,,,,,,,,,,,,,,,,,717.5259874,717.5259874,space,19.67008,None,None,,,,,,,,,,,,,,,,10,17,2,2024-11-10_18h21.04.406,uWM_experiment,2022.2.3,60.00456035
,,,,,,,,,,,,,,,,,,,,0,0,0,0,,,,,1,0,1,0,,,,,,,,,,,,,,,,,,,,,,,,,,,,,,,,,,,,,,,,,,,,,,,,,,,,,,,,,,,,,,,,,,,,,,,,,,,,,,,,,,,,,,,,,,,,,,,,,,,,,,,,,,,,,,,,,,,,,,,,,,,,,,,,,10,17,2,2024-11-10_18h21.04.406,uWM_experiment,2022.2.3,60.00456035
,,,,,,,,,,,,,,,,,,,,0,0,0,0,,,,,2,0,2,0,,,,,,,,,,,,,,,,,,,,,,,,,,,,,,,,,,,,,,,,,,,,,,,,,,,,,,,,,,,,,,,,,,,,,,,,,,,,,,,,,,,,,,,,,,,,,,,,,,,,,,,,,,,,,,,,,,,,,,,,,,,,,,,,,10,17,2,2024-11-10_18h21.04.406,uWM_experiment,2022.2.3,60.00456035
,,,,,,,,,,,,,,,,,,,,1,0,1,0,0,0,0,0,,,,,,,,,,,,,,,,,,,,,,,,,,,,,,,,,,,,,,,,,,,,,,,,,,,,,,,,,,,,,,,,,,,,,,0,,,,,,,,,,,,,,,,,,,,737.2268686,737.9268982,738.2269102,738.926943,739.2269817,739.9269867,739.9269867,740.2436808,left,0,10,30,40,0,744.7272218,744.7272218,744.7272218,None,None,1,1,0.2448526,,,,,,,None,,,,,,,,,,,,,,,10,17,2,2024-11-10_18h21.04.406,uWM_experiment,2022.2.3,60.00456035
,,,,,,,,,,,,,,,,,,,,1,0,1,0,1,0,1,0,,,,,,,,,,,,,,,,,,,,,,,,,,,,,,,,,,,,,,,,,,,,,,,,,,,,,,,,,,,,,,,,,,,,,,0.105039171,,,,,,,,,,,,,,,,,,,,,,,,,,,,left,1,70,-30,40,1,750.5108188,750.5108188,750.5108188,None,None,1,1,0.2532696,,,,,,,,,,,,,,,,,,,,,,10,17,2,2024-11-10_18h21.04.406,uWM_experiment,2022.2.3,60.00456035
,,,,,,,,,,,,,,,,,,,,1,0,1,0,2,0,2,0,,,,,,,,,,,,,,,,,,,,,,,,,,,,,,,,,,,,,,,,,,,,,,,,,,,,,,,,,,,,,,,,,,,,,,0.115039171,,,,,,,,,,,,,,,,,,,,,,,,,,,,right,1,130,30,160,1,756.9110992,756.9110992,756.9110992,None,None,2,0,1.4209314,,,,,,,,,,,,,,,,,,,,,,10,17,2,2024-11-10_18h21.04.406,uWM_experiment,2022.2.3,60.00456035
,,,,,,,,,,,,,,,,,,,,1,0,1,0,3,0,3,0,,,,,,,,,,,,,,,,,,,,,,,,,,,,,,,,,,,,,,,,,,,,,,,,,,,,,,,,,,,,,,,,,,,,,,0,,,,,,,,,,,,,,,,,,,,,,,,,,,,left,0,40,30,70,0,763.5280673,763.5280673,763.5280673,None,None,1,1,0.2600843,,,,,,,,,,,,,,,,,,,,,,10,17,2,2024-11-10_18h21.04.406,uWM_experiment,2022.2.3,60.00456035
,,,,,,,,,,,,,,,,,,,,1,0,1,0,4,0,4,0,,,,,,,,,,,,,,,,,,,,,,,,,,,,,,,,,,,,,,,,,,,,,,,,,,,,,,,,,,,,,,,,,,,,,,0.105039171,,,,,,,,,,,,,,,,,,,,,,,,,,,,left,1,160,-30,130,1,769.5783347,769.5783347,769.5783347,None,None,1,1,2.8738097,,,,,,,,,,,,,,,,,,,,,,10,17,2,2024-11-10_18h21.04.406,uWM_experiment,2022.2.3,60.00456035
,,,,,,,,,,,,,,,,,,,,1,0,1,0,5,0,5,0,,,,,,,,,,,,,,,,,,,,,,,,,,,,,,,,,,,,,,,,,,,,,,,,,,,,,,,,,,,,,,,,,,,,,,0.115039171,,,,,,,,,,,,,,,,,,,,,,,,,,,,left,1,40,-30,10,1,781.0122077,781.0122077,781.0122077,None,None,2,0,0.9838927,,,,,,,,,,,,,,,,,,,,,,10,17,2,2024-11-10_18h21.04.406,uWM_experiment,2022.2.3,60.00456035
,,,,,,,,,,,,,,,,,,,,1,0,1,0,6,0,6,0,,,,,,,,,,,,,,,,,,,,,,,,,,,,,,,,,,,,,,,,,,,,,,,,,,,,,,,,,,,,,,,,,,,,,,0.105039171,,,,,,,,,,,,,,,,,,,,,,,,,,,,left,1,40,-30,10,1,789.9125926,789.9125926,789.9125926,None,None,3,0,5.7955457,,,,,,,,,,,,,,,,,,,,,,10,17,2,2024-11-10_18h21.04.406,uWM_experiment,2022.2.3,60.00456035
,,,,,,,,,,,,,,,,,,,,1,0,1,0,7,0,7,0,,,,,,,,,,,,,,,,,,,,,,,,,,,,,,,,,,,,,,,,,,,,,,,,,,,,,,,,,,,,,,,,,,,,,,0.095039171,,,,,,,,,,,,,,,,,,,,,,,,,,,,right,0,100,-30,70,1,804.1132358,804.1132358,804.1132358,None,None,3,0,1.0429872,,,,,,,,,,,,,,,,,,,,,,10,17,2,2024-11-10_18h21.04.406,uWM_experiment,2022.2.3,60.00456035
,,,,,,,,,,,,,,,,,,,,1,0,1,0,8,0,8,0,,,,,,,,,,,,,,,,,,,,,,,,,,,,,,,,,,,,,,,,,,,,,,,,,,,,,,,,,,,,,,,,,,,,,,0.085039171,,,,,,,,,,,,,,,,,,,,,,,,,,,,right,1,40,30,70,1,813.0969951,813.0969951,813.0969951,None,None,3,0,29.2672442,,,,,,,,,,,,,,,,,,,,,,10,17,2,2024-11-10_18h21.04.406,uWM_experiment,2022.2.3,60.00456035
,,,,,,,,,,,,,,,,,,,,1,0,1,0,9,0,9,0,,,,,,,,,,,,,,,,,,,,,,,,,,,,,,,,,,,,,,,,,,,,,,,,,,,,,,,,,,,,,,,,,,,,,,0.075039171,,,,,,,,,,,,,,,,,,,,,,,,,,,,left,1,10,-30,-20,1,850.0653372,850.0653372,850.0653372,None,None,1,1,0.538803,,,,,,,,,,,,,,,,,,,,,,10,17,2,2024-11-10_18h21.04.406,uWM_experiment,2022.2.3,60.00456035
,,,,,,,,,,,,,,,,,,,,1,0,1,0,10,0,10,0,,,,,,,,,,,,,,,,,,,,,,,,,,,,,,,,,,,,,,,,,,,,,,,,,,,,,,,,,,,,,,,,,,,,,,0.085039171,,,,,,,,,,,,,,,,,,,,,,,,,,,,left,1,10,-30,-20,1,856.8823048,856.8823048,856.8823048,None,None,1,1,0.2499047,,,,,,,,,,,,,,,,,,,,,,10,17,2,2024-11-10_18h21.04.406,uWM_experiment,2022.2.3,60.00456035
,,,,,,,,,,,,,,,,,,,,1,0,1,0,11,0,11,0,,,,,,,,,,,,,,,,,,,,,,,,,,,,,,,,,,,,,,,,,,,,,,,,,,,,,,,,,,,,,,,,,,,,,,0.095039171,,,,,,,,,,,,,,,,,,,,,,,,,,,,right,1,40,30,70,1,862.8992337,862.8992337,862.8992337,None,None,2,0,2.0009818,,,,,,,,,,,,,,,,,,,,,,10,17,2,2024-11-10_18h21.04.406,uWM_experiment,2022.2.3,60.00456035
,,,,,,,,,,,,,,,,,,,,1,0,1,0,12,0,12,0,,,,,,,,,,,,,,,,,,,,,,,,,,,,,,,,,,,,,,,,,,,,,,,,,,,,,,,,,,,,,,,,,,,,,,0.085039171,,,,,,,,,,,,,,,,,,,,,,,,,,,,left,1,70,-30,40,1,870.1162232,870.1162232,870.1162232,None,None,2,0,0.351994,,,,,,,,,,,,,,,,,,,,,,10,17,2,2024-11-10_18h21.04.406,uWM_experiment,2022.2.3,60.00456035
,,,,,,,,,,,,,,,,,,,,1,0,1,0,13,0,13,0,,,,,,,,,,,,,,,,,,,,,,,,,,,,,,,,,,,,,,,,,,,,,,,,,,,,,,,,,,,,,,,,,,,,,,0.075039171,,,,,,,,,,,,,,,,,,,,,,,,,,,,left,0,160,30,190,1,875.716464,875.716464,875.716464,None,None,2,0,0.1677095,,,,,,,,,,,,,,,,,,,,,,10,17,2,2024-11-10_18h21.04.406,uWM_experiment,2022.2.3,60.00456035
,,,,,,,,,,,,,,,,,,,,1,0,1,0,14,0,14,0,,,,,,,,,,,,,,,,,,,,,,,,,,,,,,,,,,,,,,,,,,,,,,,,,,,,,,,,,,,,,,,,,,,,,,0.065039171,,,,,,,,,,,,,,,,,,,,,,,,,,,,left,1,160,-30,130,1,882.3334392,882.3334392,882.3334392,None,None,2,0,1.4948984,,,,,,,,,,,,,,,,,,,,,,10,17,2,2024-11-10_18h21.04.406,uWM_experiment,2022.2.3,60.00456035
,,,,,,,,,,,,,,,,,,,,1,0,1,0,15,0,15,0,,,,,,,,,,,,,,,,,,,,,,,,,,,,,,,,,,,,,,,,,,,,,,,,,,,,,,,,,,,,,,,,,,,,,,0.055039171,,,,,,,,,,,,,,,,,,,,,,,,,,,,right,0,70,-30,40,1,890.5171538,890.5171538,890.5171538,None,None,2,0,1.5111181,,,,,,,,,,,,,,,,,,,,,,10,17,2,2024-11-10_18h21.04.406,uWM_experiment,2022.2.3,60.00456035
,,,,,,,,,,,,,,,,,,,,1,0,1,0,16,0,16,0,,,,,,,,,,,,,,,,,,,,,,,,,,,,,,,,,,,,,,,,,,,,,,,,,,,,,,,,,,,,,,,,,,,,,,0.045039171,,,,,,,,,,,,,,,,,,,,,,,,,,,,left,0,160,30,190,1,897.1508189,897.1508189,897.1508189,None,None,1,1,0.2774674,,,,,,,,,,,,,,,,,,,,,,10,17,2,2024-11-10_18h21.04.406,uWM_experiment,2022.2.3,60.00456035
,,,,,,,,,,,,,,,,,,,,1,0,1,0,17,0,17,0,,,,,,,,,,,,,,,,,,,,,,,,,,,,,,,,,,,,,,,,,,,,,,,,,,,,,,,,,,,,,,,,,,,,,,0.1,,,,,,,,,,,,,,,,,,,,,,,,,,,,right,1,160,30,190,2,904.2511121,904.2511121,904.2511121,None,None,4,0,0.3612783,,,,,,,,,,,,,,,,,,,,,,10,17,2,2024-11-10_18h21.04.406,uWM_experiment,2022.2.3,60.00456035
,,,,,,,,,,,,,,,,,,,,1,0,1,0,18,0,18,0,,,,,,,,,,,,,,,,,,,,,,,,,,,,,,,,,,,,,,,,,,,,,,,,,,,,,,,,,,,,,,,,,,,,,,0,,,,,,,,,,,,,,,,,,,,,,,,,,,,left,0,100,30,130,0,909.9347112,909.9347112,909.9347112,None,None,1,1,0.6460455,,,,,,,,,,,,,,,,,,,,,,10,17,2,2024-11-10_18h21.04.406,uWM_experiment,2022.2.3,60.00456035
,,,,,,,,,,,,,,,,,,,,1,0,1,0,19,0,19,0,,,,,,,,,,,,,,,,,,,,,,,,,,,,,,,,,,,,,,,,,,,,,,,,,,,,,,,,,,,,,,,,,,,,,,0.055039171,,,,,,,,,,,,,,,,,,,,,,,,,,,,left,1,40,-30,10,1,916.3016598,916.3016598,916.3016598,None,None,1,1,0.3505823,,,,,,,,,,,,,,,,,,,,,,10,17,2,2024-11-10_18h21.04.406,uWM_experiment,2022.2.3,60.00456035
,,,,,,,,,,,,,,,,,,,,1,0,1,0,20,0,20,0,,,,,,,,,,,,,,,,,,,,,,,,,,,,,,,,,,,,,,,,,,,,,,,,,,,,,,,,,,,,,,,,,,,,,,0,,,,,,,,,,,,,,,,,,,,,,,,,,,,left,0,100,30,130,0,921.8685546,921.8685546,921.8685546,None,None,1,1,0.3118338,,,,,,,,,,,,,,,,,,,,,,10,17,2,2024-11-10_18h21.04.406,uWM_experiment,2022.2.3,60.00456035
,,,,,,,,,,,,,,,,,,,,1,0,1,0,21,0,21,0,,,,,,,,,,,,,,,,,,,,,,,,,,,,,,,,,,,,,,,,,,,,,,,,,,,,,,,,,,,,,,,,,,,,,,0,,,,,,,,,,,,,,,,,,,,,,,,,,,,left,0,10,30,40,0,927.7355202,927.7355202,927.7355202,None,None,1,1,0.2768021,,,,,,,,,,,,,,,,,,,,,,10,17,2,2024-11-10_18h21.04.406,uWM_experiment,2022.2.3,60.00456035
,,,,,,,,,,,,,,,,,,,,1,0,1,0,22,0,22,0,,,,,,,,,,,,,,,,,,,,,,,,,,,,,,,,,,,,,,,,,,,,,,,,,,,,,,,,,,,,,,,,,,,,,,0.065039171,,,,,,,,,,,,,,,,,,,,,,,,,,,,left,1,130,-30,100,1,934.9525085,934.9525085,934.9525085,None,None,2,0,0.3878216,,,,,,,,,,,,,,,,,,,,,,10,17,2,2024-11-10_18h21.04.406,uWM_experiment,2022.2.3,60.00456035
,,,,,,,,,,,,,,,,,,,,1,0,1,0,23,0,23,0,,,,,,,,,,,,,,,,,,,,,,,,,,,,,,,,,,,,,,,,,,,,,,,,,,,,,,,,,,,,,,,,,,,,,,0.055039171,,,,,,,,,,,,,,,,,,,,,,,,,,,,left,0,160,30,190,1,942.6861828,942.6861828,942.6861828,None,None,2,0,0.6942216,,,,,,,,,,,,,,,,,,,,,,10,17,2,2024-11-10_18h21.04.406,uWM_experiment,2022.2.3,60.00456035
,,,,,,,,,,,,,,,,,,,,1,0,1,0,,,,,0,0,0,0,,,,,,,,,,,,,,,,,,,,,,,,,,,,,,,,,,,,,,,,,,,,,,,,,,,,,,,,,,,,,,,,,,,,,,,,,,,,,,,,,,,,,,,,,,,,,,,,,,,,,,,,,,,,943.4028541,943.4028541,space,1.5375534,None,None,,,,,,,,,,,,,,,,10,17,2,2024-11-10_18h21.04.406,uWM_experiment,2022.2.3,60.00456035
,,,,,,,,,,,,,,,,,,,,1,0,1,0,,,,,1,0,1,0,,,,,,,,,,,,,,,,,,,,,,,,,,,,,,,,,,,,,,,,,,,,,,,,,,,,,,,,,,,,,,,,,,,,,,,,,,,,,,,,,,,,,,,,,,,,,,,,,,,,,,,,,,,,,,,,,,,,,,,,,,,,,,,,,10,17,2,2024-11-10_18h21.04.406,uWM_experiment,2022.2.3,60.00456035
,,,,,,,,,,,,,,,,,,,,1,0,1,0,,,,,2,0,2,0,,,,,,,,,,,,,,,,,,,,,,,,,,,,,,,,,,,,,,,,,,,,,,,,,,,,,,,,,,,,,,,,,,,,,,,,,,,,,,,,,,,,,,,,,,,,,,,,,,,,,,,,,,,,,,,,,,,,,,,,,,,,,,,,,10,17,2,2024-11-10_18h21.04.406,uWM_experiment,2022.2.3,60.00456035
,,,,,,,,,,,,,,,,,,,,2,0,2,0,0,0,0,0,,,,,,,,,,,,,,,,,,,,,,,,,,,,,,,,,,,,,,,,,,,,,,,,,,,,,,,,,,,,,,,,,,,,,,0.045039171,,,,,,,,,,,,,,,,,,,,944.969648,945.6696321,945.969646,946.6696821,946.9696947,947.6697221,947.6697221,947.9864376,left,0,70,30,100,1,952.2199362,952.2199362,952.2199362,None,None,1,1,0.2243753,,,,,,,None,,,,,,,,,,,,,,,10,17,2,2024-11-10_18h21.04.406,uWM_experiment,2022.2.3,60.00456035
,,,,,,,,,,,,,,,,,,,,2,0,2,0,1,0,1,0,,,,,,,,,,,,,,,,,,,,,,,,,,,,,,,,,,,,,,,,,,,,,,,,,,,,,,,,,,,,,,,,,,,,,,0.055039171,,,,,,,,,,,,,,,,,,,,,,,,,,,,left,0,40,30,70,1,958.5368939,958.5368939,958.5368939,None,None,1,1,0.1954548,,,,,,,,,,,,,,,,,,,,,,10,17,2,2024-11-10_18h21.04.406,uWM_experiment,2022.2.3,60.00456035
,,,,,,,,,,,,,,,,,,,,2,0,2,0,2,0,2,0,,,,,,,,,,,,,,,,,,,,,,,,,,,,,,,,,,,,,,,,,,,,,,,,,,,,,,,,,,,,,,,,,,,,,,0,,,,,,,,,,,,,,,,,,,,,,,,,,,,left,0,70,30,100,0,963.9038183,963.9038183,963.9038183,None,None,1,1,0.2126478,,,,,,,,,,,,,,,,,,,,,,10,17,2,2024-11-10_18h21.04.406,uWM_experiment,2022.2.3,60.00456035
,,,,,,,,,,,,,,,,,,,,2,0,2,0,3,0,3,0,,,,,,,,,,,,,,,,,,,,,,,,,,,,,,,,,,,,,,,,,,,,,,,,,,,,,,,,,,,,,,,,,,,,,,0.065039171,,,,,,,,,,,,,,,,,,,,,,,,,,,,left,0,160,30,190,1,969.4373818,969.4373818,969.4373818,None,None,1,1,0.1910025,,,,,,,,,,,,,,,,,,,,,,10,17,2,2024-11-10_18h21.04.406,uWM_experiment,2022.2.3,60.00456035
,,,,,,,,,,,,,,,,,,,,2,0,2,0,4,0,4,0,,,,,,,,,,,,,,,,,,,,,,,,,,,,,,,,,,,,,,,,,,,,,,,,,,,,,,,,,,,,,,,,,,,,,,0,,,,,,,,,,,,,,,,,,,,,,,,,,,,left,0,40,30,70,0,975.0709771,975.0709771,975.0709771,None,None,1,1,0.3733949,,,,,,,,,,,,,,,,,,,,,,10,17,2,2024-11-10_18h21.04.406,uWM_experiment,2022.2.3,60.00456035
,,,,,,,,,,,,,,,,,,,,2,0,2,0,5,0,5,0,,,,,,,,,,,,,,,,,,,,,,,,,,,,,,,,,,,,,,,,,,,,,,,,,,,,,,,,,,,,,,,,,,,,,,0.075039171,,,,,,,,,,,,,,,,,,,,,,,,,,,,right,1,10,30,40,1,984.0880631,984.0880631,984.0880631,None,None,2,0,0.5164246,,,,,,,,,,,,,,,,,,,,,,10,17,2,2024-11-10_18h21.04.406,uWM_experiment,2022.2.3,60.00456035
,,,,,,,,,,,,,,,,,,,,2,0,2,0,6,0,6,0,,,,,,,,,,,,,,,,,,,,,,,,,,,,,,,,,,,,,,,,,,,,,,,,,,,,,,,,,,,,,,,,,,,,,,0,,,,,,,,,,,,,,,,,,,,,,,,,,,,left,0,160,30,190,0,989.9216425,989.9216425,989.9216425,None,None,1,1,0.2748476,,,,,,,,,,,,,,,,,,,,,,10,17,2,2024-11-10_18h21.04.406,uWM_experiment,2022.2.3,60.00456035
,,,,,,,,,,,,,,,,,,,,2,0,2,0,7,0,7,0,,,,,,,,,,,,,,,,,,,,,,,,,,,,,,,,,,,,,,,,,,,,,,,,,,,,,,,,,,,,,,,,,,,,,,0.065039171,,,,,,,,,,,,,,,,,,,,,,,,,,,,left,0,160,30,190,1,996.2385845,996.2385845,996.2385845,None,None,1,1,0.1577668,,,,,,,,,,,,,,,,,,,,,,10,17,2,2024-11-10_18h21.04.406,uWM_experiment,2022.2.3,60.00456035
,,,,,,,,,,,,,,,,,,,,2,0,2,0,8,0,8,0,,,,,,,,,,,,,,,,,,,,,,,,,,,,,,,,,,,,,,,,,,,,,,,,,,,,,,,,,,,,,,,,,,,,,,0.1,,,,,,,,,,,,,,,,,,,,,,,,,,,,left,1,130,-30,100,2,1003.055597,1003.055597,1003.055597,None,None,3,0,2.7088281,,,,,,,,,,,,,,,,,,,,,,10,17,2,2024-11-10_18h21.04.406,uWM_experiment,2022.2.3,60.00456035
,,,,,,,,,,,,,,,,,,,,2,0,2,0,9,0,9,0,,,,,,,,,,,,,,,,,,,,,,,,,,,,,,,,,,,,,,,,,,,,,,,,,,,,,,,,,,,,,,,,,,,,,,0,,,,,,,,,,,,,,,,,,,,,,,,,,,,left,0,10,30,40,0,1011.489322,1011.489322,1011.489322,None,None,1,1,0.3631939,,,,,,,,,,,,,,,,,,,,,,10,17,2,2024-11-10_18h21.04.406,uWM_experiment,2022.2.3,60.00456035
,,,,,,,,,,,,,,,,,,,,2,0,2,0,10,0,10,0,,,,,,,,,,,,,,,,,,,,,,,,,,,,,,,,,,,,,,,,,,,,,,,,,,,,,,,,,,,,,,,,,,,,,,0,,,,,,,,,,,,,,,,,,,,,,,,,,,,left,1,100,-30,70,0,1017.522896,1017.522896,1017.522896,None,None,1,1,0.2656169,,,,,,,,,,,,,,,,,,,,,,10,17,2,2024-11-10_18h21.04.406,uWM_experiment,2022.2.3,60.00456035
,,,,,,,,,,,,,,,,,,,,2,0,2,0,11,0,11,0,,,,,,,,,,,,,,,,,,,,,,,,,,,,,,,,,,,,,,,,,,,,,,,,,,,,,,,,,,,,,,,,,,,,,,0,,,,,,,,,,,,,,,,,,,,,,,,,,,,left,1,130,-30,100,0,1023.656511,1023.656511,1023.656511,None,None,1,1,0.4119434,,,,,,,,,,,,,,,,,,,,,,10,17,2,2024-11-10_18h21.04.406,uWM_experiment,2022.2.3,60.00456035
,,,,,,,,,,,,,,,,,,,,2,0,2,0,12,0,12,0,,,,,,,,,,,,,,,,,,,,,,,,,,,,,,,,,,,,,,,,,,,,,,,,,,,,,,,,,,,,,,,,,,,,,,0,,,,,,,,,,,,,,,,,,,,,,,,,,,,left,1,100,-30,70,0,1029.25675,1029.25675,1029.25675,None,None,1,1,0.3157108,,,,,,,,,,,,,,,,,,,,,,10,17,2,2024-11-10_18h21.04.406,uWM_experiment,2022.2.3,60.00456035
,,,,,,,,,,,,,,,,,,,,2,0,2,0,13,0,13,0,,,,,,,,,,,,,,,,,,,,,,,,,,,,,,,,,,,,,,,,,,,,,,,,,,,,,,,,,,,,,,,,,,,,,,0.075039171,,,,,,,,,,,,,,,,,,,,,,,,,,,,left,0,100,30,130,1,1035.223706,1035.223706,1035.223706,None,None,1,1,0.3887223,,,,,,,,,,,,,,,,,,,,,,10,17,2,2024-11-10_18h21.04.406,uWM_experiment,2022.2.3,60.00456035
,,,,,,,,,,,,,,,,,,,,2,0,2,0,14,0,14,0,,,,,,,,,,,,,,,,,,,,,,,,,,,,,,,,,,,,,,,,,,,,,,,,,,,,,,,,,,,,,,,,,,,,,,0.085039171,,,,,,,,,,,,,,,,,,,,,,,,,,,,left,1,70,-30,40,1,1041.390649,1041.390649,1041.390649,None,None,1,1,0.2857884,,,,,,,,,,,,,,,,,,,,,,10,17,2,2024-11-10_18h21.04.406,uWM_experiment,2022.2.3,60.00456035
,,,,,,,,,,,,,,,,,,,,2,0,2,0,15,0,15,0,,,,,,,,,,,,,,,,,,,,,,,,,,,,,,,,,,,,,,,,,,,,,,,,,,,,,,,,,,,,,,,,,,,,,,0,,,,,,,,,,,,,,,,,,,,,,,,,,,,left,1,10,-30,-20,0,1047.674279,1047.674279,1047.674279,None,None,1,1,0.4662728,,,,,,,,,,,,,,,,,,,,,,10,17,2,2024-11-10_18h21.04.406,uWM_experiment,2022.2.3,60.00456035
,,,,,,,,,,,,,,,,,,,,2,0,2,0,16,0,16,0,,,,,,,,,,,,,,,,,,,,,,,,,,,,,,,,,,,,,,,,,,,,,,,,,,,,,,,,,,,,,,,,,,,,,,0.095039171,,,,,,,,,,,,,,,,,,,,,,,,,,,,right,0,100,-30,70,1,1055.34127,1055.34127,1055.34127,None,None,3,0,7.1752488,,,,,,,,,,,,,,,,,,,,,,10,17,2,2024-11-10_18h21.04.406,uWM_experiment,2022.2.3,60.00456035
,,,,,,,,,,,,,,,,,,,,2,0,2,0,17,0,17,0,,,,,,,,,,,,,,,,,,,,,,,,,,,,,,,,,,,,,,,,,,,,,,,,,,,,,,,,,,,,,,,,,,,,,,0,,,,,,,,,,,,,,,,,,,,,,,,,,,,left,0,10,30,40,0,1067.908525,1067.908525,1067.908525,None,None,1,1,0.1360365,,,,,,,,,,,,,,,,,,,,,,10,17,2,2024-11-10_18h21.04.406,uWM_experiment,2022.2.3,60.00456035
,,,,,,,,,,,,,,,,,,,,2,0,2,0,18,0,18,0,,,,,,,,,,,,,,,,,,,,,,,,,,,,,,,,,,,,,,,,,,,,,,,,,,,,,,,,,,,,,,,,,,,,,,0.085039171,,,,,,,,,,,,,,,,,,,,,,,,,,,,left,1,160,-30,130,1,1075.725536,1075.725536,1075.725536,None,None,2,0,0.7749911,,,,,,,,,,,,,,,,,,,,,,10,17,2,2024-11-10_18h21.04.406,uWM_experiment,2022.2.3,60.00456035
,,,,,,,,,,,,,,,,,,,,2,0,2,0,19,0,19,0,,,,,,,,,,,,,,,,,,,,,,,,,,,,,,,,,,,,,,,,,,,,,,,,,,,,,,,,,,,,,,,,,,,,,,0.075039171,,,,,,,,,,,,,,,,,,,,,,,,,,,,left,0,10,30,40,1,1082.992496,1082.992496,1082.992496,None,None,2,0,0.3719733,,,,,,,,,,,,,,,,,,,,,,10,17,2,2024-11-10_18h21.04.406,uWM_experiment,2022.2.3,60.00456035
,,,,,,,,,,,,,,,,,,,,2,0,2,0,20,0,20,0,,,,,,,,,,,,,,,,,,,,,,,,,,,,,,,,,,,,,,,,,,,,,,,,,,,,,,,,,,,,,,,,,,,,,,0.065039171,,,,,,,,,,,,,,,,,,,,,,,,,,,,left,1,40,-30,10,1,1092.292963,1092.292963,1092.292963,None,None,2,0,0.1835833,,,,,,,,,,,,,,,,,,,,,,10,17,2,2024-11-10_18h21.04.406,uWM_experiment,2022.2.3,60.00456035
,,,,,,,,,,,,,,,,,,,,2,0,2,0,21,0,21,0,,,,,,,,,,,,,,,,,,,,,,,,,,,,,,,,,,,,,,,,,,,,,,,,,,,,,,,,,,,,,,,,,,,,,,0,,,,,,,,,,,,,,,,,,,,,,,,,,,,left,0,10,30,40,0,1097.793191,1097.793191,1097.793191,None,None,1,1,0.1633073,,,,,,,,,,,,,,,,,,,,,,10,17,2,2024-11-10_18h21.04.406,uWM_experiment,2022.2.3,60.00456035
,,,,,,,,,,,,,,,,,,,,2,0,2,0,22,0,22,0,,,,,,,,,,,,,,,,,,,,,,,,,,,,,,,,,,,,,,,,,,,,,,,,,,,,,,,,,,,,,,,,,,,,,,0.055039171,,,,,,,,,,,,,,,,,,,,,,,,,,,,left,1,70,-30,40,1,1103.726803,1103.726803,1103.726803,None,None,1,1,0.4536909,,,,,,,,,,,,,,,,,,,,,,10,17,2,2024-11-10_18h21.04.406,uWM_experiment,2022.2.3,60.00456035
,,,,,,,,,,,,,,,,,,,,2,0,2,0,23,0,23,0,,,,,,,,,,,,,,,,,,,,,,,,,,,,,,,,,,,,,,,,,,,,,,,,,,,,,,,,,,,,,,,,,,,,,,0.065039171,,,,,,,,,,,,,,,,,,,,,,,,,,,,left,1,10,-30,-20,1,1110.310438,1110.310438,1110.310438,None,None,1,1,0.4461255,,,,,,,,,,,,,,,,,,,,,,10,17,2,2024-11-10_18h21.04.406,uWM_experiment,2022.2.3,60.00456035
,,,,,,,,,,,,,,,,,,,,2,0,2,0,,,,,0,0,0,0,,,,,,,,,,,,,,,,,,,,,,,,,,,,,,,,,,,,,,,,,,,,,,,,,,,,,,,,,,,,,,,,,,,,,,,,,,,,,,,,,,,,,,,,,,,,,,,,,,,,,,,,,,,,1110.777083,1110.777083,space,14.21149,space,None,,1125.01108,1125.01108,14.7215076,,,,,,,,,,,,10,17,2,2024-11-10_18h21.04.406,uWM_experiment,2022.2.3,60.00456035
,,,,,,,,,,,,,,,,,,,,2,0,2,0,,,,,1,0,1,0,,,,,,,,,,,,,,,,,,,,,,,,,,,,,,,,,,,,,,,,,,,,,,,,,,,,,,,,,,,,,,,,,,,,,,,,,,,,,,,,,,,,,,,,,,,,,,,,,,,,,,,,,,,,,,,,,,,,,,,,,,,,,,,,,10,17,2,2024-11-10_18h21.04.406,uWM_experiment,2022.2.3,60.00456035
,,,,,,,,,,,,,,,,,,,,2,0,2,0,,,,,2,0,2,0,,,,,,,,,,,,,,,,,,,,,,,,,,,,,,,,,,,,,,,,,,,,,,,,,,,,,,,,,,,,,,,,,,,,,,,,,,,,,,,,,,,,,,,,,,,,,,,,,,,,,,,,,,,,,,,,,,,,,,,,,,,,,,,,,10,17,2,2024-11-10_18h21.04.406,uWM_experiment,2022.2.3,60.00456035
,,,,,,,,,,,,,,,,,,,,3,0,3,0,0,0,0,0,,,,,,,,,,,,,,,,,,,,,,,,,,,,,,,,,,,,,,,,,,,,,,,,,,,,,,,,,,,,,,,,,,,,,,0.075039171,,,,,,,,,,,,,,,,,,,,1139.761747,1140.461776,1140.761811,1141.461838,1141.761826,1142.461868,1142.461868,1142.778548,left,0,130,30,160,1,1148.428814,1148.428814,1148.428814,None,None,2,0,1.111778,,,,,,,None,,,,,,,,,,,,,,,10,17,2,2024-11-10_18h21.04.406,uWM_experiment,2022.2.3,60.00456035
,,,,,,,,,,,,,,,,,,,,3,0,3,0,1,0,1,0,,,,,,,,,,,,,,,,,,,,,,,,,,,,,,,,,,,,,,,,,,,,,,,,,,,,,,,,,,,,,,,,,,,,,,0.065039171,,,,,,,,,,,,,,,,,,,,,,,,,,,,right,1,10,30,40,1,1156.779206,1156.779206,1156.779206,None,None,2,0,6.2334468,,,,,,,,,,,,,,,,,,,,,,10,17,2,2024-11-10_18h21.04.406,uWM_experiment,2022.2.3,60.00456035
,,,,,,,,,,,,,,,,,,,,3,0,3,0,2,0,2,0,,,,,,,,,,,,,,,,,,,,,,,,,,,,,,,,,,,,,,,,,,,,,,,,,,,,,,,,,,,,,,,,,,,,,,0,,,,,,,,,,,,,,,,,,,,,,,,,,,,left,1,70,-30,40,0,1168.213089,1168.213089,1168.213089,None,None,1,1,0.2636196,,,,,,,,,,,,,,,,,,,,,,10,17,2,2024-11-10_18h21.04.406,uWM_experiment,2022.2.3,60.00456035
,,,,,,,,,,,,,,,,,,,,3,0,3,0,3,0,3,0,,,,,,,,,,,,,,,,,,,,,,,,,,,,,,,,,,,,,,,,,,,,,,,,,,,,,,,,,,,,,,,,,,,,,,0.055039171,,,,,,,,,,,,,,,,,,,,,,,,,,,,left,0,40,30,70,1,1173.879965,1173.879965,1173.879965,None,None,2,0,0.3647743,,,,,,,,,,,,,,,,,,,,,,10,17,2,2024-11-10_18h21.04.406,uWM_experiment,2022.2.3,60.00456035
,,,,,,,,,,,,,,,,,,,,3,0,3,0,4,0,4,0,,,,,,,,,,,,,,,,,,,,,,,,,,,,,,,,,,,,,,,,,,,,,,,,,,,,,,,,,,,,,,,,,,,,,,0,,,,,,,,,,,,,,,,,,,,,,,,,,,,left,1,40,-30,10,0,1179.480228,1179.480228,1179.480228,None,None,1,1,0.2044131,,,,,,,,,,,,,,,,,,,,,,10,17,2,2024-11-10_18h21.04.406,uWM_experiment,2022.2.3,60.00456035
,,,,,,,,,,,,,,,,,,,,3,0,3,0,5,0,5,0,,,,,,,,,,,,,,,,,,,,,,,,,,,,,,,,,,,,,,,,,,,,,,,,,,,,,,,,,,,,,,,,,,,,,,0.045039171,,,,,,,,,,,,,,,,,,,,,,,,,,,,left,1,70,-30,40,1,1187.580611,1187.580611,1187.580611,None,None,1,1,0.3840357,,,,,,,,,,,,,,,,,,,,,,10,17,2,2024-11-10_18h21.04.406,uWM_experiment,2022.2.3,60.00456035
,,,,,,,,,,,,,,,,,,,,3,0,3,0,6,0,6,0,,,,,,,,,,,,,,,,,,,,,,,,,,,,,,,,,,,,,,,,,,,,,,,,,,,,,,,,,,,,,,,,,,,,,,0.055039171,,,,,,,,,,,,,,,,,,,,,,,,,,,,left,1,70,-30,40,1,1194.130882,1194.130882,1194.130882,None,None,1,1,0.6099097,,,,,,,,,,,,,,,,,,,,,,10,17,2,2024-11-10_18h21.04.406,uWM_experiment,2022.2.3,60.00456035
,,,,,,,,,,,,,,,,,,,,3,0,3,0,7,0,7,0,,,,,,,,,,,,,,,,,,,,,,,,,,,,,,,,,,,,,,,,,,,,,,,,,,,,,,,,,,,,,,,,,,,,,,0,,,,,,,,,,,,,,,,,,,,,,,,,,,,left,0,40,30,70,0,1200.581185,1200.581185,1200.581185,None,None,1,1,0.5194234,,,,,,,,,,,,,,,,,,,,,,10,17,2,2024-11-10_18h21.04.406,uWM_experiment,2022.2.3,60.00456035
,,,,,,,,,,,,,,,,,,,,3,0,3,0,8,0,8,0,,,,,,,,,,,,,,,,,,,,,,,,,,,,,,,,,,,,,,,,,,,,,,,,,,,,,,,,,,,,,,,,,,,,,,0.065039171,,,,,,,,,,,,,,,,,,,,,,,,,,,,left,0,70,30,100,1,1206.214759,1206.214759,1206.214759,None,None,1,1,0.2058686,,,,,,,,,,,,,,,,,,,,,,10,17,2,2024-11-10_18h21.04.406,uWM_experiment,2022.2.3,60.00456035
,,,,,,,,,,,,,,,,,,,,3,0,3,0,9,0,9,0,,,,,,,,,,,,,,,,,,,,,,,,,,,,,,,,,,,,,,,,,,,,,,,,,,,,,,,,,,,,,,,,,,,,,,0.075039171,,,,,,,,,,,,,,,,,,,,,,,,,,,,left,1,160,-30,130,1,1212.581712,1212.581712,1212.581712,None,None,1,1,0.2309736,,,,,,,,,,,,,,,,,,,,,,10,17,2,2024-11-10_18h21.04.406,uWM_experiment,2022.2.3,60.00456035
,,,,,,,,,,,,,,,,,,,,3,0,3,0,10,0,10,0,,,,,,,,,,,,,,,,,,,,,,,,,,,,,,,,,,,,,,,,,,,,,,,,,,,,,,,,,,,,,,,,,,,,,,0.085039171,,,,,,,,,,,,,,,,,,,,,,,,,,,,right,1,160,30,190,1,1219.998733,1219.998733,1219.998733,None,None,2,0,0.8698943,,,,,,,,,,,,,,,,,,,,,,10,17,2,2024-11-10_18h21.04.406,uWM_experiment,2022.2.3,60.00456035
,,,,,,,,,,,,,,,,,,,,3,0,3,0,11,0,11,0,,,,,,,,,,,,,,,,,,,,,,,,,,,,,,,,,,,,,,,,,,,,,,,,,,,,,,,,,,,,,,,,,,,,,,0,,,,,,,,,,,,,,,,,,,,,,,,,,,,left,1,130,-30,100,0,1226.932382,1226.932382,1226.932382,None,None,1,1,0.2803023,,,,,,,,,,,,,,,,,,,,,,10,17,2,2024-11-10_18h21.04.406,uWM_experiment,2022.2.3,60.00456035
,,,,,,,,,,,,,,,,,,,,3,0,3,0,12,0,12,0,,,,,,,,,,,,,,,,,,,,,,,,,,,,,,,,,,,,,,,,,,,,,,,,,,,,,,,,,,,,,,,,,,,,,,0.075039171,,,,,,,,,,,,,,,,,,,,,,,,,,,,right,1,10,30,40,1,1233.09933,1233.09933,1233.09933,None,None,2,0,1.0494824,,,,,,,,,,,,,,,,,,,,,,10,17,2,2024-11-10_18h21.04.406,uWM_experiment,2022.2.3,60.00456035
,,,,,,,,,,,,,,,,,,,,3,0,3,0,13,0,13,0,,,,,,,,,,,,,,,,,,,,,,,,,,,,,,,,,,,,,,,,,,,,,,,,,,,,,,,,,,,,,,,,,,,,,,0.065039171,,,,,,,,,,,,,,,,,,,,,,,,,,,,left,0,100,30,130,1,1239.532934,1239.532934,1239.532934,None,None,1,1,0.4478548,,,,,,,,,,,,,,,,,,,,,,10,17,2,2024-11-10_18h21.04.406,uWM_experiment,2022.2.3,60.00456035
,,,,,,,,,,,,,,,,,,,,3,0,3,0,14,0,14,0,,,,,,,,,,,,,,,,,,,,,,,,,,,,,,,,,,,,,,,,,,,,,,,,,,,,,,,,,,,,,,,,,,,,,,0,,,,,,,,,,,,,,,,,,,,,,,,,,,,left,1,130,-30,100,0,1245.199876,1245.199876,1245.199876,None,None,1,1,0.7248399,,,,,,,,,,,,,,,,,,,,,,10,17,2,2024-11-10_18h21.04.406,uWM_experiment,2022.2.3,60.00456035
,,,,,,,,,,,,,,,,,,,,3,0,3,0,15,0,15,0,,,,,,,,,,,,,,,,,,,,,,,,,,,,,,,,,,,,,,,,,,,,,,,,,,,,,,,,,,,,,,,,,,,,,,0.075039171,,,,,,,,,,,,,,,,,,,,,,,,,,,,left,1,100,-30,70,1,1251.38346,1251.38346,1251.38346,None,None,1,1,0.3653441,,,,,,,,,,,,,,,,,,,,,,10,17,2,2024-11-10_18h21.04.406,uWM_experiment,2022.2.3,60.00456035
,,,,,,,,,,,,,,,,,,,,3,0,3,0,16,0,16,0,,,,,,,,,,,,,,,,,,,,,,,,,,,,,,,,,,,,,,,,,,,,,,,,,,,,,,,,,,,,,,,,,,,,,,0.085039171,,,,,,,,,,,,,,,,,,,,,,,,,,,,left,1,10,-30,-20,1,1258.58382,1258.58382,1258.58382,None,None,2,0,0.5250178,,,,,,,,,,,,,,,,,,,,,,10,17,2,2024-11-10_18h21.04.406,uWM_experiment,2022.2.3,60.00456035
,,,,,,,,,,,,,,,,,,,,3,0,3,0,17,0,17,0,,,,,,,,,,,,,,,,,,,,,,,,,,,,,,,,,,,,,,,,,,,,,,,,,,,,,,,,,,,,,,,,,,,,,,0.075039171,,,,,,,,,,,,,,,,,,,,,,,,,,,,left,1,130,-30,100,1,1265.467453,1265.467453,1265.467453,None,None,1,1,0.1933894,,,,,,,,,,,,,,,,,,,,,,10,17,2,2024-11-10_18h21.04.406,uWM_experiment,2022.2.3,60.00456035
,,,,,,,,,,,,,,,,,,,,3,0,3,0,18,0,18,0,,,,,,,,,,,,,,,,,,,,,,,,,,,,,,,,,,,,,,,,,,,,,,,,,,,,,,,,,,,,,,,,,,,,,,0.085039171,,,,,,,,,,,,,,,,,,,,,,,,,,,,left,1,130,-30,100,1,1271.767724,1271.767724,1271.767724,None,None,2,0,1.3811379,,,,,,,,,,,,,,,,,,,,,,10,17,2,2024-11-10_18h21.04.406,uWM_experiment,2022.2.3,60.00456035
,,,,,,,,,,,,,,,,,,,,3,0,3,0,19,0,19,0,,,,,,,,,,,,,,,,,,,,,,,,,,,,,,,,,,,,,,,,,,,,,,,,,,,,,,,,,,,,,,,,,,,,,,0.075039171,,,,,,,,,,,,,,,,,,,,,,,,,,,,right,0,40,-30,10,1,1281.034812,1281.034812,1281.034812,None,None,2,0,0.8100919,,,,,,,,,,,,,,,,,,,,,,10,17,2,2024-11-10_18h21.04.406,uWM_experiment,2022.2.3,60.00456035
,,,,,,,,,,,,,,,,,,,,3,0,3,0,20,0,20,0,,,,,,,,,,,,,,,,,,,,,,,,,,,,,,,,,,,,,,,,,,,,,,,,,,,,,,,,,,,,,,,,,,,,,,0.065039171,,,,,,,,,,,,,,,,,,,,,,,,,,,,left,1,100,-30,70,1,1287.285111,1287.285111,1287.285111,None,None,1,1,0.3757408,,,,,,,,,,,,,,,,,,,,,,10,17,2,2024-11-10_18h21.04.406,uWM_experiment,2022.2.3,60.00456035
,,,,,,,,,,,,,,,,,,,,3,0,3,0,21,0,21,0,,,,,,,,,,,,,,,,,,,,,,,,,,,,,,,,,,,,,,,,,,,,,,,,,,,,,,,,,,,,,,,,,,,,,,0.075039171,,,,,,,,,,,,,,,,,,,,,,,,,,,,left,1,130,-30,100,1,1294.435415,1294.435415,1294.435415,None,None,1,1,0.5853489,,,,,,,,,,,,,,,,,,,,,,10,17,2,2024-11-10_18h21.04.406,uWM_experiment,2022.2.3,60.00456035
,,,,,,,,,,,,,,,,,,,,3,0,3,0,22,0,22,0,,,,,,,,,,,,,,,,,,,,,,,,,,,,,,,,,,,,,,,,,,,,,,,,,,,,,,,,,,,,,,,,,,,,,,0.085039171,,,,,,,,,,,,,,,,,,,,,,,,,,,,left,0,10,30,40,1,1302.302434,1302.302434,1302.302434,None,None,1,1,0.8703245,,,,,,,,,,,,,,,,,,,,,,10,17,2,2024-11-10_18h21.04.406,uWM_experiment,2022.2.3,60.00456035
,,,,,,,,,,,,,,,,,,,,3,0,3,0,23,0,23,0,,,,,,,,,,,,,,,,,,,,,,,,,,,,,,,,,,,,,,,,,,,,,,,,,,,,,,,,,,,,,,,,,,,,,,0.095039171,,,,,,,,,,,,,,,,,,,,,,,,,,,,right,0,100,-30,70,1,1311.652887,1311.652887,1311.652887,None,None,2,0,1.4000031,,,,,,,,,,,,,,,,,,,,,,10,17,2,2024-11-10_18h21.04.406,uWM_experiment,2022.2.3,60.00456035
,,,,,,,,,,,,,,,,,,,,3,0,3,0,,,,,0,0,0,0,,,,,,,,,,,,,,,,,,,,,,,,,,,,,,,,,,,,,,,,,,,,,,,,,,,,,,,,,,,,,,,,,,,,,,,,,,,,,,,,,,,,,,,,,,,,,,,,,,,,,,,,,,,,1313.086249,1313.086249,space,30.0146963,None,None,,,,,,,,,,,,,,,,10,17,2,2024-11-10_18h21.04.406,uWM_experiment,2022.2.3,60.00456035
,,,,,,,,,,,,,,,,,,,,3,0,3,0,,,,,1,0,1,0,,,,,,,,,,,,,,,,,,,,,,,,,,,,,,,,,,,,,,,,,,,,,,,,,,,,,,,,,,,,,,,,,,,,,,,,,,,,,,,,,,,,,,,,,,,,,,,,,,,,,,,,,,,,,,,,,,,,,,,,,,,,,,,,,10,17,2,2024-11-10_18h21.04.406,uWM_experiment,2022.2.3,60.00456035
,,,,,,,,,,,,,,,,,,,,3,0,3,0,,,,,2,0,2,0,,,,,,,,,,,,,,,,,,,,,,,,,,,,,,,,,,,,,,,,,,,,,,,,,,,,,,,,,,,,,,,,,,,,,,,,,,,,,,,,,,,,,,,,,,,,,,,,,,,,,,,,,,,,,,,,,,,,,,,,,,,,,,,,,10,17,2,2024-11-10_18h21.04.406,uWM_experiment,2022.2.3,60.00456035
,,,,,,,,,,,,,,,,,,,,4,0,4,0,0,0,0,0,,,,,,,,,,,,,,,,,,,,,,,,,,,,,,,,,,,,,,,,,,,,,,,,,,,,,,,,,,,,,,,,,,,,,,0.085039171,,,,,,,,,,,,,,,,,,,,1343.120963,1343.82098,1344.120993,1344.821002,1345.121037,1345.821064,1345.821064,1346.137763,left,1,70,-30,40,1,1350.937971,1350.937971,1350.937971,None,None,2,0,0.4989557,,,,,,,None,,,,,,,,,,,,,,,10,17,2,2024-11-10_18h21.04.406,uWM_experiment,2022.2.3,60.00456035
,,,,,,,,,,,,,,,,,,,,4,0,4,0,1,0,1,0,,,,,,,,,,,,,,,,,,,,,,,,,,,,,,,,,,,,,,,,,,,,,,,,,,,,,,,,,,,,,,,,,,,,,,0.075039171,,,,,,,,,,,,,,,,,,,,,,,,,,,,left,1,40,-30,10,1,1358.188323,1358.188323,1358.188323,None,None,2,0,0.6966812,,,,,,,,,,,,,,,,,,,,,,10,17,2,2024-11-10_18h21.04.406,uWM_experiment,2022.2.3,60.00456035
,,,,,,,,,,,,,,,,,,,,4,0,4,0,2,0,2,0,,,,,,,,,,,,,,,,,,,,,,,,,,,,,,,,,,,,,,,,,,,,,,,,,,,,,,,,,,,,,,,,,,,,,,0.065039171,,,,,,,,,,,,,,,,,,,,,,,,,,,,left,0,100,30,130,1,1365.071942,1365.071942,1365.071942,None,None,1,1,0.4048837,,,,,,,,,,,,,,,,,,,,,,10,17,2,2024-11-10_18h21.04.406,uWM_experiment,2022.2.3,60.00456035
,,,,,,,,,,,,,,,,,,,,4,0,4,0,3,0,3,0,,,,,,,,,,,,,,,,,,,,,,,,,,,,,,,,,,,,,,,,,,,,,,,,,,,,,,,,,,,,,,,,,,,,,,0.075039171,,,,,,,,,,,,,,,,,,,,,,,,,,,,right,1,40,30,70,1,1371.255573,1371.255573,1371.255573,None,None,2,0,1.5653228,,,,,,,,,,,,,,,,,,,,,,10,17,2,2024-11-10_18h21.04.406,uWM_experiment,2022.2.3,60.00456035
,,,,,,,,,,,,,,,,,,,,4,0,4,0,4,0,4,0,,,,,,,,,,,,,,,,,,,,,,,,,,,,,,,,,,,,,,,,,,,,,,,,,,,,,,,,,,,,,,,,,,,,,,0.065039171,,,,,,,,,,,,,,,,,,,,,,,,,,,,left,0,130,30,160,1,1380.756032,1380.756032,1380.756032,None,None,1,1,0.9609724,,,,,,,,,,,,,,,,,,,,,,10,17,2,2024-11-10_18h21.04.406,uWM_experiment,2022.2.3,60.00456035
,,,,,,,,,,,,,,,,,,,,4,0,4,0,5,0,5,0,,,,,,,,,,,,,,,,,,,,,,,,,,,,,,,,,,,,,,,,,,,,,,,,,,,,,,,,,,,,,,,,,,,,,,0.075039171,,,,,,,,,,,,,,,,,,,,,,,,,,,,left,0,100,30,130,1,1387.83966,1387.83966,1387.83966,None,None,1,1,0.7413566,,,,,,,,,,,,,,,,,,,,,,10,17,2,2024-11-10_18h21.04.406,uWM_experiment,2022.2.3,60.00456035
,,,,,,,,,,,,,,,,,,,,4,0,4,0,6,0,6,0,,,,,,,,,,,,,,,,,,,,,,,,,,,,,,,,,,,,,,,,,,,,,,,,,,,,,,,,,,,,,,,,,,,,,,0.085039171,,,,,,,,,,,,,,,,,,,,,,,,,,,,right,1,160,30,190,1,1394.573292,1394.573292,1394.573292,None,None,2,0,0.375688,,,,,,,,,,,,,,,,,,,,,,10,17,2,2024-11-10_18h21.04.406,uWM_experiment,2022.2.3,60.00456035
,,,,,,,,,,,,,,,,,,,,4,0,4,0,7,0,7,0,,,,,,,,,,,,,,,,,,,,,,,,,,,,,,,,,,,,,,,,,,,,,,,,,,,,,,,,,,,,,,,,,,,,,,0,,,,,,,,,,,,,,,,,,,,,,,,,,,,left,1,160,-30,130,0,1400.790244,1400.790244,1400.790244,None,None,1,1,0.3346257,,,,,,,,,,,,,,,,,,,,,,10,17,2,2024-11-10_18h21.04.406,uWM_experiment,2022.2.3,60.00456035
,,,,,,,,,,,,,,,,,,,,4,0,4,0,8,0,8,0,,,,,,,,,,,,,,,,,,,,,,,,,,,,,,,,,,,,,,,,,,,,,,,,,,,,,,,,,,,,,,,,,,,,,,0.075039171,,,,,,,,,,,,,,,,,,,,,,,,,,,,right,1,40,30,70,1,1406.957194,1406.957194,1406.957194,None,None,2,0,0.7356896,,,,,,,,,,,,,,,,,,,,,,10,17,2,2024-11-10_18h21.04.406,uWM_experiment,2022.2.3,60.00456035
,,,,,,,,,,,,,,,,,,,,4,0,4,0,9,0,9,0,,,,,,,,,,,,,,,,,,,,,,,,,,,,,,,,,,,,,,,,,,,,,,,,,,,,,,,,,,,,,,,,,,,,,,0,,,,,,,,,,,,,,,,,,,,,,,,,,,,left,0,160,30,190,0,1413.207468,1413.207468,1413.207468,None,None,1,1,0.5174404,,,,,,,,,,,,,,,,,,,,,,10,17,2,2024-11-10_18h21.04.406,uWM_experiment,2022.2.3,60.00456035
,,,,,,,,,,,,,,,,,,,,4,0,4,0,10,0,10,0,,,,,,,,,,,,,,,,,,,,,,,,,,,,,,,,,,,,,,,,,,,,,,,,,,,,,,,,,,,,,,,,,,,,,,0.065039171,,,,,,,,,,,,,,,,,,,,,,,,,,,,left,1,130,-30,100,1,1418.924377,1418.924377,1418.924377,None,None,1,1,0.3365535,,,,,,,,,,,,,,,,,,,,,,10,17,2,2024-11-10_18h21.04.406,uWM_experiment,2022.2.3,60.00456035
,,,,,,,,,,,,,,,,,,,,4,0,4,0,11,0,11,0,,,,,,,,,,,,,,,,,,,,,,,,,,,,,,,,,,,,,,,,,,,,,,,,,,,,,,,,,,,,,,,,,,,,,,0.075039171,,,,,,,,,,,,,,,,,,,,,,,,,,,,left,1,160,-30,130,1,1425.424677,1425.424677,1425.424677,None,None,2,0,0.6283503,,,,,,,,,,,,,,,,,,,,,,10,17,2,2024-11-10_18h21.04.406,uWM_experiment,2022.2.3,60.00456035
,,,,,,,,,,,,,,,,,,,,4,0,4,0,12,0,12,0,,,,,,,,,,,,,,,,,,,,,,,,,,,,,,,,,,,,,,,,,,,,,,,,,,,,,,,,,,,,,,,,,,,,,,0,,,,,,,,,,,,,,,,,,,,,,,,,,,,left,0,100,30,130,0,1432.024992,1432.024992,1432.024992,None,None,1,1,0.3879227,,,,,,,,,,,,,,,,,,,,,,10,17,2,2024-11-10_18h21.04.406,uWM_experiment,2022.2.3,60.00456035
,,,,,,,,,,,,,,,,,,,,4,0,4,0,13,0,13,0,,,,,,,,,,,,,,,,,,,,,,,,,,,,,,,,,,,,,,,,,,,,,,,,,,,,,,,,,,,,,,,,,,,,,,0.1,,,,,,,,,,,,,,,,,,,,,,,,,,,,left,1,10,-30,-20,2,1440.075346,1440.075346,1440.075346,None,None,4,0,0.7936634,,,,,,,,,,,,,,,,,,,,,,10,17,2,2024-11-10_18h21.04.406,uWM_experiment,2022.2.3,60.00456035
,,,,,,,,,,,,,,,,,,,,4,0,4,0,14,0,14,0,,,,,,,,,,,,,,,,,,,,,,,,,,,,,,,,,,,,,,,,,,,,,,,,,,,,,,,,,,,,,,,,,,,,,,0.065039171,,,,,,,,,,,,,,,,,,,,,,,,,,,,left,1,130,-30,100,1,1446.008961,1446.008961,1446.008961,None,None,1,1,0.3080525,,,,,,,,,,,,,,,,,,,,,,10,17,2,2024-11-10_18h21.04.406,uWM_experiment,2022.2.3,60.00456035
,,,,,,,,,,,,,,,,,,,,4,0,4,0,15,0,15,0,,,,,,,,,,,,,,,,,,,,,,,,,,,,,,,,,,,,,,,,,,,,,,,,,,,,,,,,,,,,,,,,,,,,,,0,,,,,,,,,,,,,,,,,,,,,,,,,,,,left,1,10,-30,-20,0,1451.742537,1451.742537,1451.742537,None,None,1,1,0.3585609,,,,,,,,,,,,,,,,,,,,,,10,17,2,2024-11-10_18h21.04.406,uWM_experiment,2022.2.3,60.00456035
,,,,,,,,,,,,,,,,,,,,4,0,4,0,16,0,16,0,,,,,,,,,,,,,,,,,,,,,,,,,,,,,,,,,,,,,,,,,,,,,,,,,,,,,,,,,,,,,,,,,,,,,,0.075039171,,,,,,,,,,,,,,,,,,,,,,,,,,,,right,1,160,30,190,1,1459.976239,1459.976239,1459.976239,None,None,2,0,1.7568158,,,,,,,,,,,,,,,,,,,,,,10,17,2,2024-11-10_18h21.04.406,uWM_experiment,2022.2.3,60.00456035
,,,,,,,,,,,,,,,,,,,,4,0,4,0,17,0,17,0,,,,,,,,,,,,,,,,,,,,,,,,,,,,,,,,,,,,,,,,,,,,,,,,,,,,,,,,,,,,,,,,,,,,,,0.065039171,,,,,,,,,,,,,,,,,,,,,,,,,,,,right,1,40,30,70,1,1469.393333,1469.393333,1469.393333,None,None,2,0,1.4437369,,,,,,,,,,,,,,,,,,,,,,10,17,2,2024-11-10_18h21.04.406,uWM_experiment,2022.2.3,60.00456035
,,,,,,,,,,,,,,,,,,,,4,0,4,0,18,0,18,0,,,,,,,,,,,,,,,,,,,,,,,,,,,,,,,,,,,,,,,,,,,,,,,,,,,,,,,,,,,,,,,,,,,,,,0.055039171,,,,,,,,,,,,,,,,,,,,,,,,,,,,left,0,100,30,130,1,1476.226984,1476.226984,1476.226984,None,None,1,1,0.417983,,,,,,,,,,,,,,,,,,,,,,10,17,2,2024-11-10_18h21.04.406,uWM_experiment,2022.2.3,60.00456035
,,,,,,,,,,,,,,,,,,,,4,0,4,0,19,0,19,0,,,,,,,,,,,,,,,,,,,,,,,,,,,,,,,,,,,,,,,,,,,,,,,,,,,,,,,,,,,,,,,,,,,,,,0.065039171,,,,,,,,,,,,,,,,,,,,,,,,,,,,left,1,70,-30,40,1,1483.34397,1483.34397,1483.34397,None,None,3,0,1.4530411,,,,,,,,,,,,,,,,,,,,,,10,17,2,2024-11-10_18h21.04.406,uWM_experiment,2022.2.3,60.00456035
,,,,,,,,,,,,,,,,,,,,4,0,4,0,20,0,20,0,,,,,,,,,,,,,,,,,,,,,,,,,,,,,,,,,,,,,,,,,,,,,,,,,,,,,,,,,,,,,,,,,,,,,,0,,,,,,,,,,,,,,,,,,,,,,,,,,,,left,0,40,30,70,0,1490.610968,1490.610968,1490.610968,None,None,1,1,0.3860397,,,,,,,,,,,,,,,,,,,,,,10,17,2,2024-11-10_18h21.04.406,uWM_experiment,2022.2.3,60.00456035
,,,,,,,,,,,,,,,,,,,,4,0,4,0,21,0,21,0,,,,,,,,,,,,,,,,,,,,,,,,,,,,,,,,,,,,,,,,,,,,,,,,,,,,,,,,,,,,,,,,,,,,,,0.055039171,,,,,,,,,,,,,,,,,,,,,,,,,,,,left,0,130,30,160,1,1496.94459,1496.94459,1496.94459,None,None,1,1,0.3164873,,,,,,,,,,,,,,,,,,,,,,10,17,2,2024-11-10_18h21.04.406,uWM_experiment,2022.2.3,60.00456035
,,,,,,,,,,,,,,,,,,,,4,0,4,0,22,0,22,0,,,,,,,,,,,,,,,,,,,,,,,,,,,,,,,,,,,,,,,,,,,,,,,,,,,,,,,,,,,,,,,,,,,,,,0.065039171,,,,,,,,,,,,,,,,,,,,,,,,,,,,left,0,70,30,100,1,1504.678259,1504.678259,1504.678259,None,None,2,0,0.4949191,,,,,,,,,,,,,,,,,,,,,,10,17,2,2024-11-10_18h21.04.406,uWM_experiment,2022.2.3,60.00456035
,,,,,,,,,,,,,,,,,,,,4,0,4,0,23,0,23,0,,,,,,,,,,,,,,,,,,,,,,,,,,,,,,,,,,,,,,,,,,,,,,,,,,,,,,,,,,,,,,,,,,,,,,0.055039171,,,,,,,,,,,,,,,,,,,,,,,,,,,,left,1,70,-30,40,1,1510.478541,1510.478541,1510.478541,None,None,1,1,0.3185021,,,,,,,,,,,,,,,,,,,,,,10,17,2,2024-11-10_18h21.04.406,uWM_experiment,2022.2.3,60.00456035
,,,,,,,,,,,,,,,,,,,,4,0,4,0,,,,,0,0,0,0,,,,,,,,,,,,,,,,,,,,,,,,,,,,,,,,,,,,,,,,,,,,,,,,,,,,,,,,,,,,,,,,,,,,,,,,,,,,,,,,,,,,,,,,,,,,,,,,,,,,,,,,,,,,1510.828521,1510.828521,space,70.8167407,None,None,,,,,,,,,,,,,,,,10,17,2,2024-11-10_18h21.04.406,uWM_experiment,2022.2.3,60.00456035
,,,,,,,,,,,,,,,,,,,,4,0,4,0,,,,,1,0,1,0,,,,,,,,,,,,,,,,,,,,,,,,,,,,,,,,,,,,,,,,,,,,,,,,,,,,,,,,,,,,,,,,,,,,,,,,,,,,,,,,,,,,,,,,,,,,,,,,,,,,,,,,,,,,,,,,,,,,,,,,,,,,,,,,,10,17,2,2024-11-10_18h21.04.406,uWM_experiment,2022.2.3,60.00456035
,,,,,,,,,,,,,,,,,,,,4,0,4,0,,,,,2,0,2,0,,,,,,,,,,,,,,,,,,,,,,,,,,,,,,,,,,,,,,,,,,,,,,,,,,,,,,,,,,,,,,,,,,,,,,,,,,,,,,,,,,,,,,,,,,,,,,,,,,,,,,,,,,,,,,,,,,,,,,,,,,,,,,,,,10,17,2,2024-11-10_18h21.04.406,uWM_experiment,2022.2.3,60.00456035
,,,,,,,,,,,,,,,,,,,,5,0,5,0,0,0,0,0,,,,,,,,,,,,,,,,,,,,,,,,,,,,,,,,,,,,,,,,,,,,,,,,,,,,,,,,,,,,,,,,,,,,,,0.065039171,,,,,,,,,,,,,,,,,,,,1581.665068,1582.365098,1582.665108,1583.365144,1583.665156,1584.365191,1584.365191,1584.681896,left,0,160,30,190,1,1589.498772,1589.498772,1589.498772,None,None,1,1,0.2984817,,,,,,,None,,,,,,,,,,,,,,,10,17,2,2024-11-10_18h21.04.406,uWM_experiment,2022.2.3,60.00456035
,,,,,,,,,,,,,,,,,,,,5,0,5,0,1,0,1,0,,,,,,,,,,,,,,,,,,,,,,,,,,,,,,,,,,,,,,,,,,,,,,,,,,,,,,,,,,,,,,,,,,,,,,0.075039171,,,,,,,,,,,,,,,,,,,,,,,,,,,,left,0,70,30,100,1,1594.915697,1594.915697,1594.915697,None,None,1,1,0.2574971,,,,,,,,,,,,,,,,,,,,,,10,17,2,2024-11-10_18h21.04.406,uWM_experiment,2022.2.3,60.00456035
,,,,,,,,,,,,,,,,,,,,5,0,5,0,2,0,2,0,,,,,,,,,,,,,,,,,,,,,,,,,,,,,,,,,,,,,,,,,,,,,,,,,,,,,,,,,,,,,,,,,,,,,,0.085039171,,,,,,,,,,,,,,,,,,,,,,,,,,,,left,1,70,-30,40,1,1602.249346,1602.249346,1602.249346,None,None,3,0,0.9958519,,,,,,,,,,,,,,,,,,,,,,10,17,2,2024-11-10_18h21.04.406,uWM_experiment,2022.2.3,60.00456035
,,,,,,,,,,,,,,,,,,,,5,0,5,0,3,0,3,0,,,,,,,,,,,,,,,,,,,,,,,,,,,,,,,,,,,,,,,,,,,,,,,,,,,,,,,,,,,,,,,,,,,,,,0.075039171,,,,,,,,,,,,,,,,,,,,,,,,,,,,left,0,100,30,130,1,1608.466302,1608.466302,1608.466302,None,None,1,1,0.2429422,,,,,,,,,,,,,,,,,,,,,,10,17,2,2024-11-10_18h21.04.406,uWM_experiment,2022.2.3,60.00456035
,,,,,,,,,,,,,,,,,,,,5,0,5,0,4,0,4,0,,,,,,,,,,,,,,,,,,,,,,,,,,,,,,,,,,,,,,,,,,,,,,,,,,,,,,,,,,,,,,,,,,,,,,0.085039171,,,,,,,,,,,,,,,,,,,,,,,,,,,,left,1,130,-30,100,1,1614.783239,1614.783239,1614.783239,None,None,2,0,0.366072,,,,,,,,,,,,,,,,,,,,,,10,17,2,2024-11-10_18h21.04.406,uWM_experiment,2022.2.3,60.00456035
,,,,,,,,,,,,,,,,,,,,5,0,5,0,5,0,5,0,,,,,,,,,,,,,,,,,,,,,,,,,,,,,,,,,,,,,,,,,,,,,,,,,,,,,,,,,,,,,,,,,,,,,,0.075039171,,,,,,,,,,,,,,,,,,,,,,,,,,,,left,1,130,-30,100,1,1620.583492,1620.583492,1620.583492,None,None,1,1,0.3658282,,,,,,,,,,,,,,,,,,,,,,10,17,2,2024-11-10_18h21.04.406,uWM_experiment,2022.2.3,60.00456035
,,,,,,,,,,,,,,,,,,,,5,0,5,0,6,0,6,0,,,,,,,,,,,,,,,,,,,,,,,,,,,,,,,,,,,,,,,,,,,,,,,,,,,,,,,,,,,,,,,,,,,,,,0.085039171,,,,,,,,,,,,,,,,,,,,,,,,,,,,left,0,100,30,130,1,1626.400434,1626.400434,1626.400434,None,None,1,1,0.3329025,,,,,,,,,,,,,,,,,,,,,,10,17,2,2024-11-10_18h21.04.406,uWM_experiment,2022.2.3,60.00456035
,,,,,,,,,,,,,,,,,,,,5,0,5,0,7,0,7,0,,,,,,,,,,,,,,,,,,,,,,,,,,,,,,,,,,,,,,,,,,,,,,,,,,,,,,,,,,,,,,,,,,,,,,0.095039171,,,,,,,,,,,,,,,,,,,,,,,,,,,,left,0,70,30,100,1,1634.184128,1634.184128,1634.184128,None,None,2,0,8.9491507,,,,,,,,,,,,,,,,,,,,,,10,17,2,2024-11-10_18h21.04.406,uWM_experiment,2022.2.3,60.00456035
,,,,,,,,,,,,,,,,,,,,5,0,5,0,8,0,8,0,,,,,,,,,,,,,,,,,,,,,,,,,,,,,,,,,,,,,,,,,,,,,,,,,,,,,,,,,,,,,,,,,,,,,,0.085039171,,,,,,,,,,,,,,,,,,,,,,,,,,,,right,1,10,30,40,1,1649.784841,1649.784841,1649.784841,None,None,2,0,1.2125238,,,,,,,,,,,,,,,,,,,,,,10,17,2,2024-11-10_18h21.04.406,uWM_experiment,2022.2.3,60.00456035
,,,,,,,,,,,,,,,,,,,,5,0,5,0,9,0,9,0,,,,,,,,,,,,,,,,,,,,,,,,,,,,,,,,,,,,,,,,,,,,,,,,,,,,,,,,,,,,,,,,,,,,,,0.075039171,,,,,,,,,,,,,,,,,,,,,,,,,,,,left,0,40,30,70,1,1657.218486,1657.218486,1657.218486,None,None,1,1,0.2348184,,,,,,,,,,,,,,,,,,,,,,10,17,2,2024-11-10_18h21.04.406,uWM_experiment,2022.2.3,60.00456035
,,,,,,,,,,,,,,,,,,,,5,0,5,0,10,0,10,0,,,,,,,,,,,,,,,,,,,,,,,,,,,,,,,,,,,,,,,,,,,,,,,,,,,,,,,,,,,,,,,,,,,,,,0.085039171,,,,,,,,,,,,,,,,,,,,,,,,,,,,left,1,130,-30,100,1,1667.685648,1667.685648,1667.685648,None,None,2,0,0.8957032,,,,,,,,,,,,,,,,,,,,,,10,17,2,2024-11-10_18h21.04.406,uWM_experiment,2022.2.3,60.00456035
,,,,,,,,,,,,,,,,,,,,5,0,5,0,11,0,11,0,,,,,,,,,,,,,,,,,,,,,,,,,,,,,,,,,,,,,,,,,,,,,,,,,,,,,,,,,,,,,,,,,,,,,,0.075039171,,,,,,,,,,,,,,,,,,,,,,,,,,,,right,1,10,30,40,1,1674.602601,1674.602601,1674.602601,None,None,3,0,0.6506509,,,,,,,,,,,,,,,,,,,,,,10,17,2,2024-11-10_18h21.04.406,uWM_experiment,2022.2.3,60.00456035
,,,,,,,,,,,,,,,,,,,,5,0,5,0,12,0,12,0,,,,,,,,,,,,,,,,,,,,,,,,,,,,,,,,,,,,,,,,,,,,,,,,,,,,,,,,,,,,,,,,,,,,,,0.065039171,,,,,,,,,,,,,,,,,,,,,,,,,,,,left,0,10,30,40,1,1681.369597,1681.369597,1681.369597,None,None,1,1,0.4196374,,,,,,,,,,,,,,,,,,,,,,10,17,2,2024-11-10_18h21.04.406,uWM_experiment,2022.2.3,60.00456035
,,,,,,,,,,,,,,,,,,,,5,0,5,0,13,0,13,0,,,,,,,,,,,,,,,,,,,,,,,,,,,,,,,,,,,,,,,,,,,,,,,,,,,,,,,,,,,,,,,,,,,,,,0,,,,,,,,,,,,,,,,,,,,,,,,,,,,left,0,40,30,70,0,1687.536542,1687.536542,1687.536542,None,None,1,1,0.2288824,,,,,,,,,,,,,,,,,,,,,,10,17,2,2024-11-10_18h21.04.406,uWM_experiment,2022.2.3,60.00456035
,,,,,,,,,,,,,,,,,,,,5,0,5,0,14,0,14,0,,,,,,,,,,,,,,,,,,,,,,,,,,,,,,,,,,,,,,,,,,,,,,,,,,,,,,,,,,,,,,,,,,,,,,0.075039171,,,,,,,,,,,,,,,,,,,,,,,,,,,,right,1,40,30,70,1,1694.736861,1694.736861,1694.736861,None,None,2,0,1.2524125,,,,,,,,,,,,,,,,,,,,,,10,17,2,2024-11-10_18h21.04.406,uWM_experiment,2022.2.3,60.00456035
,,,,,,,,,,,,,,,,,,,,5,0,5,0,15,0,15,0,,,,,,,,,,,,,,,,,,,,,,,,,,,,,,,,,,,,,,,,,,,,,,,,,,,,,,,,,,,,,,,,,,,,,,0.065039171,,,,,,,,,,,,,,,,,,,,,,,,,,,,left,1,40,-30,10,1,1702.053841,1702.053841,1702.053841,None,None,2,0,0.5915619,,,,,,,,,,,,,,,,,,,,,,10,17,2,2024-11-10_18h21.04.406,uWM_experiment,2022.2.3,60.00456035
,,,,,,,,,,,,,,,,,,,,5,0,5,0,16,0,16,0,,,,,,,,,,,,,,,,,,,,,,,,,,,,,,,,,,,,,,,,,,,,,,,,,,,,,,,,,,,,,,,,,,,,,,0,,,,,,,,,,,,,,,,,,,,,,,,,,,,left,1,160,-30,130,0,1707.854091,1707.854091,1707.854091,None,None,1,1,0.2871908,,,,,,,,,,,,,,,,,,,,,,10,17,2,2024-11-10_18h21.04.406,uWM_experiment,2022.2.3,60.00456035
,,,,,,,,,,,,,,,,,,,,5,0,5,0,17,0,17,0,,,,,,,,,,,,,,,,,,,,,,,,,,,,,,,,,,,,,,,,,,,,,,,,,,,,,,,,,,,,,,,,,,,,,,0.055039171,,,,,,,,,,,,,,,,,,,,,,,,,,,,left,0,160,30,190,1,1713.68771,1713.68771,1713.68771,None,None,1,1,0.9335991,,,,,,,,,,,,,,,,,,,,,,10,17,2,2024-11-10_18h21.04.406,uWM_experiment,2022.2.3,60.00456035
,,,,,,,,,,,,,,,,,,,,5,0,5,0,18,0,18,0,,,,,,,,,,,,,,,,,,,,,,,,,,,,,,,,,,,,,,,,,,,,,,,,,,,,,,,,,,,,,,,,,,,,,,0.065039171,,,,,,,,,,,,,,,,,,,,,,,,,,,,right,1,10,30,40,1,1721.838072,1721.838072,1721.838072,None,None,2,0,0.7113235,,,,,,,,,,,,,,,,,,,,,,10,17,2,2024-11-10_18h21.04.406,uWM_experiment,2022.2.3,60.00456035
,,,,,,,,,,,,,,,,,,,,5,0,5,0,19,0,19,0,,,,,,,,,,,,,,,,,,,,,,,,,,,,,,,,,,,,,,,,,,,,,,,,,,,,,,,,,,,,,,,,,,,,,,0.055039171,,,,,,,,,,,,,,,,,,,,,,,,,,,,left,0,70,30,100,1,1728.671711,1728.671711,1728.671711,None,None,1,1,0.6617763,,,,,,,,,,,,,,,,,,,,,,10,17,2,2024-11-10_18h21.04.406,uWM_experiment,2022.2.3,60.00456035
,,,,,,,,,,,,,,,,,,,,5,0,5,0,20,0,20,0,,,,,,,,,,,,,,,,,,,,,,,,,,,,,,,,,,,,,,,,,,,,,,,,,,,,,,,,,,,,,,,,,,,,,,0.065039171,,,,,,,,,,,,,,,,,,,,,,,,,,,,left,0,100,30,130,1,1734.805329,1734.805329,1734.805329,None,None,1,1,0.4321352,,,,,,,,,,,,,,,,,,,,,,10,17,2,2024-11-10_18h21.04.406,uWM_experiment,2022.2.3,60.00456035
,,,,,,,,,,,,,,,,,,,,5,0,5,0,21,0,21,0,,,,,,,,,,,,,,,,,,,,,,,,,,,,,,,,,,,,,,,,,,,,,,,,,,,,,,,,,,,,,,,,,,,,,,0,,,,,,,,,,,,,,,,,,,,,,,,,,,,left,1,130,-30,100,0,1740.672259,1740.672259,1740.672259,None,None,1,1,0.3251808,,,,,,,,,,,,,,,,,,,,,,10,17,2,2024-11-10_18h21.04.406,uWM_experiment,2022.2.3,60.00456035
,,,,,,,,,,,,,,,,,,,,5,0,5,0,22,0,22,0,,,,,,,,,,,,,,,,,,,,,,,,,,,,,,,,,,,,,,,,,,,,,,,,,,,,,,,,,,,,,,,,,,,,,,0,,,,,,,,,,,,,,,,,,,,,,,,,,,,left,1,100,-30,70,0,1746.372521,1746.372521,1746.372521,None,None,1,1,0.3208215,,,,,,,,,,,,,,,,,,,,,,10,17,2,2024-11-10_18h21.04.406,uWM_experiment,2022.2.3,60.00456035
,,,,,,,,,,,,,,,,,,,,5,0,5,0,23,0,23,0,,,,,,,,,,,,,,,,,,,,,,,,,,,,,,,,,,,,,,,,,,,,,,,,,,,,,,,,,,,,,,,,,,,,,,0.075039171,,,,,,,,,,,,,,,,,,,,,,,,,,,,left,1,130,-30,100,1,1752.822842,1752.822842,1752.822842,None,None,2,0,0.8226548,,,,,,,,,,,,,,,,,,,,,,10,17,2,2024-11-10_18h21.04.406,uWM_experiment,2022.2.3,60.00456035
,,,,,,,,,,,,,,,,,,,,5,0,5,0,,,,,0,0,0,0,,,,,,,,,,,,,,,,,,,,,,,,,,,,,,,,,,,,,,,,,,,,,,,,,,,,,,,,,,,,,,,,,,,,,,,,,,,,,,,,,,,,,,,,,,,,,,,,,,,,,,,,,,,,1753.672845,1753.672845,space,32.6127698,space,None,,1786.307646,1786.307646,3.185804,,,,,,,,,,,,10,17,2,2024-11-10_18h21.04.406,uWM_experiment,2022.2.3,60.00456035
,,,,,,,,,,,,,,,,,,,,5,0,5,0,,,,,1,0,1,0,,,,,,,,,,,,,,,,,,,,,,,,,,,,,,,,,,,,,,,,,,,,,,,,,,,,,,,,,,,,,,,,,,,,,,,,,,,,,,,,,,,,,,,,,,,,,,,,,,,,,,,,,,,,,,,,,,,,,,,,,,,,,,,,,10,17,2,2024-11-10_18h21.04.406,uWM_experiment,2022.2.3,60.00456035
,,,,,,,,,,,,,,,,,,,,5,0,5,0,,,,,2,0,2,0,,,,,,,,,,,,,,,,,,,,,,,,,,,,,,,,,,,,,,,,,,,,,,,,,,,,,,,,,,,,,,,,,,,,,,,,,,,,,,,,,,,,,,,,,,,,,,,,,,,,,,,,,,,,,,,,,,,,,,,,,,,,,,,,,10,17,2,2024-11-10_18h21.04.406,uWM_experiment,2022.2.3,60.00456035
,,,,,,,,,,,,,,,,,,,,6,0,6,0,0,0,0,0,,,,,,,,,,,,,,,,,,,,,,,,,,,,,,,,,,,,,,,,,,,,,,,,,,,,,,,,,,,,,,,,,,,,,,0.065039171,,,,,,,,,,,,,,,,,,,,1789.524459,1790.224505,1790.524528,1791.224535,1791.524549,1792.224582,1792.224582,1792.541283,left,1,40,-30,10,1,1796.624787,1796.624787,1796.624787,None,None,1,1,0.5566608,,,,,,,None,,,,,,,,,,,,,,,10,17,2,2024-11-10_18h21.04.406,uWM_experiment,2022.2.3,60.00456035
,,,,,,,,,,,,,,,,,,,,6,0,6,0,1,0,1,0,,,,,,,,,,,,,,,,,,,,,,,,,,,,,,,,,,,,,,,,,,,,,,,,,,,,,,,,,,,,,,,,,,,,,,0.075039171,,,,,,,,,,,,,,,,,,,,,,,,,,,,left,1,70,-30,40,1,1802.85842,1802.85842,1802.85842,None,None,1,1,0.4350449,,,,,,,,,,,,,,,,,,,,,,10,17,2,2024-11-10_18h21.04.406,uWM_experiment,2022.2.3,60.00456035
,,,,,,,,,,,,,,,,,,,,6,0,6,0,2,0,2,0,,,,,,,,,,,,,,,,,,,,,,,,,,,,,,,,,,,,,,,,,,,,,,,,,,,,,,,,,,,,,,,,,,,,,,0.085039171,,,,,,,,,,,,,,,,,,,,,,,,,,,,right,1,130,30,160,1,1813.542236,1813.542236,1813.542236,None,None,2,0,0.8072748,,,,,,,,,,,,,,,,,,,,,,10,17,2,2024-11-10_18h21.04.406,uWM_experiment,2022.2.3,60.00456035
,,,,,,,,,,,,,,,,,,,,6,0,6,0,3,0,3,0,,,,,,,,,,,,,,,,,,,,,,,,,,,,,,,,,,,,,,,,,,,,,,,,,,,,,,,,,,,,,,,,,,,,,,0.075039171,,,,,,,,,,,,,,,,,,,,,,,,,,,,left,1,70,-30,40,1,1820.542546,1820.542546,1820.542546,None,None,2,0,0.4390035,,,,,,,,,,,,,,,,,,,,,,10,17,2,2024-11-10_18h21.04.406,uWM_experiment,2022.2.3,60.00456035
,,,,,,,,,,,,,,,,,,,,6,0,6,0,4,0,4,0,,,,,,,,,,,,,,,,,,,,,,,,,,,,,,,,,,,,,,,,,,,,,,,,,,,,,,,,,,,,,,,,,,,,,,0,,,,,,,,,,,,,,,,,,,,,,,,,,,,left,0,70,30,100,0,1826.959519,1826.959519,1826.959519,None,None,1,1,0.5019009,,,,,,,,,,,,,,,,,,,,,,10,17,2,2024-11-10_18h21.04.406,uWM_experiment,2022.2.3,60.00456035
,,,,,,,,,,,,,,,,,,,,6,0,6,0,5,0,5,0,,,,,,,,,,,,,,,,,,,,,,,,,,,,,,,,,,,,,,,,,,,,,,,,,,,,,,,,,,,,,,,,,,,,,,0,,,,,,,,,,,,,,,,,,,,,,,,,,,,left,0,70,30,100,0,1832.926438,1832.926438,1832.926438,None,None,1,1,0.351008,,,,,,,,,,,,,,,,,,,,,,10,17,2,2024-11-10_18h21.04.406,uWM_experiment,2022.2.3,60.00456035
,,,,,,,,,,,,,,,,,,,,6,0,6,0,6,0,6,0,,,,,,,,,,,,,,,,,,,,,,,,,,,,,,,,,,,,,,,,,,,,,,,,,,,,,,,,,,,,,,,,,,,,,,0.065039171,,,,,,,,,,,,,,,,,,,,,,,,,,,,left,0,100,30,130,1,1838.976721,1838.976721,1838.976721,None,None,1,1,0.4527637,,,,,,,,,,,,,,,,,,,,,,10,17,2,2024-11-10_18h21.04.406,uWM_experiment,2022.2.3,60.00456035
,,,,,,,,,,,,,,,,,,,,6,0,6,0,7,0,7,0,,,,,,,,,,,,,,,,,,,,,,,,,,,,,,,,,,,,,,,,,,,,,,,,,,,,,,,,,,,,,,,,,,,,,,0.075039171,,,,,,,,,,,,,,,,,,,,,,,,,,,,left,0,10,30,40,1,1844.643605,1844.643605,1844.643605,None,None,1,1,0.2979656,,,,,,,,,,,,,,,,,,,,,,10,17,2,2024-11-10_18h21.04.406,uWM_experiment,2022.2.3,60.00456035
,,,,,,,,,,,,,,,,,,,,6,0,6,0,8,0,8,0,,,,,,,,,,,,,,,,,,,,,,,,,,,,,,,,,,,,,,,,,,,,,,,,,,,,,,,,,,,,,,,,,,,,,,0.085039171,,,,,,,,,,,,,,,,,,,,,,,,,,,,right,1,40,30,70,1,1850.76055,1850.76055,1850.76055,None,None,2,0,1.0930754,,,,,,,,,,,,,,,,,,,,,,10,17,2,2024-11-10_18h21.04.406,uWM_experiment,2022.2.3,60.00456035
,,,,,,,,,,,,,,,,,,,,6,0,6,0,9,0,9,0,,,,,,,,,,,,,,,,,,,,,,,,,,,,,,,,,,,,,,,,,,,,,,,,,,,,,,,,,,,,,,,,,,,,,,0.075039171,,,,,,,,,,,,,,,,,,,,,,,,,,,,left,1,160,-30,130,1,1857.727544,1857.727544,1857.727544,None,None,2,0,3.3580508,,,,,,,,,,,,,,,,,,,,,,10,17,2,2024-11-10_18h21.04.406,uWM_experiment,2022.2.3,60.00456035
,,,,,,,,,,,,,,,,,,,,6,0,6,0,10,0,10,0,,,,,,,,,,,,,,,,,,,,,,,,,,,,,,,,,,,,,,,,,,,,,,,,,,,,,,,,,,,,,,,,,,,,,,0,,,,,,,,,,,,,,,,,,,,,,,,,,,,left,1,130,-30,100,0,1866.644609,1866.644609,1866.644609,None,None,1,1,0.2809957,,,,,,,,,,,,,,,,,,,,,,10,17,2,2024-11-10_18h21.04.406,uWM_experiment,2022.2.3,60.00456035
,,,,,,,,,,,,,,,,,,,,6,0,6,0,11,0,11,0,,,,,,,,,,,,,,,,,,,,,,,,,,,,,,,,,,,,,,,,,,,,,,,,,,,,,,,,,,,,,,,,,,,,,,0.065039171,,,,,,,,,,,,,,,,,,,,,,,,,,,,right,1,40,30,70,1,1873.211618,1873.211618,1873.211618,None,None,2,0,0.569893,,,,,,,,,,,,,,,,,,,,,,10,17,2,2024-11-10_18h21.04.406,uWM_experiment,2022.2.3,60.00456035
,,,,,,,,,,,,,,,,,,,,6,0,6,0,12,0,12,0,,,,,,,,,,,,,,,,,,,,,,,,,,,,,,,,,,,,,,,,,,,,,,,,,,,,,,,,,,,,,,,,,,,,,,0.1,,,,,,,,,,,,,,,,,,,,,,,,,,,,left,1,70,-30,40,2,1886.412199,1886.412199,1886.412199,None,None,3,0,1.5614504,,,,,,,,,,,,,,,,,,,,,,10,17,2,2024-11-10_18h21.04.406,uWM_experiment,2022.2.3,60.00456035
,,,,,,,,,,,,,,,,,,,,6,0,6,0,13,0,13,0,,,,,,,,,,,,,,,,,,,,,,,,,,,,,,,,,,,,,,,,,,,,,,,,,,,,,,,,,,,,,,,,,,,,,,0,,,,,,,,,,,,,,,,,,,,,,,,,,,,left,0,10,30,40,0,1893.245826,1893.245826,1893.245826,None,None,1,1,0.3357073,,,,,,,,,,,,,,,,,,,,,,10,17,2,2024-11-10_18h21.04.406,uWM_experiment,2022.2.3,60.00456035
,,,,,,,,,,,,,,,,,,,,6,0,6,0,14,0,14,0,,,,,,,,,,,,,,,,,,,,,,,,,,,,,,,,,,,,,,,,,,,,,,,,,,,,,,,,,,,,,,,,,,,,,,0,,,,,,,,,,,,,,,,,,,,,,,,,,,,left,0,100,30,130,0,1898.846078,1898.846078,1898.846078,None,None,1,1,0.2395461,,,,,,,,,,,,,,,,,,,,,,10,17,2,2024-11-10_18h21.04.406,uWM_experiment,2022.2.3,60.00456035
,,,,,,,,,,,,,,,,,,,,6,0,6,0,15,0,15,0,,,,,,,,,,,,,,,,,,,,,,,,,,,,,,,,,,,,,,,,,,,,,,,,,,,,,,,,,,,,,,,,,,,,,,0.055039171,,,,,,,,,,,,,,,,,,,,,,,,,,,,left,1,160,-30,130,1,1904.879672,1904.879672,1904.879672,None,None,1,1,0.7660265,,,,,,,,,,,,,,,,,,,,,,10,17,2,2024-11-10_18h21.04.406,uWM_experiment,2022.2.3,60.00456035
,,,,,,,,,,,,,,,,,,,,6,0,6,0,16,0,16,0,,,,,,,,,,,,,,,,,,,,,,,,,,,,,,,,,,,,,,,,,,,,,,,,,,,,,,,,,,,,,,,,,,,,,,0.065039171,,,,,,,,,,,,,,,,,,,,,,,,,,,,right,1,40,30,70,1,1911.813361,1911.813361,1911.813361,None,None,2,0,2.6403375,,,,,,,,,,,,,,,,,,,,,,10,17,2,2024-11-10_18h21.04.406,uWM_experiment,2022.2.3,60.00456035
,,,,,,,,,,,,,,,,,,,,6,0,6,0,17,0,17,0,,,,,,,,,,,,,,,,,,,,,,,,,,,,,,,,,,,,,,,,,,,,,,,,,,,,,,,,,,,,,,,,,,,,,,0.055039171,,,,,,,,,,,,,,,,,,,,,,,,,,,,left,0,70,30,100,1,1920.063706,1920.063706,1920.063706,None,None,1,1,0.2459446,,,,,,,,,,,,,,,,,,,,,,10,17,2,2024-11-10_18h21.04.406,uWM_experiment,2022.2.3,60.00456035
,,,,,,,,,,,,,,,,,,,,6,0,6,0,18,0,18,0,,,,,,,,,,,,,,,,,,,,,,,,,,,,,,,,,,,,,,,,,,,,,,,,,,,,,,,,,,,,,,,,,,,,,,0,,,,,,,,,,,,,,,,,,,,,,,,,,,,left,0,130,30,160,0,1929.147461,1929.147461,1929.147461,None,None,1,1,0.3861653,,,,,,,,,,,,,,,,,,,,,,10,17,2,2024-11-10_18h21.04.406,uWM_experiment,2022.2.3,60.00456035
,,,,,,,,,,,,,,,,,,,,6,0,6,0,19,0,19,0,,,,,,,,,,,,,,,,,,,,,,,,,,,,,,,,,,,,,,,,,,,,,,,,,,,,,,,,,,,,,,,,,,,,,,0,,,,,,,,,,,,,,,,,,,,,,,,,,,,left,0,100,30,130,0,1934.981045,1934.981045,1934.981045,None,None,1,1,0.248673,,,,,,,,,,,,,,,,,,,,,,10,17,2,2024-11-10_18h21.04.406,uWM_experiment,2022.2.3,60.00456035
,,,,,,,,,,,,,,,,,,,,6,0,6,0,20,0,20,0,,,,,,,,,,,,,,,,,,,,,,,,,,,,,,,,,,,,,,,,,,,,,,,,,,,,,,,,,,,,,,,,,,,,,,0.065039171,,,,,,,,,,,,,,,,,,,,,,,,,,,,right,1,100,30,130,1,1941.548025,1941.548025,1941.548025,None,None,2,0,1.4016325,,,,,,,,,,,,,,,,,,,,,,10,17,2,2024-11-10_18h21.04.406,uWM_experiment,2022.2.3,60.00456035
,,,,,,,,,,,,,,,,,,,,6,0,6,0,21,0,21,0,,,,,,,,,,,,,,,,,,,,,,,,,,,,,,,,,,,,,,,,,,,,,,,,,,,,,,,,,,,,,,,,,,,,,,0.055039171,,,,,,,,,,,,,,,,,,,,,,,,,,,,left,0,130,30,160,1,1948.648338,1948.648338,1948.648338,None,None,1,1,0.7892813,,,,,,,,,,,,,,,,,,,,,,10,17,2,2024-11-10_18h21.04.406,uWM_experiment,2022.2.3,60.00456035
,,,,,,,,,,,,,,,,,,,,6,0,6,0,22,0,22,0,,,,,,,,,,,,,,,,,,,,,,,,,,,,,,,,,,,,,,,,,,,,,,,,,,,,,,,,,,,,,,,,,,,,,,0,,,,,,,,,,,,,,,,,,,,,,,,,,,,left,1,10,-30,-20,0,1954.565281,1954.565281,1954.565281,None,None,1,1,0.2324322,,,,,,,,,,,,,,,,,,,,,,10,17,2,2024-11-10_18h21.04.406,uWM_experiment,2022.2.3,60.00456035
,,,,,,,,,,,,,,,,,,,,6,0,6,0,23,0,23,0,,,,,,,,,,,,,,,,,,,,,,,,,,,,,,,,,,,,,,,,,,,,,,,,,,,,,,,,,,,,,,,,,,,,,,0.065039171,,,,,,,,,,,,,,,,,,,,,,,,,,,,right,0,160,-30,130,1,1963.332335,1963.332335,1963.332335,None,None,2,0,0.7693031,,,,,,,,,,,,,,,,,,,,,,10,17,2,2024-11-10_18h21.04.406,uWM_experiment,2022.2.3,60.00456035
,,,,,,,,,,,,,,,,,,,,6,0,6,0,,,,,0,0,0,0,,,,,,,,,,,,,,,,,,,,,,,,,,,,,,,,,,,,,,,,,,,,,,,,,,,,,,,,,,,,,,,,,,,,,,,,,,,,,,,,,,,,,,,,,,,,,,,,,,,,,,,,,,,,1964.132357,1964.132357,space,51.9213923,None,space,,,,,2016.084693,2016.084693,17.3770995,,,,,,,,,10,17,2,2024-11-10_18h21.04.406,uWM_experiment,2022.2.3,60.00456035
,,,,,,,,,,,,,,,,,,,,6,0,6,0,,,,,1,0,1,0,,,,,,,,,,,,,,,,,,,,,,,,,,,,,,,,,,,,,,,,,,,,,,,,,,,,,,,,,,,,,,,,,,,,,,,,,,,,,,,,,,,,,,,,,,,,,,,,,,,,,,,,,,,,,,,,,,,,,,,,,,,,,,,,,10,17,2,2024-11-10_18h21.04.406,uWM_experiment,2022.2.3,60.00456035
,,,,,,,,,,,,,,,,,,,,6,0,6,0,,,,,2,0,2,0,,,,,,,,,,,,,,,,,,,,,,,,,,,,,,,,,,,,,,,,,,,,,,,,,,,,,,,,,,,,,,,,,,,,,,,,,,,,,,,,,,,,,,,,,,,,,,,,,,,,,,,,,,,,,,,,,,,,,,,,,,,,,,,,,10,17,2,2024-11-10_18h21.04.406,uWM_experiment,2022.2.3,60.00456035
,,,,,,,,,,,,,,,,,,,,7,0,7,0,0,0,0,0,,,,,,,,,,,,,,,,,,,,,,,,,,,,,,,,,,,,,,,,,,,,,,,,,,,,,,,,,,,,,,,,,,,,,,0,,,,,,,,,,,,,,,,,,,,2046.752757,2047.4528,2047.73614,2048.436158,2048.736216,2049.436225,2049.436225,2049.752901,left,0,160,30,190,0,2055.386477,2055.386477,2055.386477,None,None,1,1,0.3633036,,,,,,,space,,,,,,,2041.585859,2041.585859,5.1479591,,,,,,10,17,2,2024-11-10_18h21.04.406,uWM_experiment,2022.2.3,60.00456035
,,,,,,,,,,,,,,,,,,,,7,0,7,0,1,0,1,0,,,,,,,,,,,,,,,,,,,,,,,,,,,,,,,,,,,,,,,,,,,,,,,,,,,,,,,,,,,,,,,,,,,,,,0.055039171,,,,,,,,,,,,,,,,,,,,,,,,,,,,left,0,160,30,190,1,2060.936738,2060.936738,2060.936738,None,None,1,1,0.3730775,,,,,,,,,,,,,,,,,,,,,,10,17,2,2024-11-10_18h21.04.406,uWM_experiment,2022.2.3,60.00456035
,,,,,,,,,,,,,,,,,,,,7,0,7,0,2,0,2,0,,,,,,,,,,,,,,,,,,,,,,,,,,,,,,,,,,,,,,,,,,,,,,,,,,,,,,,,,,,,,,,,,,,,,,0.1,,,,,,,,,,,,,,,,,,,,,,,,,,,,right,1,10,30,40,2,2067.953738,2067.953738,2067.953738,None,None,4,0,0.4200491,,,,,,,,,,,,,,,,,,,,,,10,17,2,2024-11-10_18h21.04.406,uWM_experiment,2022.2.3,60.00456035
,,,,,,,,,,,,,,,,,,,,7,0,7,0,3,0,3,0,,,,,,,,,,,,,,,,,,,,,,,,,,,,,,,,,,,,,,,,,,,,,,,,,,,,,,,,,,,,,,,,,,,,,,0.065039171,,,,,,,,,,,,,,,,,,,,,,,,,,,,right,1,130,30,160,1,2078.737561,2078.737561,2078.737561,None,None,2,0,5.4763604,,,,,,,,,,,,,,,,,,,,,,10,17,2,2024-11-10_18h21.04.406,uWM_experiment,2022.2.3,60.00456035
,,,,,,,,,,,,,,,,,,,,7,0,7,0,4,0,4,0,,,,,,,,,,,,,,,,,,,,,,,,,,,,,,,,,,,,,,,,,,,,,,,,,,,,,,,,,,,,,,,,,,,,,,0.055039171,,,,,,,,,,,,,,,,,,,,,,,,,,,,left,1,70,-30,40,1,2089.72137,2089.72137,2089.72137,None,None,1,1,0.3005402,,,,,,,,,,,,,,,,,,,,,,10,17,2,2024-11-10_18h21.04.406,uWM_experiment,2022.2.3,60.00456035
,,,,,,,,,,,,,,,,,,,,7,0,7,0,5,0,5,0,,,,,,,,,,,,,,,,,,,,,,,,,,,,,,,,,,,,,,,,,,,,,,,,,,,,,,,,,,,,,,,,,,,,,,0.065039171,,,,,,,,,,,,,,,,,,,,,,,,,,,,left,0,70,30,100,1,2115.805885,2115.805885,2115.805885,None,None,1,1,1.0879766,,,,,,,,,,,,,,,,,,,,,,10,17,2,2024-11-10_18h21.04.406,uWM_experiment,2022.2.3,60.00456035
,,,,,,,,,,,,,,,,,,,,7,0,7,0,6,0,6,0,,,,,,,,,,,,,,,,,,,,,,,,,,,,,,,,,,,,,,,,,,,,,,,,,,,,,,,,,,,,,,,,,,,,,,0,,,,,,,,,,,,,,,,,,,,,,,,,,,,left,1,160,-30,130,0,2122.522868,2122.522868,2122.522868,None,None,1,1,0.4989986,,,,,,,,,,,,,,,,,,,,,,10,17,2,2024-11-10_18h21.04.406,uWM_experiment,2022.2.3,60.00456035
,,,,,,,,,,,,,,,,,,,,7,0,7,0,7,0,7,0,,,,,,,,,,,,,,,,,,,,,,,,,,,,,,,,,,,,,,,,,,,,,,,,,,,,,,,,,,,,,,,,,,,,,,0,,,,,,,,,,,,,,,,,,,,,,,,,,,,left,0,10,30,40,0,2128.156442,2128.156442,2128.156442,None,None,1,1,0.2815344,,,,,,,,,,,,,,,,,,,,,,10,17,2,2024-11-10_18h21.04.406,uWM_experiment,2022.2.3,60.00456035
,,,,,,,,,,,,,,,,,,,,7,0,7,0,8,0,8,0,,,,,,,,,,,,,,,,,,,,,,,,,,,,,,,,,,,,,,,,,,,,,,,,,,,,,,,,,,,,,,,,,,,,,,0.075039171,,,,,,,,,,,,,,,,,,,,,,,,,,,,left,1,130,-30,100,1,2139.84032,2139.84032,2139.84032,None,None,3,0,1.9976753,,,,,,,,,,,,,,,,,,,,,,10,17,2,2024-11-10_18h21.04.406,uWM_experiment,2022.2.3,60.00456035
,,,,,,,,,,,,,,,,,,,,7,0,7,0,9,0,9,0,,,,,,,,,,,,,,,,,,,,,,,,,,,,,,,,,,,,,,,,,,,,,,,,,,,,,,,,,,,,,,,,,,,,,,0.065039171,,,,,,,,,,,,,,,,,,,,,,,,,,,,left,1,70,-30,40,1,2147.107298,2147.107298,2147.107298,None,None,1,1,0.2427161,,,,,,,,,,,,,,,,,,,,,,10,17,2,2024-11-10_18h21.04.406,uWM_experiment,2022.2.3,60.00456035
,,,,,,,,,,,,,,,,,,,,7,0,7,0,10,0,10,0,,,,,,,,,,,,,,,,,,,,,,,,,,,,,,,,,,,,,,,,,,,,,,,,,,,,,,,,,,,,,,,,,,,,,,0,,,,,,,,,,,,,,,,,,,,,,,,,,,,left,1,10,-30,-20,0,2153.690944,2153.690944,2153.690944,None,None,1,1,0.2750371,,,,,,,,,,,,,,,,,,,,,,10,17,2,2024-11-10_18h21.04.406,uWM_experiment,2022.2.3,60.00456035
,,,,,,,,,,,,,,,,,,,,7,0,7,0,11,0,11,0,,,,,,,,,,,,,,,,,,,,,,,,,,,,,,,,,,,,,,,,,,,,,,,,,,,,,,,,,,,,,,,,,,,,,,0.075039171,,,,,,,,,,,,,,,,,,,,,,,,,,,,left,0,70,30,100,1,2162.191327,2162.191327,2162.191327,None,None,3,0,0.9826468,,,,,,,,,,,,,,,,,,,,,,10,17,2,2024-11-10_18h21.04.406,uWM_experiment,2022.2.3,60.00456035
,,,,,,,,,,,,,,,,,,,,7,0,7,0,12,0,12,0,,,,,,,,,,,,,,,,,,,,,,,,,,,,,,,,,,,,,,,,,,,,,,,,,,,,,,,,,,,,,,,,,,,,,,0.065039171,,,,,,,,,,,,,,,,,,,,,,,,,,,,right,1,160,30,190,1,2169.658326,2169.658326,2169.658326,None,None,2,0,32.0036023,,,,,,,,,,,,,,,,,,,,,,10,17,2,2024-11-10_18h21.04.406,uWM_experiment,2022.2.3,60.00456035
,,,,,,,,,,,,,,,,,,,,7,0,7,0,13,0,13,0,,,,,,,,,,,,,,,,,,,,,,,,,,,,,,,,,,,,,,,,,,,,,,,,,,,,,,,,,,,,,,,,,,,,,,0.055039171,,,,,,,,,,,,,,,,,,,,,,,,,,,,left,1,10,-30,-20,1,2206.760017,2206.760017,2206.760017,None,None,1,1,0.2139698,,,,,,,,,,,,,,,,,,,,,,10,17,2,2024-11-10_18h21.04.406,uWM_experiment,2022.2.3,60.00456035
,,,,,,,,,,,,,,,,,,,,7,0,7,0,14,0,14,0,,,,,,,,,,,,,,,,,,,,,,,,,,,,,,,,,,,,,,,,,,,,,,,,,,,,,,,,,,,,,,,,,,,,,,0.065039171,,,,,,,,,,,,,,,,,,,,,,,,,,,,left,1,10,-30,-20,1,2213.293622,2213.293622,2213.293622,None,None,2,0,0.8003353,,,,,,,,,,,,,,,,,,,,,,10,17,2,2024-11-10_18h21.04.406,uWM_experiment,2022.2.3,60.00456035
,,,,,,,,,,,,,,,,,,,,7,0,7,0,15,0,15,0,,,,,,,,,,,,,,,,,,,,,,,,,,,,,,,,,,,,,,,,,,,,,,,,,,,,,,,,,,,,,,,,,,,,,,0.055039171,,,,,,,,,,,,,,,,,,,,,,,,,,,,left,0,40,30,70,1,2220.560611,2220.560611,2220.560611,None,None,1,1,0.3173695,,,,,,,,,,,,,,,,,,,,,,10,17,2,2024-11-10_18h21.04.406,uWM_experiment,2022.2.3,60.00456035
,,,,,,,,,,,,,,,,,,,,7,0,7,0,16,0,16,0,,,,,,,,,,,,,,,,,,,,,,,,,,,,,,,,,,,,,,,,,,,,,,,,,,,,,,,,,,,,,,,,,,,,,,0,,,,,,,,,,,,,,,,,,,,,,,,,,,,left,1,130,-30,100,0,2227.510921,2227.510921,2227.510921,None,None,1,1,0.2710417,,,,,,,,,,,,,,,,,,,,,,10,17,2,2024-11-10_18h21.04.406,uWM_experiment,2022.2.3,60.00456035
,,,,,,,,,,,,,,,,,,,,7,0,7,0,17,0,17,0,,,,,,,,,,,,,,,,,,,,,,,,,,,,,,,,,,,,,,,,,,,,,,,,,,,,,,,,,,,,,,,,,,,,,,0,,,,,,,,,,,,,,,,,,,,,,,,,,,,left,0,160,30,190,0,2233.477886,2233.477886,2233.477886,None,None,1,1,0.5601767,,,,,,,,,,,,,,,,,,,,,,10,17,2,2024-11-10_18h21.04.406,uWM_experiment,2022.2.3,60.00456035
,,,,,,,,,,,,,,,,,,,,7,0,7,0,18,0,18,0,,,,,,,,,,,,,,,,,,,,,,,,,,,,,,,,,,,,,,,,,,,,,,,,,,,,,,,,,,,,,,,,,,,,,,0.065039171,,,,,,,,,,,,,,,,,,,,,,,,,,,,left,1,130,-30,100,1,2241.428231,2241.428231,2241.428231,None,None,3,0,1.3778821,,,,,,,,,,,,,,,,,,,,,,10,17,2,2024-11-10_18h21.04.406,uWM_experiment,2022.2.3,60.00456035
,,,,,,,,,,,,,,,,,,,,7,0,7,0,19,0,19,0,,,,,,,,,,,,,,,,,,,,,,,,,,,,,,,,,,,,,,,,,,,,,,,,,,,,,,,,,,,,,,,,,,,,,,0,,,,,,,,,,,,,,,,,,,,,,,,,,,,left,1,130,-30,100,0,2248.561888,2248.561888,2248.561888,None,None,1,1,0.2922454,,,,,,,,,,,,,,,,,,,,,,10,17,2,2024-11-10_18h21.04.406,uWM_experiment,2022.2.3,60.00456035
,,,,,,,,,,,,,,,,,,,,7,0,7,0,20,0,20,0,,,,,,,,,,,,,,,,,,,,,,,,,,,,,,,,,,,,,,,,,,,,,,,,,,,,,,,,,,,,,,,,,,,,,,0.055039171,,,,,,,,,,,,,,,,,,,,,,,,,,,,left,1,10,-30,-20,1,2257.778972,2257.778972,2257.778972,None,None,3,0,1.211181,,,,,,,,,,,,,,,,,,,,,,10,17,2,2024-11-10_18h21.04.406,uWM_experiment,2022.2.3,60.00456035
,,,,,,,,,,,,,,,,,,,,7,0,7,0,21,0,21,0,,,,,,,,,,,,,,,,,,,,,,,,,,,,,,,,,,,,,,,,,,,,,,,,,,,,,,,,,,,,,,,,,,,,,,0.045039171,,,,,,,,,,,,,,,,,,,,,,,,,,,,left,1,10,-30,-20,1,2264.19592,2264.19592,2264.19592,None,None,1,1,0.2662673,,,,,,,,,,,,,,,,,,,,,,10,17,2,2024-11-10_18h21.04.406,uWM_experiment,2022.2.3,60.00456035
,,,,,,,,,,,,,,,,,,,,7,0,7,0,22,0,22,0,,,,,,,,,,,,,,,,,,,,,,,,,,,,,,,,,,,,,,,,,,,,,,,,,,,,,,,,,,,,,,,,,,,,,,0.055039171,,,,,,,,,,,,,,,,,,,,,,,,,,,,left,0,40,30,70,1,2270.929561,2270.929561,2270.929561,None,None,1,1,0.3645132,,,,,,,,,,,,,,,,,,,,,,10,17,2,2024-11-10_18h21.04.406,uWM_experiment,2022.2.3,60.00456035
,,,,,,,,,,,,,,,,,,,,7,0,7,0,23,0,23,0,,,,,,,,,,,,,,,,,,,,,,,,,,,,,,,,,,,,,,,,,,,,,,,,,,,,,,,,,,,,,,,,,,,,,,0,,,,,,,,,,,,,,,,,,,,,,,,,,,,left,1,130,-30,100,0,2278.01322,2278.01322,2278.01322,None,None,1,1,0.3208245,,,,,,,,,,,,,,,,,,,,,,10,17,2,2024-11-10_18h21.04.406,uWM_experiment,2022.2.3,60.00456035
,,,,,,,,,,,,,,,,,,,,7,0,7,0,,,,,0,0,0,0,,,,,,,,,,,,,,,,,,,,,,,,,,,,,,,,,,,,,,,,,,,,,,,,,,,,,,,,,,,,,,,,,,,,,,,,,,,,,,,,,,,,,,,,,,,,,,,,,,,,,,,,,,,,2278.363195,2278.363195,space,53.579014,None,None,,,,,,,,,,,,,,,,10,17,2,2024-11-10_18h21.04.406,uWM_experiment,2022.2.3,60.00456035
,,,,,,,,,,,,,,,,,,,,7,0,7,0,,,,,1,0,1,0,,,,,,,,,,,,,,,,,,,,,,,,,,,,,,,,,,,,,,,,,,,,,,,,,,,,,,,,,,,,,,,,,,,,,,,,,,,,,,,,,,,,,,,,,,,,,,,,,,,,,,,,,,,,,,,,,,,,,,,,,,,,,,,,,10,17,2,2024-11-10_18h21.04.406,uWM_experiment,2022.2.3,60.00456035
,,,,,,,,,,,,,,,,,,,,7,0,7,0,,,,,2,0,2,0,,,,,,,,,,,,,,,,,,,,,,,,,,,,,,,,,,,,,,,,,,,,,,,,,,,,,,,,,,,,,,,,,,,,,,,,,,,,,,,,,,,,,,,,,,,,,,,,,,,,,,,,,,,,,,,,,,,,,,,,,,,,,,,,,10,17,2,2024-11-10_18h21.04.406,uWM_experiment,2022.2.3,60.00456035
,,,,,,,,,,,,,,,,,,,,8,0,8,0,0,0,0,0,,,,,,,,,,,,,,,,,,,,,,,,,,,,,,,,,,,,,,,,,,,,,,,,,,,,,,,,,,,,,,,,,,,,,,0.065039171,,,,,,,,,,,,,,,,,,,,2331.965644,2332.665675,2332.965735,2333.665735,2333.965735,2334.665763,2334.665763,2334.982451,left,1,70,-30,40,1,2340.032687,2340.032687,2340.032687,None,None,1,1,0.2615841,,,,,,,None,,,,,,,,,,,,,,,10,17,2,2024-11-10_18h21.04.406,uWM_experiment,2022.2.3,60.00456035
,,,,,,,,,,,,,,,,,,,,8,0,8,0,1,0,1,0,,,,,,,,,,,,,,,,,,,,,,,,,,,,,,,,,,,,,,,,,,,,,,,,,,,,,,,,,,,,,,,,,,,,,,0.075039171,,,,,,,,,,,,,,,,,,,,,,,,,,,,right,1,40,30,70,1,2347.866387,2347.866387,2347.866387,None,None,2,0,8.075897,,,,,,,,,,,,,,,,,,,,,,10,17,2,2024-11-10_18h21.04.406,uWM_experiment,2022.2.3,60.00456035
,,,,,,,,,,,,,,,,,,,,8,0,8,0,2,0,2,0,,,,,,,,,,,,,,,,,,,,,,,,,,,,,,,,,,,,,,,,,,,,,,,,,,,,,,,,,,,,,,,,,,,,,,0.065039171,,,,,,,,,,,,,,,,,,,,,,,,,,,,left,0,10,30,40,1,2364.183767,2364.183767,2364.183767,None,None,1,1,0.4944691,,,,,,,,,,,,,,,,,,,,,,10,17,2,2024-11-10_18h21.04.406,uWM_experiment,2022.2.3,60.00456035
,,,,,,,,,,,,,,,,,,,,8,0,8,0,3,0,3,0,,,,,,,,,,,,,,,,,,,,,,,,,,,,,,,,,,,,,,,,,,,,,,,,,,,,,,,,,,,,,,,,,,,,,,0,,,,,,,,,,,,,,,,,,,,,,,,,,,,left,0,10,30,40,0,2371.750796,2371.750796,2371.750796,None,None,1,1,0.5836742,,,,,,,,,,,,,,,,,,,,,,10,17,2,2024-11-10_18h21.04.406,uWM_experiment,2022.2.3,60.00456035
,,,,,,,,,,,,,,,,,,,,8,0,8,0,4,0,4,0,,,,,,,,,,,,,,,,,,,,,,,,,,,,,,,,,,,,,,,,,,,,,,,,,,,,,,,,,,,,,,,,,,,,,,0,,,,,,,,,,,,,,,,,,,,,,,,,,,,left,0,70,30,100,0,2377.967721,2377.967721,2377.967721,None,None,1,1,0.1985003,,,,,,,,,,,,,,,,,,,,,,10,17,2,2024-11-10_18h21.04.406,uWM_experiment,2022.2.3,60.00456035
,,,,,,,,,,,,,,,,,,,,8,0,8,0,5,0,5,0,,,,,,,,,,,,,,,,,,,,,,,,,,,,,,,,,,,,,,,,,,,,,,,,,,,,,,,,,,,,,,,,,,,,,,0.075039171,,,,,,,,,,,,,,,,,,,,,,,,,,,,left,0,100,30,130,1,2384.518023,2384.518023,2384.518023,None,None,1,1,0.1601738,,,,,,,,,,,,,,,,,,,,,,10,17,2,2024-11-10_18h21.04.406,uWM_experiment,2022.2.3,60.00456035
,,,,,,,,,,,,,,,,,,,,8,0,8,0,6,0,6,0,,,,,,,,,,,,,,,,,,,,,,,,,,,,,,,,,,,,,,,,,,,,,,,,,,,,,,,,,,,,,,,,,,,,,,0,,,,,,,,,,,,,,,,,,,,,,,,,,,,left,1,100,-30,70,0,2390.134965,2390.134965,2390.134965,None,None,1,1,0.2152356,,,,,,,,,,,,,,,,,,,,,,10,17,2,2024-11-10_18h21.04.406,uWM_experiment,2022.2.3,60.00456035
,,,,,,,,,,,,,,,,,,,,8,0,8,0,7,0,7,0,,,,,,,,,,,,,,,,,,,,,,,,,,,,,,,,,,,,,,,,,,,,,,,,,,,,,,,,,,,,,,,,,,,,,,0.085039171,,,,,,,,,,,,,,,,,,,,,,,,,,,,left,0,70,30,100,1,2398.268647,2398.268647,2398.268647,None,None,3,0,6.5855523,,,,,,,,,,,,,,,,,,,,,,10,17,2,2024-11-10_18h21.04.406,uWM_experiment,2022.2.3,60.00456035
,,,,,,,,,,,,,,,,,,,,8,0,8,0,8,0,8,0,,,,,,,,,,,,,,,,,,,,,,,,,,,,,,,,,,,,,,,,,,,,,,,,,,,,,,,,,,,,,,,,,,,,,,0.075039171,,,,,,,,,,,,,,,,,,,,,,,,,,,,right,1,10,30,40,1,2411.769261,2411.769261,2411.769261,None,None,3,0,2.8450583,,,,,,,,,,,,,,,,,,,,,,10,17,2,2024-11-10_18h21.04.406,uWM_experiment,2022.2.3,60.00456035
,,,,,,,,,,,,,,,,,,,,8,0,8,0,9,0,9,0,,,,,,,,,,,,,,,,,,,,,,,,,,,,,,,,,,,,,,,,,,,,,,,,,,,,,,,,,,,,,,,,,,,,,,0.065039171,,,,,,,,,,,,,,,,,,,,,,,,,,,,left,1,160,-30,130,1,2421.353049,2421.353049,2421.353049,None,None,2,0,3.285216,,,,,,,,,,,,,,,,,,,,,,10,17,2,2024-11-10_18h21.04.406,uWM_experiment,2022.2.3,60.00456035
,,,,,,,,,,,,,,,,,,,,8,0,8,0,10,0,10,0,,,,,,,,,,,,,,,,,,,,,,,,,,,,,,,,,,,,,,,,,,,,,,,,,,,,,,,,,,,,,,,,,,,,,,0.055039171,,,,,,,,,,,,,,,,,,,,,,,,,,,,left,1,130,-30,100,1,2430.870135,2430.870135,2430.870135,None,None,1,1,0.1122058,,,,,,,,,,,,,,,,,,,,,,10,17,2,2024-11-10_18h21.04.406,uWM_experiment,2022.2.3,60.00456035
,,,,,,,,,,,,,,,,,,,,8,0,8,0,11,0,11,0,,,,,,,,,,,,,,,,,,,,,,,,,,,,,,,,,,,,,,,,,,,,,,,,,,,,,,,,,,,,,,,,,,,,,,0.065039171,,,,,,,,,,,,,,,,,,,,,,,,,,,,left,1,10,-30,-20,1,2436.987057,2436.987057,2436.987057,None,None,1,1,0.2272463,,,,,,,,,,,,,,,,,,,,,,10,17,2,2024-11-10_18h21.04.406,uWM_experiment,2022.2.3,60.00456035
,,,,,,,,,,,,,,,,,,,,8,0,8,0,12,0,12,0,,,,,,,,,,,,,,,,,,,,,,,,,,,,,,,,,,,,,,,,,,,,,,,,,,,,,,,,,,,,,,,,,,,,,,0.075039171,,,,,,,,,,,,,,,,,,,,,,,,,,,,right,1,40,30,70,1,2445.954137,2445.954137,2445.954137,None,None,3,0,5.964217,,,,,,,,,,,,,,,,,,,,,,10,17,2,2024-11-10_18h21.04.406,uWM_experiment,2022.2.3,60.00456035
,,,,,,,,,,,,,,,,,,,,8,0,8,0,13,0,13,0,,,,,,,,,,,,,,,,,,,,,,,,,,,,,,,,,,,,,,,,,,,,,,,,,,,,,,,,,,,,,,,,,,,,,,0.065039171,,,,,,,,,,,,,,,,,,,,,,,,,,,,left,1,10,-30,-20,1,2457.471317,2457.471317,2457.471317,None,None,1,1,0.2549605,,,,,,,,,,,,,,,,,,,,,,10,17,2,2024-11-10_18h21.04.406,uWM_experiment,2022.2.3,60.00456035
,,,,,,,,,,,,,,,,,,,,8,0,8,0,14,0,14,0,,,,,,,,,,,,,,,,,,,,,,,,,,,,,,,,,,,,,,,,,,,,,,,,,,,,,,,,,,,,,,,,,,,,,,0.075039171,,,,,,,,,,,,,,,,,,,,,,,,,,,,left,1,130,-30,100,1,2462.904896,2462.904896,2462.904896,None,None,1,1,0.197461,,,,,,,,,,,,,,,,,,,,,,10,17,2,2024-11-10_18h21.04.406,uWM_experiment,2022.2.3,60.00456035
,,,,,,,,,,,,,,,,,,,,8,0,8,0,15,0,15,0,,,,,,,,,,,,,,,,,,,,,,,,,,,,,,,,,,,,,,,,,,,,,,,,,,,,,,,,,,,,,,,,,,,,,,0.085039171,,,,,,,,,,,,,,,,,,,,,,,,,,,,left,0,130,30,160,1,2469.088528,2469.088528,2469.088528,None,None,1,1,0.3098266,,,,,,,,,,,,,,,,,,,,,,10,17,2,2024-11-10_18h21.04.406,uWM_experiment,2022.2.3,60.00456035
,,,,,,,,,,,,,,,,,,,,8,0,8,0,16,0,16,0,,,,,,,,,,,,,,,,,,,,,,,,,,,,,,,,,,,,,,,,,,,,,,,,,,,,,,,,,,,,,,,,,,,,,,0.095039171,,,,,,,,,,,,,,,,,,,,,,,,,,,,right,1,100,30,130,1,2476.288835,2476.288835,2476.288835,None,None,2,0,0.3976199,,,,,,,,,,,,,,,,,,,,,,10,17,2,2024-11-10_18h21.04.406,uWM_experiment,2022.2.3,60.00456035
,,,,,,,,,,,,,,,,,,,,8,0,8,0,17,0,17,0,,,,,,,,,,,,,,,,,,,,,,,,,,,,,,,,,,,,,,,,,,,,,,,,,,,,,,,,,,,,,,,,,,,,,,0.085039171,,,,,,,,,,,,,,,,,,,,,,,,,,,,left,1,160,-30,130,1,2484.489223,2484.489223,2484.489223,None,None,2,0,2.2850702,,,,,,,,,,,,,,,,,,,,,,10,17,2,2024-11-10_18h21.04.406,uWM_experiment,2022.2.3,60.00456035
,,,,,,,,,,,,,,,,,,,,8,0,8,0,18,0,18,0,,,,,,,,,,,,,,,,,,,,,,,,,,,,,,,,,,,,,,,,,,,,,,,,,,,,,,,,,,,,,,,,,,,,,,0.075039171,,,,,,,,,,,,,,,,,,,,,,,,,,,,right,1,40,30,70,1,2494.37298,2494.37298,2494.37298,None,None,3,0,2.1853874,,,,,,,,,,,,,,,,,,,,,,10,17,2,2024-11-10_18h21.04.406,uWM_experiment,2022.2.3,60.00456035
,,,,,,,,,,,,,,,,,,,,8,0,8,0,19,0,19,0,,,,,,,,,,,,,,,,,,,,,,,,,,,,,,,,,,,,,,,,,,,,,,,,,,,,,,,,,,,,,,,,,,,,,,0,,,,,,,,,,,,,,,,,,,,,,,,,,,,left,0,160,30,190,0,2501.65667,2501.65667,2501.65667,None,None,1,1,0.1656469,,,,,,,,,,,,,,,,,,,,,,10,17,2,2024-11-10_18h21.04.406,uWM_experiment,2022.2.3,60.00456035
,,,,,,,,,,,,,,,,,,,,8,0,8,0,20,0,20,0,,,,,,,,,,,,,,,,,,,,,,,,,,,,,,,,,,,,,,,,,,,,,,,,,,,,,,,,,,,,,,,,,,,,,,0.065039171,,,,,,,,,,,,,,,,,,,,,,,,,,,,left,0,70,30,100,1,2507.190263,2507.190263,2507.190263,None,None,1,1,0.3520942,,,,,,,,,,,,,,,,,,,,,,10,17,2,2024-11-10_18h21.04.406,uWM_experiment,2022.2.3,60.00456035
,,,,,,,,,,,,,,,,,,,,8,0,8,0,21,0,21,0,,,,,,,,,,,,,,,,,,,,,,,,,,,,,,,,,,,,,,,,,,,,,,,,,,,,,,,,,,,,,,,,,,,,,,0.075039171,,,,,,,,,,,,,,,,,,,,,,,,,,,,right,1,10,30,40,1,2516.95736,2516.95736,2516.95736,None,None,3,0,2.8250799,,,,,,,,,,,,,,,,,,,,,,10,17,2,2024-11-10_18h21.04.406,uWM_experiment,2022.2.3,60.00456035
,,,,,,,,,,,,,,,,,,,,8,0,8,0,22,0,22,0,,,,,,,,,,,,,,,,,,,,,,,,,,,,,,,,,,,,,,,,,,,,,,,,,,,,,,,,,,,,,,,,,,,,,,0.1,,,,,,,,,,,,,,,,,,,,,,,,,,,,right,1,40,30,70,2,2528.091171,2528.091171,2528.091171,None,None,4,0,0.3152799,,,,,,,,,,,,,,,,,,,,,,10,17,2,2024-11-10_18h21.04.406,uWM_experiment,2022.2.3,60.00456035
,,,,,,,,,,,,,,,,,,,,8,0,8,0,23,0,23,0,,,,,,,,,,,,,,,,,,,,,,,,,,,,,,,,,,,,,,,,,,,,,,,,,,,,,,,,,,,,,,,,,,,,,,0.065039171,,,,,,,,,,,,,,,,,,,,,,,,,,,,left,0,10,30,40,1,2536.958256,2536.958256,2536.958256,None,None,1,1,0.1921091,,,,,,,,,,,,,,,,,,,,,,10,17,2,2024-11-10_18h21.04.406,uWM_experiment,2022.2.3,60.00456035
,,,,,,,,,,,,,,,,,,,,8,0,8,0,,,,,0,0,0,0,,,,,,,,,,,,,,,,,,,,,,,,,,,,,,,,,,,,,,,,,,,,,,,,,,,,,,,,,,,,,,,,,,,,,,,,,,,,,,,,,,,,,,,,,,,,,,,,,,,,,,,,,,,,2537.174901,2537.174901,space,46.1116239,space,None,,2583.310324,2583.310324,8.1122744,,,,,,,,,,,,10,17,2,2024-11-10_18h21.04.406,uWM_experiment,2022.2.3,60.00456035
,,,,,,,,,,,,,,,,,,,,8,0,8,0,,,,,1,0,1,0,,,,,,,,,,,,,,,,,,,,,,,,,,,,,,,,,,,,,,,,,,,,,,,,,,,,,,,,,,,,,,,,,,,,,,,,,,,,,,,,,,,,,,,,,,,,,,,,,,,,,,,,,,,,,,,,,,,,,,,,,,,,,,,,,10,17,2,2024-11-10_18h21.04.406,uWM_experiment,2022.2.3,60.00456035
,,,,,,,,,,,,,,,,,,,,8,0,8,0,,,,,2,0,2,0,,,,,,,,,,,,,,,,,,,,,,,,,,,,,,,,,,,,,,,,,,,,,,,,,,,,,,,,,,,,,,,,,,,,,,,,,,,,,,,,,,,,,,,,,,,,,,,,,,,,,,,,,,,,,,,,,,,,,,,,,,,,,,,,,10,17,2,2024-11-10_18h21.04.406,uWM_experiment,2022.2.3,60.00456035
,,,,,,,,,,,,,,,,,,,,9,0,9,0,0,0,0,0,,,,,,,,,,,,,,,,,,,,,,,,,,,,,,,,,,,,,,,,,,,,,,,,,,,,,,,,,,,,,,,,,,,,,,0,,,,,,,,,,,,,,,,,,,,2591.444031,2592.144055,2592.444071,2593.1441,2593.444118,2594.144146,2594.144146,2594.460832,left,0,100,30,130,0,2598.811051,2598.811051,2598.811051,None,None,1,1,0.4034051,,,,,,,None,,,,,,,,,,,,,,,10,17,2,2024-11-10_18h21.04.406,uWM_experiment,2022.2.3,60.00456035
,,,,,,,,,,,,,,,,,,,,9,0,9,0,1,0,1,0,,,,,,,,,,,,,,,,,,,,,,,,,,,,,,,,,,,,,,,,,,,,,,,,,,,,,,,,,,,,,,,,,,,,,,0.075039171,,,,,,,,,,,,,,,,,,,,,,,,,,,,left,0,70,30,100,1,2604.444625,2604.444625,2604.444625,None,None,1,1,0.2260009,,,,,,,,,,,,,,,,,,,,,,10,17,2,2024-11-10_18h21.04.406,uWM_experiment,2022.2.3,60.00456035
,,,,,,,,,,,,,,,,,,,,9,0,9,0,2,0,2,0,,,,,,,,,,,,,,,,,,,,,,,,,,,,,,,,,,,,,,,,,,,,,,,,,,,,,,,,,,,,,,,,,,,,,,0.085039171,,,,,,,,,,,,,,,,,,,,,,,,,,,,right,1,40,30,70,1,2611.078269,2611.078269,2611.078269,None,None,2,0,0.5202048,,,,,,,,,,,,,,,,,,,,,,10,17,2,2024-11-10_18h21.04.406,uWM_experiment,2022.2.3,60.00456035
,,,,,,,,,,,,,,,,,,,,9,0,9,0,3,0,3,0,,,,,,,,,,,,,,,,,,,,,,,,,,,,,,,,,,,,,,,,,,,,,,,,,,,,,,,,,,,,,,,,,,,,,,0.075039171,,,,,,,,,,,,,,,,,,,,,,,,,,,,left,0,70,30,100,1,2617.011866,2617.011866,2617.011866,None,None,1,1,0.3066839,,,,,,,,,,,,,,,,,,,,,,10,17,2,2024-11-10_18h21.04.406,uWM_experiment,2022.2.3,60.00456035
,,,,,,,,,,,,,,,,,,,,9,0,9,0,4,0,4,0,,,,,,,,,,,,,,,,,,,,,,,,,,,,,,,,,,,,,,,,,,,,,,,,,,,,,,,,,,,,,,,,,,,,,,0.1,,,,,,,,,,,,,,,,,,,,,,,,,,,,right,1,40,30,70,2,2626.228946,2626.228946,2626.228946,None,None,3,0,1.2576271,,,,,,,,,,,,,,,,,,,,,,10,17,2,2024-11-10_18h21.04.406,uWM_experiment,2022.2.3,60.00456035
,,,,,,,,,,,,,,,,,,,,9,0,9,0,5,0,5,0,,,,,,,,,,,,,,,,,,,,,,,,,,,,,,,,,,,,,,,,,,,,,,,,,,,,,,,,,,,,,,,,,,,,,,0.085039171,,,,,,,,,,,,,,,,,,,,,,,,,,,,right,0,100,-30,70,1,2634.395975,2634.395975,2634.395975,None,None,2,0,0.8345514,,,,,,,,,,,,,,,,,,,,,,10,17,2,2024-11-10_18h21.04.406,uWM_experiment,2022.2.3,60.00456035
,,,,,,,,,,,,,,,,,,,,9,0,9,0,6,0,6,0,,,,,,,,,,,,,,,,,,,,,,,,,,,,,,,,,,,,,,,,,,,,,,,,,,,,,,,,,,,,,,,,,,,,,,0,,,,,,,,,,,,,,,,,,,,,,,,,,,,left,0,100,30,130,0,2640.362898,2640.362898,2640.362898,None,None,1,1,0.4355898,,,,,,,,,,,,,,,,,,,,,,10,17,2,2024-11-10_18h21.04.406,uWM_experiment,2022.2.3,60.00456035
,,,,,,,,,,,,,,,,,,,,9,0,9,0,7,0,7,0,,,,,,,,,,,,,,,,,,,,,,,,,,,,,,,,,,,,,,,,,,,,,,,,,,,,,,,,,,,,,,,,,,,,,,0.075039171,,,,,,,,,,,,,,,,,,,,,,,,,,,,left,1,130,-30,100,1,2654.096847,2654.096847,2654.096847,None,None,2,0,0.3657566,,,,,,,,,,,,,,,,,,,,,,10,17,2,2024-11-10_18h21.04.406,uWM_experiment,2022.2.3,60.00456035
,,,,,,,,,,,,,,,,,,,,9,0,9,0,8,0,8,0,,,,,,,,,,,,,,,,,,,,,,,,,,,,,,,,,,,,,,,,,,,,,,,,,,,,,,,,,,,,,,,,,,,,,,0.065039171,,,,,,,,,,,,,,,,,,,,,,,,,,,,left,0,10,30,40,1,2661.130527,2661.130527,2661.130527,None,None,2,0,0.2200021,,,,,,,,,,,,,,,,,,,,,,10,17,2,2024-11-10_18h21.04.406,uWM_experiment,2022.2.3,60.00456035
,,,,,,,,,,,,,,,,,,,,9,0,9,0,9,0,9,0,,,,,,,,,,,,,,,,,,,,,,,,,,,,,,,,,,,,,,,,,,,,,,,,,,,,,,,,,,,,,,,,,,,,,,0.055039171,,,,,,,,,,,,,,,,,,,,,,,,,,,,left,0,130,30,160,1,2666.514153,2666.514153,2666.514153,None,None,1,1,0.2604217,,,,,,,,,,,,,,,,,,,,,,10,17,2,2024-11-10_18h21.04.406,uWM_experiment,2022.2.3,60.00456035
,,,,,,,,,,,,,,,,,,,,9,0,9,0,10,0,10,0,,,,,,,,,,,,,,,,,,,,,,,,,,,,,,,,,,,,,,,,,,,,,,,,,,,,,,,,,,,,,,,,,,,,,,0.065039171,,,,,,,,,,,,,,,,,,,,,,,,,,,,right,1,160,30,190,1,2673.964422,2673.964422,2673.964422,None,None,2,0,22.7061823,,,,,,,,,,,,,,,,,,,,,,10,17,2,2024-11-10_18h21.04.406,uWM_experiment,2022.2.3,60.00456035
,,,,,,,,,,,,,,,,,,,,9,0,9,0,11,0,11,0,,,,,,,,,,,,,,,,,,,,,,,,,,,,,,,,,,,,,,,,,,,,,,,,,,,,,,,,,,,,,,,,,,,,,,0.055039171,,,,,,,,,,,,,,,,,,,,,,,,,,,,left,1,100,-30,70,1,2701.865699,2701.865699,2701.865699,None,None,1,1,0.3649687,,,,,,,,,,,,,,,,,,,,,,10,17,2,2024-11-10_18h21.04.406,uWM_experiment,2022.2.3,60.00456035
,,,,,,,,,,,,,,,,,,,,9,0,9,0,12,0,12,0,,,,,,,,,,,,,,,,,,,,,,,,,,,,,,,,,,,,,,,,,,,,,,,,,,,,,,,,,,,,,,,,,,,,,,0,,,,,,,,,,,,,,,,,,,,,,,,,,,,left,1,70,-30,40,0,2707.382623,2707.382623,2707.382623,None,None,1,1,0.3281097,,,,,,,,,,,,,,,,,,,,,,10,17,2,2024-11-10_18h21.04.406,uWM_experiment,2022.2.3,60.00456035
,,,,,,,,,,,,,,,,,,,,9,0,9,0,13,0,13,0,,,,,,,,,,,,,,,,,,,,,,,,,,,,,,,,,,,,,,,,,,,,,,,,,,,,,,,,,,,,,,,,,,,,,,0,,,,,,,,,,,,,,,,,,,,,,,,,,,,left,0,10,30,40,0,2712.83286,2712.83286,2712.83286,None,None,1,1,0.3498045,,,,,,,,,,,,,,,,,,,,,,10,17,2,2024-11-10_18h21.04.406,uWM_experiment,2022.2.3,60.00456035
,,,,,,,,,,,,,,,,,,,,9,0,9,0,14,0,14,0,,,,,,,,,,,,,,,,,,,,,,,,,,,,,,,,,,,,,,,,,,,,,,,,,,,,,,,,,,,,,,,,,,,,,,0,,,,,,,,,,,,,,,,,,,,,,,,,,,,left,0,10,30,40,0,2718.549793,2718.549793,2718.549793,None,None,1,1,0.248955,,,,,,,,,,,,,,,,,,,,,,10,17,2,2024-11-10_18h21.04.406,uWM_experiment,2022.2.3,60.00456035
,,,,,,,,,,,,,,,,,,,,9,0,9,0,15,0,15,0,,,,,,,,,,,,,,,,,,,,,,,,,,,,,,,,,,,,,,,,,,,,,,,,,,,,,,,,,,,,,,,,,,,,,,0,,,,,,,,,,,,,,,,,,,,,,,,,,,,left,1,40,-30,10,0,2723.983355,2723.983355,2723.983355,None,None,1,1,0.7273614,,,,,,,,,,,,,,,,,,,,,,10,17,2,2024-11-10_18h21.04.406,uWM_experiment,2022.2.3,60.00456035
,,,,,,,,,,,,,,,,,,,,9,0,9,0,16,0,16,0,,,,,,,,,,,,,,,,,,,,,,,,,,,,,,,,,,,,,,,,,,,,,,,,,,,,,,,,,,,,,,,,,,,,,,0.065039171,,,,,,,,,,,,,,,,,,,,,,,,,,,,left,1,160,-30,130,1,2729.816944,2729.816944,2729.816944,None,None,1,1,0.2536638,,,,,,,,,,,,,,,,,,,,,,10,17,2,2024-11-10_18h21.04.406,uWM_experiment,2022.2.3,60.00456035
,,,,,,,,,,,,,,,,,,,,9,0,9,0,17,0,17,0,,,,,,,,,,,,,,,,,,,,,,,,,,,,,,,,,,,,,,,,,,,,,,,,,,,,,,,,,,,,,,,,,,,,,,0.075039171,,,,,,,,,,,,,,,,,,,,,,,,,,,,left,1,70,-30,40,1,2735.21721,2735.21721,2735.21721,None,None,1,1,0.3255617,,,,,,,,,,,,,,,,,,,,,,10,17,2,2024-11-10_18h21.04.406,uWM_experiment,2022.2.3,60.00456035
,,,,,,,,,,,,,,,,,,,,9,0,9,0,18,0,18,0,,,,,,,,,,,,,,,,,,,,,,,,,,,,,,,,,,,,,,,,,,,,,,,,,,,,,,,,,,,,,,,,,,,,,,0.085039171,,,,,,,,,,,,,,,,,,,,,,,,,,,,left,1,100,-30,70,1,2740.850773,2740.850773,2740.850773,None,None,1,1,0.3718689,,,,,,,,,,,,,,,,,,,,,,10,17,2,2024-11-10_18h21.04.406,uWM_experiment,2022.2.3,60.00456035
,,,,,,,,,,,,,,,,,,,,9,0,9,0,19,0,19,0,,,,,,,,,,,,,,,,,,,,,,,,,,,,,,,,,,,,,,,,,,,,,,,,,,,,,,,,,,,,,,,,,,,,,,0.095039171,,,,,,,,,,,,,,,,,,,,,,,,,,,,left,1,160,-30,130,1,2746.417719,2746.417719,2746.417719,None,None,1,1,0.2369495,,,,,,,,,,,,,,,,,,,,,,10,17,2,2024-11-10_18h21.04.406,uWM_experiment,2022.2.3,60.00456035
,,,,,,,,,,,,,,,,,,,,9,0,9,0,20,0,20,0,,,,,,,,,,,,,,,,,,,,,,,,,,,,,,,,,,,,,,,,,,,,,,,,,,,,,,,,,,,,,,,,,,,,,,0.1,,,,,,,,,,,,,,,,,,,,,,,,,,,,left,1,130,-30,100,2,2756.71817,2756.71817,2756.71817,None,None,4,0,0.8405322,,,,,,,,,,,,,,,,,,,,,,10,17,2,2024-11-10_18h21.04.406,uWM_experiment,2022.2.3,60.00456035
,,,,,,,,,,,,,,,,,,,,9,0,9,0,21,0,21,0,,,,,,,,,,,,,,,,,,,,,,,,,,,,,,,,,,,,,,,,,,,,,,,,,,,,,,,,,,,,,,,,,,,,,,0.105039171,,,,,,,,,,,,,,,,,,,,,,,,,,,,left,1,130,-30,100,1,2764.518557,2764.518557,2764.518557,None,None,3,0,0.3922232,,,,,,,,,,,,,,,,,,,,,,10,17,2,2024-11-10_18h21.04.406,uWM_experiment,2022.2.3,60.00456035
,,,,,,,,,,,,,,,,,,,,9,0,9,0,22,0,22,0,,,,,,,,,,,,,,,,,,,,,,,,,,,,,,,,,,,,,,,,,,,,,,,,,,,,,,,,,,,,,,,,,,,,,,0.095039171,,,,,,,,,,,,,,,,,,,,,,,,,,,,left,1,160,-30,130,1,2771.402185,2771.402185,2771.402185,None,None,2,0,0.2685161,,,,,,,,,,,,,,,,,,,,,,10,17,2,2024-11-10_18h21.04.406,uWM_experiment,2022.2.3,60.00456035
,,,,,,,,,,,,,,,,,,,,9,0,9,0,23,0,23,0,,,,,,,,,,,,,,,,,,,,,,,,,,,,,,,,,,,,,,,,,,,,,,,,,,,,,,,,,,,,,,,,,,,,,,0.085039171,,,,,,,,,,,,,,,,,,,,,,,,,,,,left,1,160,-30,130,1,2777.702433,2777.702433,2777.702433,None,None,2,0,0.3763288,,,,,,,,,,,,,,,,,,,,,,10,17,2,2024-11-10_18h21.04.406,uWM_experiment,2022.2.3,60.00456035
,,,,,,,,,,,,,,,,,,,,9,0,9,0,,,,,0,0,0,0,,,,,,,,,,,,,,,,,,,,,,,,,,,,,,,,,,,,,,,,,,,,,,,,,,,,,,,,,,,,,,,,,,,,,,,,,,,,,,,,,,,,,,,,,,,,,,,,,,,,,,,,,,,,2778.102447,2778.102447,space,97.3284992,None,None,,,,,,,,,,,,,,,,10,17,2,2024-11-10_18h21.04.406,uWM_experiment,2022.2.3,60.00456035
,,,,,,,,,,,,,,,,,,,,9,0,9,0,,,,,1,0,1,0,,,,,,,,,,,,,,,,,,,,,,,,,,,,,,,,,,,,,,,,,,,,,,,,,,,,,,,,,,,,,,,,,,,,,,,,,,,,,,,,,,,,,,,,,,,,,,,,,,,,,,,,,,,,,,,,,,,,,,,,,,,,,,,,,10,17,2,2024-11-10_18h21.04.406,uWM_experiment,2022.2.3,60.00456035
,,,,,,,,,,,,,,,,,,,,9,0,9,0,,,,,2,0,2,0,,,,,,,,,,,,,,,,,,,,,,,,,,,,,,,,,,,,,,,,,,,,,,,,,,,,,,,,,,,,,,,,,,,,,,,,,,,,,,,,,,,,,,,,,,,,,,,,,,,,,,,,,,,,,,,,,,,,,,,,,,,,,,,,,10,17,2,2024-11-10_18h21.04.406,uWM_experiment,2022.2.3,60.00456035
,,,,,,,,,,,,,,,,,,,,10,0,10,0,0,0,0,0,,,,,,,,,,,,,,,,,,,,,,,,,,,,,,,,,,,,,,,,,,,,,,,,,,,,,,,,,,,,,,,,,,,,,,0.075039171,,,,,,,,,,,,,,,,,,,,2875.456855,2876.156884,2876.456896,2877.156915,2877.456947,2878.156969,2878.156969,2878.473665,left,1,100,-30,70,1,2882.57385,2882.57385,2882.57385,None,None,1,1,2.4251158,,,,,,,None,,,,,,,,,,,,,,,10,17,2,2024-11-10_18h21.04.406,uWM_experiment,2022.2.3,60.00456035
,,,,,,,,,,,,,,,,,,,,10,0,10,0,1,0,1,0,,,,,,,,,,,,,,,,,,,,,,,,,,,,,,,,,,,,,,,,,,,,,,,,,,,,,,,,,,,,,,,,,,,,,,0.085039171,,,,,,,,,,,,,,,,,,,,,,,,,,,,left,1,130,-30,100,1,2892.5243,2892.5243,2892.5243,None,None,3,0,0.8667907,,,,,,,,,,,,,,,,,,,,,,10,17,2,2024-11-10_18h21.04.406,uWM_experiment,2022.2.3,60.00456035
,,,,,,,,,,,,,,,,,,,,10,0,10,0,2,0,2,0,,,,,,,,,,,,,,,,,,,,,,,,,,,,,,,,,,,,,,,,,,,,,,,,,,,,,,,,,,,,,,,,,,,,,,0.075039171,,,,,,,,,,,,,,,,,,,,,,,,,,,,left,1,70,-30,40,1,2899.541282,2899.541282,2899.541282,None,None,3,0,7.849722,,,,,,,,,,,,,,,,,,,,,,10,17,2,2024-11-10_18h21.04.406,uWM_experiment,2022.2.3,60.00456035
,,,,,,,,,,,,,,,,,,,,10,0,10,0,3,0,3,0,,,,,,,,,,,,,,,,,,,,,,,,,,,,,,,,,,,,,,,,,,,,,,,,,,,,,,,,,,,,,,,,,,,,,,0.065039171,,,,,,,,,,,,,,,,,,,,,,,,,,,,left,1,40,-30,10,1,2913.441929,2913.441929,2913.441929,None,None,3,0,1.093032,,,,,,,,,,,,,,,,,,,,,,10,17,2,2024-11-10_18h21.04.406,uWM_experiment,2022.2.3,60.00456035
,,,,,,,,,,,,,,,,,,,,10,0,10,0,4,0,4,0,,,,,,,,,,,,,,,,,,,,,,,,,,,,,,,,,,,,,,,,,,,,,,,,,,,,,,,,,,,,,,,,,,,,,,0.055039171,,,,,,,,,,,,,,,,,,,,,,,,,,,,left,1,70,-30,40,1,2919.69221,2919.69221,2919.69221,None,None,1,1,0.3308261,,,,,,,,,,,,,,,,,,,,,,10,17,2,2024-11-10_18h21.04.406,uWM_experiment,2022.2.3,60.00456035
,,,,,,,,,,,,,,,,,,,,10,0,10,0,5,0,5,0,,,,,,,,,,,,,,,,,,,,,,,,,,,,,,,,,,,,,,,,,,,,,,,,,,,,,,,,,,,,,,,,,,,,,,0.1,,,,,,,,,,,,,,,,,,,,,,,,,,,,left,0,70,30,100,2,2927.542527,2927.542527,2927.542527,None,None,4,0,0.2803932,,,,,,,,,,,,,,,,,,,,,,10,17,2,2024-11-10_18h21.04.406,uWM_experiment,2022.2.3,60.00456035
,,,,,,,,,,,,,,,,,,,,10,0,10,0,6,0,6,0,,,,,,,,,,,,,,,,,,,,,,,,,,,,,,,,,,,,,,,,,,,,,,,,,,,,,,,,,,,,,,,,,,,,,,0.1,,,,,,,,,,,,,,,,,,,,,,,,,,,,left,1,40,-30,10,2,2934.57621,2934.57621,2934.57621,None,None,4,0,0.3907175,,,,,,,,,,,,,,,,,,,,,,10,17,2,2024-11-10_18h21.04.406,uWM_experiment,2022.2.3,60.00456035
,,,,,,,,,,,,,,,,,,,,10,0,10,0,7,0,7,0,,,,,,,,,,,,,,,,,,,,,,,,,,,,,,,,,,,,,,,,,,,,,,,,,,,,,,,,,,,,,,,,,,,,,,0.065039171,,,,,,,,,,,,,,,,,,,,,,,,,,,,left,0,130,30,160,1,2940.926478,2940.926478,2940.926478,None,None,2,0,0.3765805,,,,,,,,,,,,,,,,,,,,,,10,17,2,2024-11-10_18h21.04.406,uWM_experiment,2022.2.3,60.00456035
,,,,,,,,,,,,,,,,,,,,10,0,10,0,8,0,8,0,,,,,,,,,,,,,,,,,,,,,,,,,,,,,,,,,,,,,,,,,,,,,,,,,,,,,,,,,,,,,,,,,,,,,,0.055039171,,,,,,,,,,,,,,,,,,,,,,,,,,,,left,1,100,-30,70,1,2946.493398,2946.493398,2946.493398,None,None,1,1,0.3135686,,,,,,,,,,,,,,,,,,,,,,10,17,2,2024-11-10_18h21.04.406,uWM_experiment,2022.2.3,60.00456035
,,,,,,,,,,,,,,,,,,,,10,0,10,0,9,0,9,0,,,,,,,,,,,,,,,,,,,,,,,,,,,,,,,,,,,,,,,,,,,,,,,,,,,,,,,,,,,,,,,,,,,,,,0.065039171,,,,,,,,,,,,,,,,,,,,,,,,,,,,left,1,100,-30,70,1,2952.277001,2952.277001,2952.277001,None,None,1,1,0.4099836,,,,,,,,,,,,,,,,,,,,,,10,17,2,2024-11-10_18h21.04.406,uWM_experiment,2022.2.3,60.00456035
,,,,,,,,,,,,,,,,,,,,10,0,10,0,10,0,10,0,,,,,,,,,,,,,,,,,,,,,,,,,,,,,,,,,,,,,,,,,,,,,,,,,,,,,,,,,,,,,,,,,,,,,,0.075039171,,,,,,,,,,,,,,,,,,,,,,,,,,,,left,1,40,-30,10,1,2958.3606,2958.3606,2958.3606,None,None,1,1,0.5664179,,,,,,,,,,,,,,,,,,,,,,10,17,2,2024-11-10_18h21.04.406,uWM_experiment,2022.2.3,60.00456035
,,,,,,,,,,,,,,,,,,,,10,0,10,0,11,0,11,0,,,,,,,,,,,,,,,,,,,,,,,,,,,,,,,,,,,,,,,,,,,,,,,,,,,,,,,,,,,,,,,,,,,,,,0.085039171,,,,,,,,,,,,,,,,,,,,,,,,,,,,left,1,160,-30,130,1,2966.610981,2966.610981,2966.610981,None,None,3,0,10.7000939,,,,,,,,,,,,,,,,,,,,,,10,17,2,2024-11-10_18h21.04.406,uWM_experiment,2022.2.3,60.00456035
,,,,,,,,,,,,,,,,,,,,10,0,10,0,12,0,12,0,,,,,,,,,,,,,,,,,,,,,,,,,,,,,,,,,,,,,,,,,,,,,,,,,,,,,,,,,,,,,,,,,,,,,,0.075039171,,,,,,,,,,,,,,,,,,,,,,,,,,,,left,1,130,-30,100,1,2982.445044,2982.445044,2982.445044,None,None,1,1,0.345983,,,,,,,,,,,,,,,,,,,,,,10,17,2,2024-11-10_18h21.04.406,uWM_experiment,2022.2.3,60.00456035
,,,,,,,,,,,,,,,,,,,,10,0,10,0,13,0,13,0,,,,,,,,,,,,,,,,,,,,,,,,,,,,,,,,,,,,,,,,,,,,,,,,,,,,,,,,,,,,,,,,,,,,,,0,,,,,,,,,,,,,,,,,,,,,,,,,,,,left,1,40,-30,10,0,2987.945289,2987.945289,2987.945289,None,None,1,1,0.4137484,,,,,,,,,,,,,,,,,,,,,,10,17,2,2024-11-10_18h21.04.406,uWM_experiment,2022.2.3,60.00456035
