PreTrainingPAS4_loop.thisRepN,PreTrainingPAS4_loop.thisTrialN,PreTrainingPAS4_loop.thisN,PreTrainingPAS4_loop.thisIndex,PreTrainingPAS1_loop.thisRepN,PreTrainingPAS1_loop.thisTrialN,PreTrainingPAS1_loop.thisN,PreTrainingPAS1_loop.thisIndex,RepeatCV_loop.thisRepN,RepeatCV_loop.thisTrialN,RepeatCV_loop.thisN,RepeatCV_loop.thisIndex,TrainingCV_loop.thisRepN,TrainingCV_loop.thisTrialN,TrainingCV_loop.thisN,TrainingCV_loop.thisIndex,TrainingCAL_loop.thisRepN,TrainingCAL_loop.thisTrialN,TrainingCAL_loop.thisN,TrainingCAL_loop.thisIndex,blocks_loop.thisRepN,blocks_loop.thisTrialN,blocks_loop.thisN,blocks_loop.thisIndex,trials_loop.thisRepN,trials_loop.thisTrialN,trials_loop.thisN,trials_loop.thisIndex,TrainingPAS1_loop.thisRepN,TrainingPAS1_loop.thisTrialN,TrainingPAS1_loop.thisN,TrainingPAS1_loop.thisIndex,spacebarWelcome0.started,spacebarWelcome0.keys,spacebarWelcome0.rt,spacebarWelcome1.started,gaborWelcome1.started,maskWelcome1.started,textMaskWelcome1.started,spacebarWelcome1.keys,spacebarWelcome1.rt,spacebarWelcome2.started,spacebarWelcome2.keys,spacebarWelcome2.rt,textInst_PreTrainingPAS4.started,spacebarPreTrainingPAS4.started,spacebarPreTrainingPAS4.keys,spacebarPreTrainingPAS4.rt,textPreTrainingPAS1.started,spacebarPreTrainingPAS1.started,spacebarPreTrainingPAS1.keys,spacebarPreTrainingPAS1.rt,textQUEST0.started,spacebarQUEST0.started,spacebarQUEST0.keys,spacebarQUEST0.rt,spacebar0.started,spacebar0.keys,spacebar0.rt,spacebar1.started,spacebar1.keys,spacebar1.rt,textInstructions2.started,spacebar2.started,Gabor1Inst2.started,Gabor2Inst2.started,Gabor3Inst2.started,Gabor4Inst2.started,spacebar2.keys,spacebar2.rt,textInstructionsPAS.started,spacebarInstPAS.started,spacebarInstPAS.keys,spacebarInstPAS.rt,textInstructions3.started,spacebar3.started,spacebar3.keys,spacebar3.rt,WMresp_CV,WMresp_CV_acc,oriMemo_CV,gyre_CV,oriTest_CV,feedbackText.started,feedbackText.stopped,sliderCV.started,PAStextCV.started,PASkeyCV.started,sliderCV.response,sliderCV.rt,PASkeyCV.keys,PASkeyCV.corr,PASkeyCV.rt,TextInstructionsCAL.started,spacebarCAL.started,spacebarCAL.keys,spacebarCAL.rt,contrast,WMresp_CAL,WMresp_CAL_acc,oriMemo_CAL,gyre_CAL,oriTest_CAL,cue_CAL,sliderCAL.started,PAStextCAL.started,PASkeyCAL.started,sliderCAL.response,sliderCAL.rt,PASkeyCAL.keys,PASkeyCAL.corr,PASkeyCAL.rt,propUnseen_CAL,textStart.started,spacebar4.started,spacebar4.keys,spacebar4.rt,three.started,three.stopped,two.started,two.stopped,one.started,one.stopped,blank_countdown.started,blank_countdown.stopped,WMresp,WMresp_acc,oriMemo,gyre,oriTest,cue,slider.started,textPAS_firstGabor.started,PASkey.started,slider.response,slider.rt,PASkey.keys,PASkey.corr,PASkey.rt,spacebarContinue.started,textBreak.started,spacebarContinue.keys,spacebarContinue.rt,spacebar_reminder.keys,spacebar_TrainingPAS1.keys,spacebar_endpractice.keys,spacebar_reminder.started,textReminder.started,spacebar_reminder.rt,textInst_TrainingPAS1.started,spacebar_TrainingPAS1.started,spacebar_TrainingPAS1.rt,textend_practicePAS1.started,spacebar_endpractice.started,spacebar_endpractice.rt,textThanks.started,textThanks.stopped,laboratory,participant,session,date,expName,psychopyVersion,frameRate
,,,,,,,,,,,,,,,,,,,,,,,,,,,,,,,,660.0812619,space,2.5233327,,,,,,,,,,,,,,,,,,,,,,,,,,,,,,,,,,,,,,,,,,,,,,,,,,,,,,,,,,,,,,,,,,,,,,,,,,,,,,,,,,,,,,,,,,,,,,,,,,,,,,,,,,,,,,,,,,,,,,,,,,,10,17,1,2024-10-30_16h43.01.470,uWM_experiment,2022.2.3,59.99548834
,,,,,,,,,,,,,,,,,,,,,,,,,,,,,,,,,,,662.6478457,662.6478457,662.6478457,662.6478457,space,27.5247727,,,,,,,,,,,,,,,,,,,,,,,,,,,,,,,,,,,,,,,,,,,,,,,,,,,,,,,,,,,,,,,,,,,,,,,,,,,,,,,,,,,,,,,,,,,,,,,,,,,,,,,,,,,,,,,,,,,,,10,17,1,2024-10-30_16h43.01.470,uWM_experiment,2022.2.3,59.99548834
,,,,,,,,,,,,,,,,,,,,,,,,,,,,,,,,,,,,,,,,,690.1990823,space,46.4614881,,,,,,,,,,,,,,,,,,,,,,,,,,,,,,,,,,,,,,,,,,,,,,,,,,,,,,,,,,,,,,,,,,,,,,,,,,,,,,,,,,,,,,,,,,,,,,,,,,,,,,,,,,,,,,,,,,10,17,1,2024-10-30_16h43.01.470,uWM_experiment,2022.2.3,59.99548834
,,,,,,,,,,,,,,,,,,,,,,,,,,,,,,,,,,,,,,,,,,,,736.6844326,736.6844326,space,24.080211,,,,,,,,,,,,,,,,,,,,,,,,,,,,,,,,,,,,,,,,,,,,,,,,,,,,,,,,,,,,,,,,,,,,,,,,,,,,,,,,,,,,,,,,,,,,,,,,,,,,,,,,,,,,,,10,17,1,2024-10-30_16h43.01.470,uWM_experiment,2022.2.3,59.99548834
0,0,0,0,,,,,,,,,,,,,,,,,,,,,,,,,,,,,,,,,,,,,,,,,,,,,,,,,,,,,,,,,,,,,,,,,,,,,,,,,,,,,,,,,,,,,,,,,,,,,,,,,,,,,,,,,,,,,,,,,,,,,,,,,,,,,,,,,,,,,,,,,,,,,,,,,,,,,,,,,,10,17,1,2024-10-30_16h43.01.470,uWM_experiment,2022.2.3,59.99548834
1,0,1,0,,,,,,,,,,,,,,,,,,,,,,,,,,,,,,,,,,,,,,,,,,,,,,,,,,,,,,,,,,,,,,,,,,,,,,,,,,,,,,,,,,,,,,,,,,,,,,,,,,,,,,,,,,,,,,,,,,,,,,,,,,,,,,,,,,,,,,,,,,,,,,,,,,,,,,,,,,10,17,1,2024-10-30_16h43.01.470,uWM_experiment,2022.2.3,59.99548834
2,0,2,0,,,,,,,,,,,,,,,,,,,,,,,,,,,,,,,,,,,,,,,,,,,,,,,,,,,,,,,,,,,,,,,,,,,,,,,,,,,,,,,,,,,,,,,,,,,,,,,,,,,,,,,,,,,,,,,,,,,,,,,,,,,,,,,,,,,,,,,,,,,,,,,,,,,,,,,,,,10,17,1,2024-10-30_16h43.01.470,uWM_experiment,2022.2.3,59.99548834
,,,,,,,,,,,,,,,,,,,,,,,,,,,,,,,,,,,,,,,,,,,,,,,,768.4858512,768.4858512,space,49.0547913,,,,,,,,,,,,,,,,,,,,,,,,,,,,,,,,,,,,,,,,,,,,,,,,,,,,,,,,,,,,,,,,,,,,,,,,,,,,,,,,,,,,,,,,,,,,,,,,,,,,,,,,,,10,17,1,2024-10-30_16h43.01.470,uWM_experiment,2022.2.3,59.99548834
,,,,0,0,0,0,,,,,,,,,,,,,,,,,,,,,,,,,,,,,,,,,,,,,,,,,,,,,,,,,,,,,,,,,,,,,,,,,,,,,,,,,,,,,,,,,,,,,,,,,,,,,,,,,,,,,,,,,,,,,,,,,,,,,,,,,,,,,,,,,,,,,,,,,,,,,,,,,,,,,,10,17,1,2024-10-30_16h43.01.470,uWM_experiment,2022.2.3,59.99548834
,,,,1,0,1,0,,,,,,,,,,,,,,,,,,,,,,,,,,,,,,,,,,,,,,,,,,,,,,,,,,,,,,,,,,,,,,,,,,,,,,,,,,,,,,,,,,,,,,,,,,,,,,,,,,,,,,,,,,,,,,,,,,,,,,,,,,,,,,,,,,,,,,,,,,,,,,,,,,,,,,10,17,1,2024-10-30_16h43.01.470,uWM_experiment,2022.2.3,59.99548834
,,,,2,0,2,0,,,,,,,,,,,,,,,,,,,,,,,,,,,,,,,,,,,,,,,,,,,,,,,,,,,,,,,,,,,,,,,,,,,,,,,,,,,,,,,,,,,,,,,,,,,,,,,,,,,,,,,,,,,,,,,,,,,,,,,,,,,,,,,,,,,,,,,,,,,,,,,,,,,,,,10,17,1,2024-10-30_16h43.01.470,uWM_experiment,2022.2.3,59.99548834
,,,,,,,,,,,,,,,,,,,,,,,,,,,,,,,,,,,,,,,,,,,,,,,,,,,,828.7218746,828.7218746,space,55.0827547,,,,,,,,,,,,,,,,,,,,,,,,,,,,,,,,,,,,,,,,,,,,,,,,,,,,,,,,,,,,,,,,,,,,,,,,,,,,,,,,,,,,,,,,,,,,,,,,,,,,,,10,17,1,2024-10-30_16h43.01.470,uWM_experiment,2022.2.3,59.99548834
,,,,,,,,,,,,,,,,,,,,,,,,,,,,,,,,,,,,,,,,,,,,,,,,,,,,,,,,1036.81456,space,95.6062451,,,,,,,,,,,,,,,,,,,,,,,,,,,,,,,,,,,,,,,,,,,,,,,,,,,,,,,,,,,,,,,,,,,,,,,,,,,,,,,,,,,,,,,,,,,,,,,,,,,10,17,1,2024-10-30_16h43.01.470,uWM_experiment,2022.2.3,59.99548834
,,,,,,,,,,,,,,,,,,,,,,,,,,,,,,,,,,,,,,,,,,,,,,,,,,,,,,,,,,,1132.452139,space,60.1046487,,,,,,,,,,,,,,,,,,,,,,,,,,,,,,,,,,,,,,,,,,,,,,,,,,,,,,,,,,,,,,,,,,,,,,,,,,,,,,,,,,,,,,,,,,,,,,,,10,17,1,2024-10-30_16h43.01.470,uWM_experiment,2022.2.3,59.99548834
,,,,,,,,,,,,,,,,,,,,,,,,,,,,,,,,,,,,,,,,,,,,,,,,,,,,,,,,,,,,,,1192.588203,1192.588203,1192.588203,1192.588203,1192.588203,1192.588203,space,62.4806853,,,,,,,,,,,,,,,,,,,,,,,,,,,,,,,,,,,,,,,,,,,,,,,,,,,,,,,,,,,,,,,,,,,,,,,,,,,,,,,,,,,,,,,,10,17,1,2024-10-30_16h43.01.470,uWM_experiment,2022.2.3,59.99548834
,,,,,,,,,,,,,,,,,,,,,,,,,,,,,,,,,,,,,,,,,,,,,,,,,,,,,,,,,,,,,,,,,,,,,,1255.090988,1255.090988,space,24.4897947,,,,,,,,,,,,,,,,,,,,,,,,,,,,,,,,,,,,,,,,,,,,,,,,,,,,,,,,,,,,,,,,,,,,,,,,,,,,,,,,,,,,10,17,1,2024-10-30_16h43.01.470,uWM_experiment,2022.2.3,59.99548834
,,,,,,,,,,,,,,,,,,,,,,,,,,,,,,,,,,,,,,,,,,,,,,,,,,,,,,,,,,,,,,,,,,,,,,,,,,1279.608748,1279.608748,space,50.8601497,,,,,,,,,,,,,,,,,,,,,,,,,,,,,,,,,,,,,,,,,,,,,,,,,,,,,,,,,,,,,,,,,,,,,,,,,,,,,,,,10,17,1,2024-10-30_16h43.01.470,uWM_experiment,2022.2.3,59.99548834
,,,,,,,,0,0,0,0,0,0,0,0,,,,,,,,,,,,,,,,,,,,,,,,,,,,,,,,,,,,,,,,,,,,,,,,,,,,,,,,,,,,,,,left,1,70,-30,40,1354.345455,1355.345493,1355.345493,1355.345493,1355.345493,None,None,4,0,8.5073702,,,,,,,,,,,,,,,,,,,,,,,,,,,,,,,,,,,,,,,,,,,,,,,,,,,,,,,,,,,,,,,,,10,17,1,2024-10-30_16h43.01.470,uWM_experiment,2022.2.3,59.99548834
,,,,,,,,0,0,0,0,1,0,1,0,,,,,,,,,,,,,,,,,,,,,,,,,,,,,,,,,,,,,,,,,,,,,,,,,,,,,,,,,,,,,,,left,0,130,30,160,1372.179564,1373.179642,1373.179642,1373.179642,1373.179642,None,None,3,0,5.0011822,,,,,,,,,,,,,,,,,,,,,,,,,,,,,,,,,,,,,,,,,,,,,,,,,,,,,,,,,,,,,,,,,10,17,1,2024-10-30_16h43.01.470,uWM_experiment,2022.2.3,59.99548834
,,,,,,,,0,0,0,0,2,0,2,0,,,,,,,,,,,,,,,,,,,,,,,,,,,,,,,,,,,,,,,,,,,,,,,,,,,,,,,,,,,,,,,left,1,40,-30,10,1387.696969,1388.696983,1388.696983,1388.696983,1388.696983,None,None,1,1,4.0839637,,,,,,,,,,,,,,,,,,,,,,,,,,,,,,,,,,,,,,,,,,,,,,,,,,,,,,,,,,,,,,,,,10,17,1,2024-10-30_16h43.01.470,uWM_experiment,2022.2.3,59.99548834
,,,,,,,,0,0,0,0,3,0,3,0,,,,,,,,,,,,,,,,,,,,,,,,,,,,,,,,,,,,,,,,,,,,,,,,,,,,,,,,,,,,,,,right,0,10,-30,-20,1402.564292,1403.564314,1403.564314,1403.564314,1403.564314,None,None,3,0,5.6166691,,,,,,,,,,,,,,,,,,,,,,,,,,,,,,,,,,,,,,,,,,,,,,,,,,,,,,,,,,,,,,,,,10,17,1,2024-10-30_16h43.01.470,uWM_experiment,2022.2.3,59.99548834
,,,,,,,,0,0,0,0,4,0,4,0,,,,,,,,,,,,,,,,,,,,,,,,,,,,,,,,,,,,,,,,,,,,,,,,,,,,,,,,,,,,,,,right,1,100,30,130,1434.865756,1435.865767,1435.865767,1435.865767,1435.865767,None,None,3,0,2.5870831,,,,,,,,,,,,,,,,,,,,,,,,,,,,,,,,,,,,,,,,,,,,,,,,,,,,,,,,,,,,,,,,,10,17,1,2024-10-30_16h43.01.470,uWM_experiment,2022.2.3,59.99548834
,,,,,,,,0,0,0,0,5,0,5,0,,,,,,,,,,,,,,,,,,,,,,,,,,,,,,,,,,,,,,,,,,,,,,,,,,,,,,,,,,,,,,,right,0,130,-30,100,1448.833018,,1449.83306,1449.83306,1449.83306,None,None,3,0,2.2278946,,,,,,,,,,,,,,,,,,,,,,,,,,,,,,,,,,,,,,,,,,,,,,,,,,,,,,,,,,,,,,,,,10,17,1,2024-10-30_16h43.01.470,uWM_experiment,2022.2.3,59.99548834
,,,,,,,,0,0,0,0,6,0,6,0,,,,,,,,,,,,,,,,,,,,,,,,,,,,,,,,,,,,,,,,,,,,,,,,,,,,,,,,,,,,,,,left,1,40,-30,10,1458.633439,,1459.63348,1459.63348,1459.63348,None,None,2,0,1.6674621,,,,,,,,,,,,,,,,,,,,,,,,,,,,,,,,,,,,,,,,,,,,,,,,,,,,,,,,,,,,,,,,,10,17,1,2024-10-30_16h43.01.470,uWM_experiment,2022.2.3,59.99548834
,,,,,,,,0,0,0,0,7,0,7,0,,,,,,,,,,,,,,,,,,,,,,,,,,,,,,,,,,,,,,,,,,,,,,,,,,,,,,,,,,,,,,,left,1,160,-30,130,1468.350567,,1469.350597,1469.350597,1469.350597,None,None,1,1,1.414329,,,,,,,,,,,,,,,,,,,,,,,,,,,,,,,,,,,,,,,,,,,,,,,,,,,,,,,,,,,,,,,,,10,17,1,2024-10-30_16h43.01.470,uWM_experiment,2022.2.3,59.99548834
,,,,,,,,0,0,0,0,8,0,8,0,,,,,,,,,,,,,,,,,,,,,,,,,,,,,,,,,,,,,,,,,,,,,,,,,,,,,,,,,,,,,,,left,1,130,-30,100,1479.484408,1480.484453,1480.484453,1480.484453,1480.484453,None,None,4,0,9.1044247,,,,,,,,,,,,,,,,,,,,,,,,,,,,,,,,,,,,,,,,,,,,,,,,,,,,,,,,,,,,,,,,,10,17,1,2024-10-30_16h43.01.470,uWM_experiment,2022.2.3,59.99548834
,,,,,,,,0,0,0,0,9,0,9,0,,,,,,,,,,,,,,,,,,,,,,,,,,,,,,,,,,,,,,,,,,,,,,,,,,,,,,,,,,,,,,,right,1,10,30,40,1495.918455,1496.918561,1496.918561,1496.918561,1496.918561,None,None,4,0,1.5904387,,,,,,,,,,,,,,,,,,,,,,,,,,,,,,,,,,,,,,,,,,,,,,,,,,,,,,,,,,,,,,,,,10,17,1,2024-10-30_16h43.01.470,uWM_experiment,2022.2.3,59.99548834
,,,,,,,,0,0,0,0,10,0,10,0,,,,,,,,,,,,,,,,,,,,,,,,,,,,,,,,,,,,,,,,,,,,,,,,,,,,,,,,,,,,,,,right,1,70,30,100,1505.185585,1506.185584,1506.185584,1506.185584,1506.185584,None,None,4,0,0.6274648,,,,,,,,,,,,,,,,,,,,,,,,,,,,,,,,,,,,,,,,,,,,,,,,,,,,,,,,,,,,,,,,,10,17,1,2024-10-30_16h43.01.470,uWM_experiment,2022.2.3,59.99548834
,,,,,,,,0,0,0,0,11,0,11,0,,,,,,,,,,,,,,,,,,,,,,,,,,,,,,,,,,,,,,,,,,,,,,,,,,,,,,,,,,,,,,,right,1,100,30,130,1513.452565,1514.452616,1514.452616,1514.452616,1514.452616,None,None,4,0,0.3443373,,,,,,,,,,,,,,,,,,,,,,,,,,,,,,,,,,,,,,,,,,,,,,,,,,,,,,,,,,,,,,,,,10,17,1,2024-10-30_16h43.01.470,uWM_experiment,2022.2.3,59.99548834
,,,,,,,,0,0,0,0,,,,,,,,,,,,,,,,,,,,,,,,,,,,,,,,,,,,,,,,,,,,,,,,,,,,,,,,,,,,,,,,,,,,,,,,,,,,,,,,,,,,,,,,,,,,,,,,,,,,,,,,,,,,,,,,,,,,,,,,,,,,,,,,,,,,,,,,,,,,,,,,,,10,17,1,2024-10-30_16h43.01.470,uWM_experiment,2022.2.3,59.99548834
,,,,,,,,,,,,,,,,,,,,,,,,,,,,,,,,,,,,,,,,,,,,,,,,,,,,,,,,,,,,,,,,,,,,,,,,,,,,,,,,,,,,,,,,,,,,,1540.853807,1540.853807,space,58.9192934,,,,,,,,,,,,,,,,,,,,,,,,,,,,,,,,,,,,,,,,,,,,,,,,,,,,,,,,,,,,,10,17,1,2024-10-30_16h43.01.470,uWM_experiment,2022.2.3,59.99548834
,,,,,,,,,,,,,,,,0,0,0,0,,,,,,,,,,,,,,,,,,,,,,,,,,,,,,,,,,,,,,,,,,,,,,,,,,,,,,,,,,,,,,,,,,,,,,,,,,,,,,0.205094365,right,0,130,-30,100,1,1609.440196,1609.440196,1609.440196,None,None,3,0,2.996859,,,,,,,,,,,,,,,,,,,,,,,,,,,,,,,,,,,,,,,,,,,,,,10,17,1,2024-10-30_16h43.01.470,uWM_experiment,2022.2.3,59.99548834
,,,,,,,,,,,,,,,,1,0,1,0,,,,,,,,,,,,,,,,,,,,,,,,,,,,,,,,,,,,,,,,,,,,,,,,,,,,,,,,,,,,,,,,,,,,,,,,,,,,,,0.1,left,0,70,30,100,2,1619.85732,1619.85732,1619.85732,None,None,2,0,5.2277406,0,,,,,,,,,,,,,,,,,,,,,,,,,,,,,,,,,,,,,,,,,,,,,10,17,1,2024-10-30_16h43.01.470,uWM_experiment,2022.2.3,59.99548834
,,,,,,,,,,,,,,,,2,0,2,0,,,,,,,,,,,,,,,,,,,,,,,,,,,,,,,,,,,,,,,,,,,,,,,,,,,,,,,,,,,,,,,,,,,,,,,,,,,,,,0.195094365,left,1,70,-30,40,1,1631.474513,1631.474513,1631.474513,None,None,3,0,5.3065047,0,,,,,,,,,,,,,,,,,,,,,,,,,,,,,,,,,,,,,,,,,,,,,10,17,1,2024-10-30_16h43.01.470,uWM_experiment,2022.2.3,59.99548834
,,,,,,,,,,,,,,,,3,0,3,0,,,,,,,,,,,,,,,,,,,,,,,,,,,,,,,,,,,,,,,,,,,,,,,,,,,,,,,,,,,,,,,,,,,,,,,,,,,,,,0.1,left,1,10,-30,-20,2,1643.708404,1643.708404,1643.708404,None,None,4,0,1.8885641,0,,,,,,,,,,,,,,,,,,,,,,,,,,,,,,,,,,,,,,,,,,,,,10,17,1,2024-10-30_16h43.01.470,uWM_experiment,2022.2.3,59.99548834
,,,,,,,,,,,,,,,,4,0,4,0,,,,,,,,,,,,,,,,,,,,,,,,,,,,,,,,,,,,,,,,,,,,,,,,,,,,,,,,,,,,,,,,,,,,,,,,,,,,,,0.1,right,1,40,30,70,2,1651.908776,1651.908776,1651.908776,None,None,4,0,2.0562115,0,,,,,,,,,,,,,,,,,,,,,,,,,,,,,,,,,,,,,,,,,,,,,10,17,1,2024-10-30_16h43.01.470,uWM_experiment,2022.2.3,59.99548834
,,,,,,,,,,,,,,,,5,0,5,0,,,,,,,,,,,,,,,,,,,,,,,,,,,,,,,,,,,,,,,,,,,,,,,,,,,,,,,,,,,,,,,,,,,,,,,,,,,,,,0.1,left,1,160,-30,130,2,1661.992558,1661.992558,1661.992558,None,None,3,0,4.2605027,0,,,,,,,,,,,,,,,,,,,,,,,,,,,,,,,,,,,,,,,,,,,,,10,17,1,2024-10-30_16h43.01.470,uWM_experiment,2022.2.3,59.99548834
,,,,,,,,,,,,,,,,6,0,6,0,,,,,,,,,,,,,,,,,,,,,,,,,,,,,,,,,,,,,,,,,,,,,,,,,,,,,,,,,,,,,,,,,,,,,,,,,,,,,,0.185094365,left,1,130,-30,100,1,1672.426371,1672.426371,1672.426371,None,None,3,0,1.3307134,0,,,,,,,,,,,,,,,,,,,,,,,,,,,,,,,,,,,,,,,,,,,,,10,17,1,2024-10-30_16h43.01.470,uWM_experiment,2022.2.3,59.99548834
,,,,,,,,,,,,,,,,7,0,7,0,,,,,,,,,,,,,,,,,,,,,,,,,,,,,,,,,,,,,,,,,,,,,,,,,,,,,,,,,,,,,,,,,,,,,,,,,,,,,,0.1,left,1,40,-30,10,2,1679.993378,1679.993378,1679.993378,None,None,3,0,2.0516066,0,,,,,,,,,,,,,,,,,,,,,,,,,,,,,,,,,,,,,,,,,,,,,10,17,1,2024-10-30_16h43.01.470,uWM_experiment,2022.2.3,59.99548834
,,,,,,,,,,,,,,,,8,0,8,0,,,,,,,,,,,,,,,,,,,,,,,,,,,,,,,,,,,,,,,,,,,,,,,,,,,,,,,,,,,,,,,,,,,,,,,,,,,,,,0.175094365,left,0,160,30,190,1,1691.377221,1691.377221,1691.377221,None,None,1,1,1.0598726,0,,,,,,,,,,,,,,,,,,,,,,,,,,,,,,,,,,,,,,,,,,,,,10,17,1,2024-10-30_16h43.01.470,uWM_experiment,2022.2.3,59.99548834
,,,,,,,,,,,,,,,,9,0,9,0,,,,,,,,,,,,,,,,,,,,,,,,,,,,,,,,,,,,,,,,,,,,,,,,,,,,,,,,,,,,,,,,,,,,,,,,,,,,,,0.185094365,right,1,10,30,40,1,1698.627529,1698.627529,1698.627529,None,None,3,0,1.9456113,0.111111111,,,,,,,,,,,,,,,,,,,,,,,,,,,,,,,,,,,,,,,,,,,,,10,17,1,2024-10-30_16h43.01.470,uWM_experiment,2022.2.3,59.99548834
,,,,,,,,,,,,,,,,10,0,10,0,,,,,,,,,,,,,,,,,,,,,,,,,,,,,,,,,,,,,,,,,,,,,,,,,,,,,,,,,,,,,,,,,,,,,,,,,,,,,,0.175094365,left,1,100,-30,70,1,1708.794668,1708.794668,1708.794668,None,None,3,0,3.4505221,0.1,,,,,,,,,,,,,,,,,,,,,,,,,,,,,,,,,,,,,,,,,,,,,10,17,1,2024-10-30_16h43.01.470,uWM_experiment,2022.2.3,59.99548834
,,,,,,,,,,,,,,,,11,0,11,0,,,,,,,,,,,,,,,,,,,,,,,,,,,,,,,,,,,,,,,,,,,,,,,,,,,,,,,,,,,,,,,,,,,,,,,,,,,,,,0.1,left,0,130,30,160,2,1720.49519,1720.49519,1720.49519,None,None,3,0,1.7499953,0.090909091,,,,,,,,,,,,,,,,,,,,,,,,,,,,,,,,,,,,,,,,,,,,,10,17,1,2024-10-30_16h43.01.470,uWM_experiment,2022.2.3,59.99548834
,,,,,,,,,,,,,,,,12,0,12,0,,,,,,,,,,,,,,,,,,,,,,,,,,,,,,,,,,,,,,,,,,,,,,,,,,,,,,,,,,,,,,,,,,,,,,,,,,,,,,0.165094365,left,1,10,-30,-20,1,1733.895772,1733.895772,1733.895772,None,None,1,1,1.5893703,0.083333333,,,,,,,,,,,,,,,,,,,,,,,,,,,,,,,,,,,,,,,,,,,,,10,17,1,2024-10-30_16h43.01.470,uWM_experiment,2022.2.3,59.99548834
,,,,,,,,,,,,,,,,13,0,13,0,,,,,,,,,,,,,,,,,,,,,,,,,,,,,,,,,,,,,,,,,,,,,,,,,,,,,,,,,,,,,,,,,,,,,,,,,,,,,,0.175094365,left,0,130,30,160,1,1742.56285,1742.56285,1742.56285,None,None,1,1,0.6422665,0.153846154,,,,,,,,,,,,,,,,,,,,,,,,,,,,,,,,,,,,,,,,,,,,,10,17,1,2024-10-30_16h43.01.470,uWM_experiment,2022.2.3,59.99548834
,,,,,,,,,,,,,,,,14,0,14,0,,,,,,,,,,,,,,,,,,,,,,,,,,,,,,,,,,,,,,,,,,,,,,,,,,,,,,,,,,,,,,,,,,,,,,,,,,,,,,0.1,left,1,40,-30,10,2,1750.913216,1750.913216,1750.913216,None,None,3,0,5.9718055,0.214285714,,,,,,,,,,,,,,,,,,,,,,,,,,,,,,,,,,,,,,,,,,,,,10,17,1,2024-10-30_16h43.01.470,uWM_experiment,2022.2.3,59.99548834
,,,,,,,,,,,,,,,,15,0,15,0,,,,,,,,,,,,,,,,,,,,,,,,,,,,,,,,,,,,,,,,,,,,,,,,,,,,,,,,,,,,,,,,,,,,,,,,,,,,,,0.185094365,right,1,10,30,40,1,1763.930439,1763.930439,1763.930439,None,None,4,0,1.8827331,0.2,,,,,,,,,,,,,,,,,,,,,,,,,,,,,,,,,,,,,,,,,,,,,10,17,1,2024-10-30_16h43.01.470,uWM_experiment,2022.2.3,59.99548834
,,,,,,,,,,,,,,,,16,0,16,0,,,,,,,,,,,,,,,,,,,,,,,,,,,,,,,,,,,,,,,,,,,,,,,,,,,,,,,,,,,,,,,,,,,,,,,,,,,,,,0.1,right,1,160,30,190,2,1773.164209,1773.164209,1773.164209,None,None,4,0,1.2089857,0.1875,,,,,,,,,,,,,,,,,,,,,,,,,,,,,,,,,,,,,,,,,,,,,10,17,1,2024-10-30_16h43.01.470,uWM_experiment,2022.2.3,59.99548834
,,,,,,,,,,,,,,,,17,0,17,0,,,,,,,,,,,,,,,,,,,,,,,,,,,,,,,,,,,,,,,,,,,,,,,,,,,,,,,,,,,,,,,,,,,,,,,,,,,,,,0.1,right,1,100,30,130,2,1782.64799,1782.64799,1782.64799,None,None,3,0,1.597156,0.176470588,,,,,,,,,,,,,,,,,,,,,,,,,,,,,,,,,,,,,,,,,,,,,10,17,1,2024-10-30_16h43.01.470,uWM_experiment,2022.2.3,59.99548834
,,,,,,,,,,,,,,,,18,0,18,0,,,,,,,,,,,,,,,,,,,,,,,,,,,,,,,,,,,,,,,,,,,,,,,,,,,,,,,,,,,,,,,,,,,,,,,,,,,,,,0.1,left,1,40,-30,10,2,1790.581658,1790.581658,1790.581658,None,None,4,0,2.0234371,0.166666667,,,,,,,,,,,,,,,,,,,,,,,,,,,,,,,,,,,,,,,,,,,,,10,17,1,2024-10-30_16h43.01.470,uWM_experiment,2022.2.3,59.99548834
,,,,,,,,,,,,,,,,19,0,19,0,,,,,,,,,,,,,,,,,,,,,,,,,,,,,,,,,,,,,,,,,,,,,,,,,,,,,,,,,,,,,,,,,,,,,,,,,,,,,,0.175094365,left,0,70,30,100,1,1802.065522,1802.065522,1802.065522,None,None,1,1,0.8915714,0.157894737,,,,,,,,,,,,,,,,,,,,,,,,,,,,,,,,,,,,,,,,,,,,,10,17,1,2024-10-30_16h43.01.470,uWM_experiment,2022.2.3,59.99548834
,,,,,,,,,,,,,,,,20,0,20,0,,,,,,,,,,,,,,,,,,,,,,,,,,,,,,,,,,,,,,,,,,,,,,,,,,,,,,,,,,,,,,,,,,,,,,,,,,,,,,0.185094365,right,0,100,-30,70,1,1834.033621,1834.033621,1834.033621,None,None,1,1,0.6354305,0.2,,,,,,,,,,,,,,,,,,,,,,,,,,,,,,,,,,,,,,,,,,,,,10,17,1,2024-10-30_16h43.01.470,uWM_experiment,2022.2.3,59.99548834
,,,,,,,,,,,,,,,,21,0,21,0,,,,,,,,,,,,,,,,,,,,,,,,,,,,,,,,,,,,,,,,,,,,,,,,,,,,,,,,,,,,,,,,,,,,,,,,,,,,,,0.1,left,0,100,30,130,2,1842.383957,1842.383957,1842.383957,None,None,1,1,0.2932183,0.238095238,,,,,,,,,,,,,,,,,,,,,,,,,,,,,,,,,,,,,,,,,,,,,10,17,1,2024-10-30_16h43.01.470,uWM_experiment,2022.2.3,59.99548834
,,,,,,,,,,,,,,,,22,0,22,0,,,,,,,,,,,,,,,,,,,,,,,,,,,,,,,,,,,,,,,,,,,,,,,,,,,,,,,,,,,,,,,,,,,,,,,,,,,,,,0.195094365,left,1,70,-30,40,1,1849.184267,1849.184267,1849.184267,None,None,2,0,1.3648942,0.272727273,,,,,,,,,,,,,,,,,,,,,,,,,,,,,,,,,,,,,,,,,,,,,10,17,1,2024-10-30_16h43.01.470,uWM_experiment,2022.2.3,59.99548834
,,,,,,,,,,,,,,,,23,0,23,0,,,,,,,,,,,,,,,,,,,,,,,,,,,,,,,,,,,,,,,,,,,,,,,,,,,,,,,,,,,,,,,,,,,,,,,,,,,,,,0.1,right,1,160,30,190,2,1857.584652,1857.584652,1857.584652,None,None,4,0,1.6125811,0.260869565,,,,,,,,,,,,,,,,,,,,,,,,,,,,,,,,,,,,,,,,,,,,,10,17,1,2024-10-30_16h43.01.470,uWM_experiment,2022.2.3,59.99548834
,,,,,,,,,,,,,,,,,,,,,,,,,,,,,,,,,,,,,,,,,,,,,,,,,,,,,,,,,,,,,,,,,,,,,,,,,,,,,,,,,,,,,,,,,,,,,,,,,,,,,,,,,,,,,,,,,1859.218037,1860.21808,space,34.2431955,,,,,,,,,,,,,,,,,,,,,,,,,,,,,,,,,,,,,,,,,10,17,1,2024-10-30_16h43.01.470,uWM_experiment,2022.2.3,59.99548834
,,,,,,,,,,,,,,,,,,,,0,0,0,0,0,0,0,0,,,,,,,,,,,,,,,,,,,,,,,,,,,,,,,,,,,,,,,,,,,,,,,,,,,,,,,,,,,,,,,,,,,,,,0.195094365,,,,,,,,,,,,,,,,,,,,1894.48629,1895.186322,1895.469664,1896.169696,1896.469758,1897.169747,1897.169747,1897.51979,left,1,40,-30,10,1,1902.519985,1902.519985,1902.519985,None,None,3,0,3.6211544,,,,,,,,,,,,,,,,,,,10,17,1,2024-10-30_16h43.01.470,uWM_experiment,2022.2.3,59.99548834
,,,,,,,,,,,,,,,,,,,,0,0,0,0,1,0,1,0,,,,,,,,,,,,,,,,,,,,,,,,,,,,,,,,,,,,,,,,,,,,,,,,,,,,,,,,,,,,,,,,,,,,,,0.185094365,,,,,,,,,,,,,,,,,,,,,,,,,,,,left,1,10,-30,-20,1,1912.503775,1912.503775,1912.503775,None,None,2,0,1.2853715,,,,,,,,,,,,,,,,,,,10,17,1,2024-10-30_16h43.01.470,uWM_experiment,2022.2.3,59.99548834
,,,,,,,,,,,,,,,,,,,,0,0,0,0,2,0,2,0,,,,,,,,,,,,,,,,,,,,,,,,,,,,,,,,,,,,,,,,,,,,,,,,,,,,,,,,,,,,,,,,,,,,,,0,,,,,,,,,,,,,,,,,,,,,,,,,,,,left,1,130,-30,100,0,1920.870821,1920.870821,1920.870821,None,None,1,1,0.6144542,,,,,,,,,,,,,,,,,,,10,17,1,2024-10-30_16h43.01.470,uWM_experiment,2022.2.3,59.99548834
,,,,,,,,,,,,,,,,,,,,0,0,0,0,3,0,3,0,,,,,,,,,,,,,,,,,,,,,,,,,,,,,,,,,,,,,,,,,,,,,,,,,,,,,,,,,,,,,,,,,,,,,,0,,,,,,,,,,,,,,,,,,,,,,,,,,,,left,0,130,30,160,0,1927.687799,1927.687799,1927.687799,None,None,1,1,0.3413743,,,,,,,,,,,,,,,,,,,10,17,1,2024-10-30_16h43.01.470,uWM_experiment,2022.2.3,59.99548834
,,,,,,,,,,,,,,,,,,,,0,0,0,0,4,0,4,0,,,,,,,,,,,,,,,,,,,,,,,,,,,,,,,,,,,,,,,,,,,,,,,,,,,,,,,,,,,,,,,,,,,,,,0.175094365,,,,,,,,,,,,,,,,,,,,,,,,,,,,left,1,70,-30,40,1,1935.571484,1935.571484,1935.571484,None,None,2,0,1.8577396,,,,,,,,,,,,,,,,,,,10,17,1,2024-10-30_16h43.01.470,uWM_experiment,2022.2.3,59.99548834
,,,,,,,,,,,,,,,,,,,,0,0,0,0,5,0,5,0,,,,,,,,,,,,,,,,,,,,,,,,,,,,,,,,,,,,,,,,,,,,,,,,,,,,,,,,,,,,,,,,,,,,,,0,,,,,,,,,,,,,,,,,,,,,,,,,,,,left,0,40,30,70,0,1943.621819,1943.621819,1943.621819,None,None,1,1,0.4474126,,,,,,,,,,,,,,,,,,,10,17,1,2024-10-30_16h43.01.470,uWM_experiment,2022.2.3,59.99548834
,,,,,,,,,,,,,,,,,,,,0,0,0,0,6,0,6,0,,,,,,,,,,,,,,,,,,,,,,,,,,,,,,,,,,,,,,,,,,,,,,,,,,,,,,,,,,,,,,,,,,,,,,0.165094365,,,,,,,,,,,,,,,,,,,,,,,,,,,,right,0,10,-30,-20,1,1954.27235,1954.27235,1954.27235,None,None,3,0,2.2289123,,,,,,,,,,,,,,,,,,,10,17,1,2024-10-30_16h43.01.470,uWM_experiment,2022.2.3,59.99548834
,,,,,,,,,,,,,,,,,,,,0,0,0,0,7,0,7,0,,,,,,,,,,,,,,,,,,,,,,,,,,,,,,,,,,,,,,,,,,,,,,,,,,,,,,,,,,,,,,,,,,,,,,0,,,,,,,,,,,,,,,,,,,,,,,,,,,,left,1,130,-30,100,0,1962.105994,1962.105994,1962.105994,None,None,1,1,0.5871429,,,,,,,,,,,,,,,,,,,10,17,1,2024-10-30_16h43.01.470,uWM_experiment,2022.2.3,59.99548834
,,,,,,,,,,,,,,,,,,,,0,0,0,0,8,0,8,0,,,,,,,,,,,,,,,,,,,,,,,,,,,,,,,,,,,,,,,,,,,,,,,,,,,,,,,,,,,,,,,,,,,,,,0.155094365,,,,,,,,,,,,,,,,,,,,,,,,,,,,right,1,70,30,100,1,1973.956523,1973.956523,1973.956523,None,None,1,1,0.4087739,,,,,,,,,,,,,,,,,,,10,17,1,2024-10-30_16h43.01.470,uWM_experiment,2022.2.3,59.99548834
,,,,,,,,,,,,,,,,,,,,0,0,0,0,9,0,9,0,,,,,,,,,,,,,,,,,,,,,,,,,,,,,,,,,,,,,,,,,,,,,,,,,,,,,,,,,,,,,,,,,,,,,,0.165094365,,,,,,,,,,,,,,,,,,,,,,,,,,,,right,1,100,30,130,1,1981.106838,1981.106838,1981.106838,None,None,2,0,1.0744934,,,,,,,,,,,,,,,,,,,10,17,1,2024-10-30_16h43.01.470,uWM_experiment,2022.2.3,59.99548834
,,,,,,,,,,,,,,,,,,,,0,0,0,0,10,0,10,0,,,,,,,,,,,,,,,,,,,,,,,,,,,,,,,,,,,,,,,,,,,,,,,,,,,,,,,,,,,,,,,,,,,,,,0,,,,,,,,,,,,,,,,,,,,,,,,,,,,left,0,130,30,160,0,1987.807162,1987.807162,1987.807162,None,None,1,1,0.5019734,,,,,,,,,,,,,,,,,,,10,17,1,2024-10-30_16h43.01.470,uWM_experiment,2022.2.3,59.99548834
,,,,,,,,,,,,,,,,,,,,0,0,0,0,11,0,11,0,,,,,,,,,,,,,,,,,,,,,,,,,,,,,,,,,,,,,,,,,,,,,,,,,,,,,,,,,,,,,,,,,,,,,,0.155094365,,,,,,,,,,,,,,,,,,,,,,,,,,,,left,0,40,30,70,1,1993.957431,1993.957431,1993.957431,None,None,1,1,0.3917852,,,,,,,,,,,,,,,,,,,10,17,1,2024-10-30_16h43.01.470,uWM_experiment,2022.2.3,59.99548834
,,,,,,,,,,,,,,,,,,,,0,0,0,0,12,0,12,0,,,,,,,,,,,,,,,,,,,,,,,,,,,,,,,,,,,,,,,,,,,,,,,,,,,,,,,,,,,,,,,,,,,,,,0,,,,,,,,,,,,,,,,,,,,,,,,,,,,left,1,10,-30,-20,0,1999.857696,1999.857696,1999.857696,None,None,1,1,0.3554579,,,,,,,,,,,,,,,,,,,10,17,1,2024-10-30_16h43.01.470,uWM_experiment,2022.2.3,59.99548834
,,,,,,,,,,,,,,,,,,,,0,0,0,0,13,0,13,0,,,,,,,,,,,,,,,,,,,,,,,,,,,,,,,,,,,,,,,,,,,,,,,,,,,,,,,,,,,,,,,,,,,,,,0.165094365,,,,,,,,,,,,,,,,,,,,,,,,,,,,right,1,10,30,40,1,2006.207984,2006.207984,2006.207984,None,None,3,0,1.6211784,,,,,,,,,,,,,,,,,,,10,17,1,2024-10-30_16h43.01.470,uWM_experiment,2022.2.3,59.99548834
,,,,,,,,,,,,,,,,,,,,0,0,0,0,14,0,14,0,,,,,,,,,,,,,,,,,,,,,,,,,,,,,,,,,,,,,,,,,,,,,,,,,,,,,,,,,,,,,,,,,,,,,,0.155094365,,,,,,,,,,,,,,,,,,,,,,,,,,,,right,1,130,30,160,1,2019.125224,2019.125224,2019.125224,None,None,2,0,0.7600537,,,,,,,,,,,,,,,,,,,10,17,1,2024-10-30_16h43.01.470,uWM_experiment,2022.2.3,59.99548834
,,,,,,,,,,,,,,,,,,,,0,0,0,0,15,0,15,0,,,,,,,,,,,,,,,,,,,,,,,,,,,,,,,,,,,,,,,,,,,,,,,,,,,,,,,,,,,,,,,,,,,,,,0,,,,,,,,,,,,,,,,,,,,,,,,,,,,left,0,40,30,70,0,2025.225485,2025.225485,2025.225485,None,None,1,1,0.371759,,,,,,,,,,,,,,,,,,,10,17,1,2024-10-30_16h43.01.470,uWM_experiment,2022.2.3,59.99548834
,,,,,,,,,,,,,,,,,,,,0,0,0,0,16,0,16,0,,,,,,,,,,,,,,,,,,,,,,,,,,,,,,,,,,,,,,,,,,,,,,,,,,,,,,,,,,,,,,,,,,,,,,0,,,,,,,,,,,,,,,,,,,,,,,,,,,,left,0,100,30,130,0,2030.875765,2030.875765,2030.875765,None,None,1,1,0.3455638,,,,,,,,,,,,,,,,,,,10,17,1,2024-10-30_16h43.01.470,uWM_experiment,2022.2.3,59.99548834
,,,,,,,,,,,,,,,,,,,,0,0,0,0,17,0,17,0,,,,,,,,,,,,,,,,,,,,,,,,,,,,,,,,,,,,,,,,,,,,,,,,,,,,,,,,,,,,,,,,,,,,,,0.145094365,,,,,,,,,,,,,,,,,,,,,,,,,,,,right,1,70,30,100,1,2043.042971,2043.042971,2043.042971,None,None,2,0,0.7463337,,,,,,,,,,,,,,,,,,,10,17,1,2024-10-30_16h43.01.470,uWM_experiment,2022.2.3,59.99548834
,,,,,,,,,,,,,,,,,,,,0,0,0,0,18,0,18,0,,,,,,,,,,,,,,,,,,,,,,,,,,,,,,,,,,,,,,,,,,,,,,,,,,,,,,,,,,,,,,,,,,,,,,0.135094365,,,,,,,,,,,,,,,,,,,,,,,,,,,,right,0,160,-30,130,1,2052.493353,2052.493353,2052.493353,None,None,2,0,1.8799424,,,,,,,,,,,,,,,,,,,10,17,1,2024-10-30_16h43.01.470,uWM_experiment,2022.2.3,59.99548834
,,,,,,,,,,,,,,,,,,,,0,0,0,0,19,0,19,0,,,,,,,,,,,,,,,,,,,,,,,,,,,,,,,,,,,,,,,,,,,,,,,,,,,,,,,,,,,,,,,,,,,,,,0.125094365,,,,,,,,,,,,,,,,,,,,,,,,,,,,left,1,100,-30,70,1,2065.510621,2065.510621,2065.510621,None,None,3,0,1.3586727,,,,,,,,,,,,,,,,,,,10,17,1,2024-10-30_16h43.01.470,uWM_experiment,2022.2.3,59.99548834
,,,,,,,,,,,,,,,,,,,,0,0,0,0,20,0,20,0,,,,,,,,,,,,,,,,,,,,,,,,,,,,,,,,,,,,,,,,,,,,,,,,,,,,,,,,,,,,,,,,,,,,,,0.115094365,,,,,,,,,,,,,,,,,,,,,,,,,,,,left,1,100,-30,70,1,2074.761033,2074.761033,2074.761033,None,None,2,0,2.2282526,,,,,,,,,,,,,,,,,,,10,17,1,2024-10-30_16h43.01.470,uWM_experiment,2022.2.3,59.99548834
,,,,,,,,,,,,,,,,,,,,0,0,0,0,21,0,21,0,,,,,,,,,,,,,,,,,,,,,,,,,,,,,,,,,,,,,,,,,,,,,,,,,,,,,,,,,,,,,,,,,,,,,,0.105094365,,,,,,,,,,,,,,,,,,,,,,,,,,,,left,1,160,-30,130,1,2083.111428,2083.111428,2083.111428,None,None,2,0,0.3258727,,,,,,,,,,,,,,,,,,,10,17,1,2024-10-30_16h43.01.470,uWM_experiment,2022.2.3,59.99548834
,,,,,,,,,,,,,,,,,,,,0,0,0,0,22,0,22,0,,,,,,,,,,,,,,,,,,,,,,,,,,,,,,,,,,,,,,,,,,,,,,,,,,,,,,,,,,,,,,,,,,,,,,0.095094365,,,,,,,,,,,,,,,,,,,,,,,,,,,,left,0,70,30,100,1,2088.71164,2088.71164,2088.71164,None,None,2,0,0.5416669,,,,,,,,,,,,,,,,,,,10,17,1,2024-10-30_16h43.01.470,uWM_experiment,2022.2.3,59.99548834
,,,,,,,,,,,,,,,,,,,,0,0,0,0,23,0,23,0,,,,,,,,,,,,,,,,,,,,,,,,,,,,,,,,,,,,,,,,,,,,,,,,,,,,,,,,,,,,,,,,,,,,,,0,,,,,,,,,,,,,,,,,,,,,,,,,,,,left,0,130,30,160,0,2094.728598,2094.728598,2094.728598,None,None,1,1,0.2846116,,,,,,,,,,,,,,,,,,,10,17,1,2024-10-30_16h43.01.470,uWM_experiment,2022.2.3,59.99548834
,,,,,,,,,,,,,,,,,,,,0,0,0,0,,,,,0,0,0,0,,,,,,,,,,,,,,,,,,,,,,,,,,,,,,,,,,,,,,,,,,,,,,,,,,,,,,,,,,,,,,,,,,,,,,,,,,,,,,,,,,,,,,,,,,,,,,,,,,,,,,,,,,,,2095.045262,2095.045262,space,12.720131,None,None,,,,,,,,,,,,,10,17,1,2024-10-30_16h43.01.470,uWM_experiment,2022.2.3,59.99548834
,,,,,,,,,,,,,,,,,,,,0,0,0,0,,,,,1,0,1,0,,,,,,,,,,,,,,,,,,,,,,,,,,,,,,,,,,,,,,,,,,,,,,,,,,,,,,,,,,,,,,,,,,,,,,,,,,,,,,,,,,,,,,,,,,,,,,,,,,,,,,,,,,,,,,,,,,,,,,,,,,,,,,10,17,1,2024-10-30_16h43.01.470,uWM_experiment,2022.2.3,59.99548834
,,,,,,,,,,,,,,,,,,,,0,0,0,0,,,,,2,0,2,0,,,,,,,,,,,,,,,,,,,,,,,,,,,,,,,,,,,,,,,,,,,,,,,,,,,,,,,,,,,,,,,,,,,,,,,,,,,,,,,,,,,,,,,,,,,,,,,,,,,,,,,,,,,,,,,,,,,,,,,,,,,,,,10,17,1,2024-10-30_16h43.01.470,uWM_experiment,2022.2.3,59.99548834
,,,,,,,,,,,,,,,,,,,,1,0,1,0,0,0,0,0,,,,,,,,,,,,,,,,,,,,,,,,,,,,,,,,,,,,,,,,,,,,,,,,,,,,,,,,,,,,,,,,,,,,,,0.085094365,,,,,,,,,,,,,,,,,,,,2107.795833,2108.495858,2108.795906,2109.495912,2109.795926,2110.495958,2110.495958,2110.812644,left,1,100,-30,70,1,2115.496205,2115.496205,2115.496205,None,None,2,0,0.8291896,,,,,,,None,,,,,,,,,,,,10,17,1,2024-10-30_16h43.01.470,uWM_experiment,2022.2.3,59.99548834
,,,,,,,,,,,,,,,,,,,,1,0,1,0,1,0,1,0,,,,,,,,,,,,,,,,,,,,,,,,,,,,,,,,,,,,,,,,,,,,,,,,,,,,,,,,,,,,,,,,,,,,,,0.075094365,,,,,,,,,,,,,,,,,,,,,,,,,,,,left,1,10,-30,-20,1,2124.529934,2124.529934,2124.529934,None,None,3,0,1.5793428,,,,,,,,,,,,,,,,,,,10,17,1,2024-10-30_16h43.01.470,uWM_experiment,2022.2.3,59.99548834
,,,,,,,,,,,,,,,,,,,,1,0,1,0,2,0,2,0,,,,,,,,,,,,,,,,,,,,,,,,,,,,,,,,,,,,,,,,,,,,,,,,,,,,,,,,,,,,,,,,,,,,,,0.065094365,,,,,,,,,,,,,,,,,,,,,,,,,,,,left,0,40,30,70,1,2131.596894,2131.596894,2131.596894,None,None,2,0,0.3124828,,,,,,,,,,,,,,,,,,,10,17,1,2024-10-30_16h43.01.470,uWM_experiment,2022.2.3,59.99548834
,,,,,,,,,,,,,,,,,,,,1,0,1,0,3,0,3,0,,,,,,,,,,,,,,,,,,,,,,,,,,,,,,,,,,,,,,,,,,,,,,,,,,,,,,,,,,,,,,,,,,,,,,0.055094365,,,,,,,,,,,,,,,,,,,,,,,,,,,,left,0,70,30,100,1,2138.080536,2138.080536,2138.080536,None,None,1,1,0.3408378,,,,,,,,,,,,,,,,,,,10,17,1,2024-10-30_16h43.01.470,uWM_experiment,2022.2.3,59.99548834
,,,,,,,,,,,,,,,,,,,,1,0,1,0,4,0,4,0,,,,,,,,,,,,,,,,,,,,,,,,,,,,,,,,,,,,,,,,,,,,,,,,,,,,,,,,,,,,,,,,,,,,,,0,,,,,,,,,,,,,,,,,,,,,,,,,,,,left,0,130,30,160,0,2146.51426,2146.51426,2146.51426,None,None,1,1,0.659054,,,,,,,,,,,,,,,,,,,10,17,1,2024-10-30_16h43.01.470,uWM_experiment,2022.2.3,59.99548834
,,,,,,,,,,,,,,,,,,,,1,0,1,0,5,0,5,0,,,,,,,,,,,,,,,,,,,,,,,,,,,,,,,,,,,,,,,,,,,,,,,,,,,,,,,,,,,,,,,,,,,,,,0.065094365,,,,,,,,,,,,,,,,,,,,,,,,,,,,left,1,70,-30,40,1,2153.114554,2153.114554,2153.114554,None,None,1,1,0.5147484,,,,,,,,,,,,,,,,,,,10,17,1,2024-10-30_16h43.01.470,uWM_experiment,2022.2.3,59.99548834
,,,,,,,,,,,,,,,,,,,,1,0,1,0,6,0,6,0,,,,,,,,,,,,,,,,,,,,,,,,,,,,,,,,,,,,,,,,,,,,,,,,,,,,,,,,,,,,,,,,,,,,,,0.075094365,,,,,,,,,,,,,,,,,,,,,,,,,,,,left,1,100,-30,70,1,2160.881576,2160.881576,2160.881576,None,None,1,1,1.3877057,,,,,,,,,,,,,,,,,,,10,17,1,2024-10-30_16h43.01.470,uWM_experiment,2022.2.3,59.99548834
,,,,,,,,,,,,,,,,,,,,1,0,1,0,7,0,7,0,,,,,,,,,,,,,,,,,,,,,,,,,,,,,,,,,,,,,,,,,,,,,,,,,,,,,,,,,,,,,,,,,,,,,,0.085094365,,,,,,,,,,,,,,,,,,,,,,,,,,,,left,0,100,30,130,1,2167.598526,2167.598526,2167.598526,None,None,2,0,0.4547643,,,,,,,,,,,,,,,,,,,10,17,1,2024-10-30_16h43.01.470,uWM_experiment,2022.2.3,59.99548834
,,,,,,,,,,,,,,,,,,,,1,0,1,0,8,0,8,0,,,,,,,,,,,,,,,,,,,,,,,,,,,,,,,,,,,,,,,,,,,,,,,,,,,,,,,,,,,,,,,,,,,,,,0.075094365,,,,,,,,,,,,,,,,,,,,,,,,,,,,left,1,130,-30,100,1,2173.682138,2173.682138,2173.682138,None,None,2,0,0.8912849,,,,,,,,,,,,,,,,,,,10,17,1,2024-10-30_16h43.01.470,uWM_experiment,2022.2.3,59.99548834
,,,,,,,,,,,,,,,,,,,,1,0,1,0,9,0,9,0,,,,,,,,,,,,,,,,,,,,,,,,,,,,,,,,,,,,,,,,,,,,,,,,,,,,,,,,,,,,,,,,,,,,,,0,,,,,,,,,,,,,,,,,,,,,,,,,,,,left,1,100,-30,70,0,2180.182402,2180.182402,2180.182402,None,None,1,1,0.326985,,,,,,,,,,,,,,,,,,,10,17,1,2024-10-30_16h43.01.470,uWM_experiment,2022.2.3,59.99548834
,,,,,,,,,,,,,,,,,,,,1,0,1,0,10,0,10,0,,,,,,,,,,,,,,,,,,,,,,,,,,,,,,,,,,,,,,,,,,,,,,,,,,,,,,,,,,,,,,,,,,,,,,0.065094365,,,,,,,,,,,,,,,,,,,,,,,,,,,,left,0,100,30,130,1,2186.016003,2186.016003,2186.016003,None,None,1,1,0.3813904,,,,,,,,,,,,,,,,,,,10,17,1,2024-10-30_16h43.01.470,uWM_experiment,2022.2.3,59.99548834
,,,,,,,,,,,,,,,,,,,,1,0,1,0,11,0,11,0,,,,,,,,,,,,,,,,,,,,,,,,,,,,,,,,,,,,,,,,,,,,,,,,,,,,,,,,,,,,,,,,,,,,,,0.075094365,,,,,,,,,,,,,,,,,,,,,,,,,,,,left,1,10,-30,-20,1,2193.182998,2193.182998,2193.182998,None,None,1,1,0.6143725,,,,,,,,,,,,,,,,,,,10,17,1,2024-10-30_16h43.01.470,uWM_experiment,2022.2.3,59.99548834
,,,,,,,,,,,,,,,,,,,,1,0,1,0,12,0,12,0,,,,,,,,,,,,,,,,,,,,,,,,,,,,,,,,,,,,,,,,,,,,,,,,,,,,,,,,,,,,,,,,,,,,,,0.085094365,,,,,,,,,,,,,,,,,,,,,,,,,,,,left,0,100,30,130,1,2200.083311,2200.083311,2200.083311,None,None,1,1,0.377987,,,,,,,,,,,,,,,,,,,10,17,1,2024-10-30_16h43.01.470,uWM_experiment,2022.2.3,59.99548834
,,,,,,,,,,,,,,,,,,,,1,0,1,0,13,0,13,0,,,,,,,,,,,,,,,,,,,,,,,,,,,,,,,,,,,,,,,,,,,,,,,,,,,,,,,,,,,,,,,,,,,,,,0.1,,,,,,,,,,,,,,,,,,,,,,,,,,,,left,1,40,-30,10,2,2209.61707,2209.61707,2209.61707,None,None,3,0,1.9162401,,,,,,,,,,,,,,,,,,,10,17,1,2024-10-30_16h43.01.470,uWM_experiment,2022.2.3,59.99548834
,,,,,,,,,,,,,,,,,,,,1,0,1,0,14,0,14,0,,,,,,,,,,,,,,,,,,,,,,,,,,,,,,,,,,,,,,,,,,,,,,,,,,,,,,,,,,,,,,,,,,,,,,0.095094365,,,,,,,,,,,,,,,,,,,,,,,,,,,,left,0,130,30,160,1,2221.400944,2221.400944,2221.400944,None,None,2,0,2.4203387,,,,,,,,,,,,,,,,,,,10,17,1,2024-10-30_16h43.01.470,uWM_experiment,2022.2.3,59.99548834
,,,,,,,,,,,,,,,,,,,,1,0,1,0,15,0,15,0,,,,,,,,,,,,,,,,,,,,,,,,,,,,,,,,,,,,,,,,,,,,,,,,,,,,,,,,,,,,,,,,,,,,,,0.085094365,,,,,,,,,,,,,,,,,,,,,,,,,,,,right,1,10,30,40,1,2230.567997,2230.567997,2230.567997,None,None,2,0,0.7094387,,,,,,,,,,,,,,,,,,,10,17,1,2024-10-30_16h43.01.470,uWM_experiment,2022.2.3,59.99548834
,,,,,,,,,,,,,,,,,,,,1,0,1,0,16,0,16,0,,,,,,,,,,,,,,,,,,,,,,,,,,,,,,,,,,,,,,,,,,,,,,,,,,,,,,,,,,,,,,,,,,,,,,0.075094365,,,,,,,,,,,,,,,,,,,,,,,,,,,,right,1,10,30,40,1,2237.418308,2237.418308,2237.418308,None,None,2,0,0.8111534,,,,,,,,,,,,,,,,,,,10,17,1,2024-10-30_16h43.01.470,uWM_experiment,2022.2.3,59.99548834
,,,,,,,,,,,,,,,,,,,,1,0,1,0,17,0,17,0,,,,,,,,,,,,,,,,,,,,,,,,,,,,,,,,,,,,,,,,,,,,,,,,,,,,,,,,,,,,,,,,,,,,,,0.065094365,,,,,,,,,,,,,,,,,,,,,,,,,,,,left,1,70,-30,40,1,2243.751939,2243.751939,2243.751939,None,None,1,1,0.485322,,,,,,,,,,,,,,,,,,,10,17,1,2024-10-30_16h43.01.470,uWM_experiment,2022.2.3,59.99548834
,,,,,,,,,,,,,,,,,,,,1,0,1,0,18,0,18,0,,,,,,,,,,,,,,,,,,,,,,,,,,,,,,,,,,,,,,,,,,,,,,,,,,,,,,,,,,,,,,,,,,,,,,0,,,,,,,,,,,,,,,,,,,,,,,,,,,,left,1,100,-30,70,0,2249.585501,2249.585501,2249.585501,None,None,1,1,0.3398501,,,,,,,,,,,,,,,,,,,10,17,1,2024-10-30_16h43.01.470,uWM_experiment,2022.2.3,59.99548834
,,,,,,,,,,,,,,,,,,,,1,0,1,0,19,0,19,0,,,,,,,,,,,,,,,,,,,,,,,,,,,,,,,,,,,,,,,,,,,,,,,,,,,,,,,,,,,,,,,,,,,,,,0.075094365,,,,,,,,,,,,,,,,,,,,,,,,,,,,left,0,70,30,100,1,2255.352455,2255.352455,2255.352455,None,None,1,1,0.340875,,,,,,,,,,,,,,,,,,,10,17,1,2024-10-30_16h43.01.470,uWM_experiment,2022.2.3,59.99548834
,,,,,,,,,,,,,,,,,,,,1,0,1,0,20,0,20,0,,,,,,,,,,,,,,,,,,,,,,,,,,,,,,,,,,,,,,,,,,,,,,,,,,,,,,,,,,,,,,,,,,,,,,0.085094365,,,,,,,,,,,,,,,,,,,,,,,,,,,,left,1,100,-30,70,1,2267.636346,2267.636346,2267.636346,None,None,3,0,2.2009571,,,,,,,,,,,,,,,,,,,10,17,1,2024-10-30_16h43.01.470,uWM_experiment,2022.2.3,59.99548834
,,,,,,,,,,,,,,,,,,,,1,0,1,0,21,0,21,0,,,,,,,,,,,,,,,,,,,,,,,,,,,,,,,,,,,,,,,,,,,,,,,,,,,,,,,,,,,,,,,,,,,,,,0.075094365,,,,,,,,,,,,,,,,,,,,,,,,,,,,left,0,130,30,160,1,2280.670236,2280.670236,2280.670236,None,None,3,0,1.3351039,,,,,,,,,,,,,,,,,,,10,17,1,2024-10-30_16h43.01.470,uWM_experiment,2022.2.3,59.99548834
,,,,,,,,,,,,,,,,,,,,1,0,1,0,22,0,22,0,,,,,,,,,,,,,,,,,,,,,,,,,,,,,,,,,,,,,,,,,,,,,,,,,,,,,,,,,,,,,,,,,,,,,,0,,,,,,,,,,,,,,,,,,,,,,,,,,,,left,1,70,-30,40,0,2287.587238,2287.587238,2287.587238,None,None,1,1,0.35406,,,,,,,,,,,,,,,,,,,10,17,1,2024-10-30_16h43.01.470,uWM_experiment,2022.2.3,59.99548834
,,,,,,,,,,,,,,,,,,,,1,0,1,0,23,0,23,0,,,,,,,,,,,,,,,,,,,,,,,,,,,,,,,,,,,,,,,,,,,,,,,,,,,,,,,,,,,,,,,,,,,,,,0,,,,,,,,,,,,,,,,,,,,,,,,,,,,left,1,100,-30,70,0,2293.120812,2293.120812,2293.120812,None,None,1,1,0.7245677,,,,,,,,,,,,,,,,,,,10,17,1,2024-10-30_16h43.01.470,uWM_experiment,2022.2.3,59.99548834
,,,,,,,,,,,,,,,,,,,,1,0,1,0,,,,,0,0,0,0,,,,,,,,,,,,,,,,,,,,,,,,,,,,,,,,,,,,,,,,,,,,,,,,,,,,,,,,,,,,,,,,,,,,,,,,,,,,,,,,,,,,,,,,,,,,,,,,,,,,,,,,,,,,2293.870812,2293.870812,space,8.9745324,None,None,,,,,,,,,,,,,10,17,1,2024-10-30_16h43.01.470,uWM_experiment,2022.2.3,59.99548834
,,,,,,,,,,,,,,,,,,,,1,0,1,0,,,,,1,0,1,0,,,,,,,,,,,,,,,,,,,,,,,,,,,,,,,,,,,,,,,,,,,,,,,,,,,,,,,,,,,,,,,,,,,,,,,,,,,,,,,,,,,,,,,,,,,,,,,,,,,,,,,,,,,,,,,,,,,,,,,,,,,,,,10,17,1,2024-10-30_16h43.01.470,uWM_experiment,2022.2.3,59.99548834
,,,,,,,,,,,,,,,,,,,,1,0,1,0,,,,,2,0,2,0,,,,,,,,,,,,,,,,,,,,,,,,,,,,,,,,,,,,,,,,,,,,,,,,,,,,,,,,,,,,,,,,,,,,,,,,,,,,,,,,,,,,,,,,,,,,,,,,,,,,,,,,,,,,,,,,,,,,,,,,,,,,,,10,17,1,2024-10-30_16h43.01.470,uWM_experiment,2022.2.3,59.99548834
,,,,,,,,,,,,,,,,,,,,2,0,2,0,0,0,0,0,,,,,,,,,,,,,,,,,,,,,,,,,,,,,,,,,,,,,,,,,,,,,,,,,,,,,,,,,,,,,,,,,,,,,,0.065094365,,,,,,,,,,,,,,,,,,,,2302.871235,2303.571262,2303.871272,2304.571303,2304.87133,2305.57135,2305.57135,2305.888055,left,1,70,-30,40,1,2310.238224,2310.238224,2310.238224,None,None,1,1,0.3911582,,,,,,,None,,,,,,,,,,,,10,17,1,2024-10-30_16h43.01.470,uWM_experiment,2022.2.3,59.99548834
,,,,,,,,,,,,,,,,,,,,2,0,2,0,1,0,1,0,,,,,,,,,,,,,,,,,,,,,,,,,,,,,,,,,,,,,,,,,,,,,,,,,,,,,,,,,,,,,,,,,,,,,,0,,,,,,,,,,,,,,,,,,,,,,,,,,,,left,0,70,30,100,0,2316.255157,2316.255157,2316.255157,None,None,1,1,0.3182247,,,,,,,,,,,,,,,,,,,10,17,1,2024-10-30_16h43.01.470,uWM_experiment,2022.2.3,59.99548834
,,,,,,,,,,,,,,,,,,,,2,0,2,0,2,0,2,0,,,,,,,,,,,,,,,,,,,,,,,,,,,,,,,,,,,,,,,,,,,,,,,,,,,,,,,,,,,,,,,,,,,,,,0.1,,,,,,,,,,,,,,,,,,,,,,,,,,,,left,0,100,30,130,2,2331.455871,2331.455871,2331.455871,None,None,3,0,3.0455401,,,,,,,,,,,,,,,,,,,10,17,1,2024-10-30_16h43.01.470,uWM_experiment,2022.2.3,59.99548834
,,,,,,,,,,,,,,,,,,,,2,0,2,0,3,0,3,0,,,,,,,,,,,,,,,,,,,,,,,,,,,,,,,,,,,,,,,,,,,,,,,,,,,,,,,,,,,,,,,,,,,,,,0,,,,,,,,,,,,,,,,,,,,,,,,,,,,left,1,160,-30,130,0,2339.922907,2339.922907,2339.922907,None,None,1,1,0.2665989,,,,,,,,,,,,,,,,,,,10,17,1,2024-10-30_16h43.01.470,uWM_experiment,2022.2.3,59.99548834
,,,,,,,,,,,,,,,,,,,,2,0,2,0,4,0,4,0,,,,,,,,,,,,,,,,,,,,,,,,,,,,,,,,,,,,,,,,,,,,,,,,,,,,,,,,,,,,,,,,,,,,,,0.075094365,,,,,,,,,,,,,,,,,,,,,,,,,,,,left,1,100,-30,70,1,2346.623205,2346.623205,2346.623205,None,None,1,1,0.2943339,,,,,,,,,,,,,,,,,,,10,17,1,2024-10-30_16h43.01.470,uWM_experiment,2022.2.3,59.99548834
,,,,,,,,,,,,,,,,,,,,2,0,2,0,5,0,5,0,,,,,,,,,,,,,,,,,,,,,,,,,,,,,,,,,,,,,,,,,,,,,,,,,,,,,,,,,,,,,,,,,,,,,,0,,,,,,,,,,,,,,,,,,,,,,,,,,,,left,1,70,-30,40,0,2352.123449,2352.123449,2352.123449,None,None,1,1,0.290046,,,,,,,,,,,,,,,,,,,10,17,1,2024-10-30_16h43.01.470,uWM_experiment,2022.2.3,59.99548834
,,,,,,,,,,,,,,,,,,,,2,0,2,0,6,0,6,0,,,,,,,,,,,,,,,,,,,,,,,,,,,,,,,,,,,,,,,,,,,,,,,,,,,,,,,,,,,,,,,,,,,,,,0.085094365,,,,,,,,,,,,,,,,,,,,,,,,,,,,left,0,130,30,160,1,2357.807026,2357.807026,2357.807026,None,None,2,0,0.2784718,,,,,,,,,,,,,,,,,,,10,17,1,2024-10-30_16h43.01.470,uWM_experiment,2022.2.3,59.99548834
,,,,,,,,,,,,,,,,,,,,2,0,2,0,7,0,7,0,,,,,,,,,,,,,,,,,,,,,,,,,,,,,,,,,,,,,,,,,,,,,,,,,,,,,,,,,,,,,,,,,,,,,,0.075094365,,,,,,,,,,,,,,,,,,,,,,,,,,,,left,0,130,30,160,1,2363.490602,2363.490602,2363.490602,None,None,2,0,0.2671182,,,,,,,,,,,,,,,,,,,10,17,1,2024-10-30_16h43.01.470,uWM_experiment,2022.2.3,59.99548834
,,,,,,,,,,,,,,,,,,,,2,0,2,0,8,0,8,0,,,,,,,,,,,,,,,,,,,,,,,,,,,,,,,,,,,,,,,,,,,,,,,,,,,,,,,,,,,,,,,,,,,,,,0,,,,,,,,,,,,,,,,,,,,,,,,,,,,left,0,40,30,70,0,2369.140912,2369.140912,2369.140912,None,None,1,1,0.3524731,,,,,,,,,,,,,,,,,,,10,17,1,2024-10-30_16h43.01.470,uWM_experiment,2022.2.3,59.99548834
,,,,,,,,,,,,,,,,,,,,2,0,2,0,9,0,9,0,,,,,,,,,,,,,,,,,,,,,,,,,,,,,,,,,,,,,,,,,,,,,,,,,,,,,,,,,,,,,,,,,,,,,,0.1,,,,,,,,,,,,,,,,,,,,,,,,,,,,left,0,130,30,160,2,2377.791253,2377.791253,2377.791253,None,None,3,0,1.0062068,,,,,,,,,,,,,,,,,,,10,17,1,2024-10-30_16h43.01.470,uWM_experiment,2022.2.3,59.99548834
,,,,,,,,,,,,,,,,,,,,2,0,2,0,10,0,10,0,,,,,,,,,,,,,,,,,,,,,,,,,,,,,,,,,,,,,,,,,,,,,,,,,,,,,,,,,,,,,,,,,,,,,,0,,,,,,,,,,,,,,,,,,,,,,,,,,,,left,0,70,30,100,0,2385.058254,2385.058254,2385.058254,None,None,1,1,0.2351389,,,,,,,,,,,,,,,,,,,10,17,1,2024-10-30_16h43.01.470,uWM_experiment,2022.2.3,59.99548834
,,,,,,,,,,,,,,,,,,,,2,0,2,0,11,0,11,0,,,,,,,,,,,,,,,,,,,,,,,,,,,,,,,,,,,,,,,,,,,,,,,,,,,,,,,,,,,,,,,,,,,,,,0.065094365,,,,,,,,,,,,,,,,,,,,,,,,,,,,left,0,70,30,100,1,2390.541836,2390.541836,2390.541836,None,None,1,1,0.2875717,,,,,,,,,,,,,,,,,,,10,17,1,2024-10-30_16h43.01.470,uWM_experiment,2022.2.3,59.99548834
,,,,,,,,,,,,,,,,,,,,2,0,2,0,12,0,12,0,,,,,,,,,,,,,,,,,,,,,,,,,,,,,,,,,,,,,,,,,,,,,,,,,,,,,,,,,,,,,,,,,,,,,,0.075094365,,,,,,,,,,,,,,,,,,,,,,,,,,,,left,1,130,-30,100,1,2396.342073,2396.342073,2396.342073,None,None,2,0,0.2552811,,,,,,,,,,,,,,,,,,,10,17,1,2024-10-30_16h43.01.470,uWM_experiment,2022.2.3,59.99548834
,,,,,,,,,,,,,,,,,,,,2,0,2,0,13,0,13,0,,,,,,,,,,,,,,,,,,,,,,,,,,,,,,,,,,,,,,,,,,,,,,,,,,,,,,,,,,,,,,,,,,,,,,0.1,,,,,,,,,,,,,,,,,,,,,,,,,,,,left,0,40,30,70,2,2411.926128,2411.926128,2411.926128,None,None,3,0,1.1672424,,,,,,,,,,,,,,,,,,,10,17,1,2024-10-30_16h43.01.470,uWM_experiment,2022.2.3,59.99548834
,,,,,,,,,,,,,,,,,,,,2,0,2,0,14,0,14,0,,,,,,,,,,,,,,,,,,,,,,,,,,,,,,,,,,,,,,,,,,,,,,,,,,,,,,,,,,,,,,,,,,,,,,0,,,,,,,,,,,,,,,,,,,,,,,,,,,,left,0,10,30,40,0,2421.776563,2421.776563,2421.776563,None,None,2,0,0.3408303,,,,,,,,,,,,,,,,,,,10,17,1,2024-10-30_16h43.01.470,uWM_experiment,2022.2.3,59.99548834
,,,,,,,,,,,,,,,,,,,,2,0,2,0,15,0,15,0,,,,,,,,,,,,,,,,,,,,,,,,,,,,,,,,,,,,,,,,,,,,,,,,,,,,,,,,,,,,,,,,,,,,,,0.1,,,,,,,,,,,,,,,,,,,,,,,,,,,,left,1,10,-30,-20,2,2428.81021,2428.81021,2428.81021,None,None,4,0,1.4031522,,,,,,,,,,,,,,,,,,,10,17,1,2024-10-30_16h43.01.470,uWM_experiment,2022.2.3,59.99548834
,,,,,,,,,,,,,,,,,,,,2,0,2,0,16,0,16,0,,,,,,,,,,,,,,,,,,,,,,,,,,,,,,,,,,,,,,,,,,,,,,,,,,,,,,,,,,,,,,,,,,,,,,0,,,,,,,,,,,,,,,,,,,,,,,,,,,,left,0,160,30,190,0,2435.477162,2435.477162,2435.477162,None,None,1,1,0.3923628,,,,,,,,,,,,,,,,,,,10,17,1,2024-10-30_16h43.01.470,uWM_experiment,2022.2.3,59.99548834
,,,,,,,,,,,,,,,,,,,,2,0,2,0,17,0,17,0,,,,,,,,,,,,,,,,,,,,,,,,,,,,,,,,,,,,,,,,,,,,,,,,,,,,,,,,,,,,,,,,,,,,,,0,,,,,,,,,,,,,,,,,,,,,,,,,,,,left,1,40,-30,10,0,2441.277444,2441.277444,2441.277444,None,None,1,1,0.3199526,,,,,,,,,,,,,,,,,,,10,17,1,2024-10-30_16h43.01.470,uWM_experiment,2022.2.3,59.99548834
,,,,,,,,,,,,,,,,,,,,2,0,2,0,18,0,18,0,,,,,,,,,,,,,,,,,,,,,,,,,,,,,,,,,,,,,,,,,,,,,,,,,,,,,,,,,,,,,,,,,,,,,,0,,,,,,,,,,,,,,,,,,,,,,,,,,,,left,0,40,30,70,0,2446.861018,2446.861018,2446.861018,None,None,1,1,0.3843962,,,,,,,,,,,,,,,,,,,10,17,1,2024-10-30_16h43.01.470,uWM_experiment,2022.2.3,59.99548834
,,,,,,,,,,,,,,,,,,,,2,0,2,0,19,0,19,0,,,,,,,,,,,,,,,,,,,,,,,,,,,,,,,,,,,,,,,,,,,,,,,,,,,,,,,,,,,,,,,,,,,,,,0.065094365,,,,,,,,,,,,,,,,,,,,,,,,,,,,left,1,10,-30,-20,1,2452.444601,2452.444601,2452.444601,None,None,2,0,0.3047948,,,,,,,,,,,,,,,,,,,10,17,1,2024-10-30_16h43.01.470,uWM_experiment,2022.2.3,59.99548834
,,,,,,,,,,,,,,,,,,,,2,0,2,0,20,0,20,0,,,,,,,,,,,,,,,,,,,,,,,,,,,,,,,,,,,,,,,,,,,,,,,,,,,,,,,,,,,,,,,,,,,,,,0.055094365,,,,,,,,,,,,,,,,,,,,,,,,,,,,left,1,70,-30,40,1,2458.061499,2458.061499,2458.061499,None,None,2,0,0.2718851,,,,,,,,,,,,,,,,,,,10,17,1,2024-10-30_16h43.01.470,uWM_experiment,2022.2.3,59.99548834
,,,,,,,,,,,,,,,,,,,,2,0,2,0,21,0,21,0,,,,,,,,,,,,,,,,,,,,,,,,,,,,,,,,,,,,,,,,,,,,,,,,,,,,,,,,,,,,,,,,,,,,,,0.045094365,,,,,,,,,,,,,,,,,,,,,,,,,,,,left,0,10,30,40,1,2463.895118,2463.895118,2463.895118,None,None,2,0,0.2463605,,,,,,,,,,,,,,,,,,,10,17,1,2024-10-30_16h43.01.470,uWM_experiment,2022.2.3,59.99548834
,,,,,,,,,,,,,,,,,,,,2,0,2,0,22,0,22,0,,,,,,,,,,,,,,,,,,,,,,,,,,,,,,,,,,,,,,,,,,,,,,,,,,,,,,,,,,,,,,,,,,,,,,0,,,,,,,,,,,,,,,,,,,,,,,,,,,,left,1,100,-30,70,0,2469.562031,2469.562031,2469.562031,None,None,2,0,0.3313775,,,,,,,,,,,,,,,,,,,10,17,1,2024-10-30_16h43.01.470,uWM_experiment,2022.2.3,59.99548834
,,,,,,,,,,,,,,,,,,,,2,0,2,0,23,0,23,0,,,,,,,,,,,,,,,,,,,,,,,,,,,,,,,,,,,,,,,,,,,,,,,,,,,,,,,,,,,,,,,,,,,,,,0.035094365,,,,,,,,,,,,,,,,,,,,,,,,,,,,left,1,40,-30,10,1,2475.128952,2475.128952,2475.128952,None,None,1,1,0.2926043,,,,,,,,,,,,,,,,,,,10,17,1,2024-10-30_16h43.01.470,uWM_experiment,2022.2.3,59.99548834
,,,,,,,,,,,,,,,,,,,,2,0,2,0,,,,,0,0,0,0,,,,,,,,,,,,,,,,,,,,,,,,,,,,,,,,,,,,,,,,,,,,,,,,,,,,,,,,,,,,,,,,,,,,,,,,,,,,,,,,,,,,,,,,,,,,,,,,,,,,,,,,,,,,2475.445593,2475.445593,space,8.2558881,space,None,,2483.729321,2483.729321,10.1721603,,,,,,,,,10,17,1,2024-10-30_16h43.01.470,uWM_experiment,2022.2.3,59.99548834
,,,,,,,,,,,,,,,,,,,,2,0,2,0,,,,,1,0,1,0,,,,,,,,,,,,,,,,,,,,,,,,,,,,,,,,,,,,,,,,,,,,,,,,,,,,,,,,,,,,,,,,,,,,,,,,,,,,,,,,,,,,,,,,,,,,,,,,,,,,,,,,,,,,,,,,,,,,,,,,,,,,,,10,17,1,2024-10-30_16h43.01.470,uWM_experiment,2022.2.3,59.99548834
,,,,,,,,,,,,,,,,,,,,2,0,2,0,,,,,2,0,2,0,,,,,,,,,,,,,,,,,,,,,,,,,,,,,,,,,,,,,,,,,,,,,,,,,,,,,,,,,,,,,,,,,,,,,,,,,,,,,,,,,,,,,,,,,,,,,,,,,,,,,,,,,,,,,,,,,,,,,,,,,,,,,,10,17,1,2024-10-30_16h43.01.470,uWM_experiment,2022.2.3,59.99548834
,,,,,,,,,,,,,,,,,,,,3,0,3,0,0,0,0,0,,,,,,,,,,,,,,,,,,,,,,,,,,,,,,,,,,,,,,,,,,,,,,,,,,,,,,,,,,,,,,,,,,,,,,0,,,,,,,,,,,,,,,,,,,,2493.929754,2494.629795,2494.92984,2495.629853,2495.929864,2496.629895,2496.629895,2496.946581,left,0,100,30,130,0,2502.346835,2502.346835,2502.346835,None,None,1,1,0.3786744,,,,,,,None,,,,,,,,,,,,10,17,1,2024-10-30_16h43.01.470,uWM_experiment,2022.2.3,59.99548834
,,,,,,,,,,,,,,,,,,,,3,0,3,0,1,0,1,0,,,,,,,,,,,,,,,,,,,,,,,,,,,,,,,,,,,,,,,,,,,,,,,,,,,,,,,,,,,,,,,,,,,,,,0.045094365,,,,,,,,,,,,,,,,,,,,,,,,,,,,left,0,40,30,70,1,2508.930464,2508.930464,2508.930464,None,None,2,0,1.1709759,,,,,,,,,,,,,,,,,,,10,17,1,2024-10-30_16h43.01.470,uWM_experiment,2022.2.3,59.99548834
,,,,,,,,,,,,,,,,,,,,3,0,3,0,2,0,2,0,,,,,,,,,,,,,,,,,,,,,,,,,,,,,,,,,,,,,,,,,,,,,,,,,,,,,,,,,,,,,,,,,,,,,,0.035094365,,,,,,,,,,,,,,,,,,,,,,,,,,,,left,1,10,-30,-20,1,2515.914089,2515.914089,2515.914089,None,None,1,1,0.32346,,,,,,,,,,,,,,,,,,,10,17,1,2024-10-30_16h43.01.470,uWM_experiment,2022.2.3,59.99548834
,,,,,,,,,,,,,,,,,,,,3,0,3,0,3,0,3,0,,,,,,,,,,,,,,,,,,,,,,,,,,,,,,,,,,,,,,,,,,,,,,,,,,,,,,,,,,,,,,,,,,,,,,0.045094365,,,,,,,,,,,,,,,,,,,,,,,,,,,,left,0,40,30,70,1,2521.564373,2521.564373,2521.564373,None,None,2,0,0.2811741,,,,,,,,,,,,,,,,,,,10,17,1,2024-10-30_16h43.01.470,uWM_experiment,2022.2.3,59.99548834
,,,,,,,,,,,,,,,,,,,,3,0,3,0,4,0,4,0,,,,,,,,,,,,,,,,,,,,,,,,,,,,,,,,,,,,,,,,,,,,,,,,,,,,,,,,,,,,,,,,,,,,,,0,,,,,,,,,,,,,,,,,,,,,,,,,,,,left,1,160,-30,130,0,2527.347959,2527.347959,2527.347959,None,None,2,0,0.2895712,,,,,,,,,,,,,,,,,,,10,17,1,2024-10-30_16h43.01.470,uWM_experiment,2022.2.3,59.99548834
,,,,,,,,,,,,,,,,,,,,3,0,3,0,5,0,5,0,,,,,,,,,,,,,,,,,,,,,,,,,,,,,,,,,,,,,,,,,,,,,,,,,,,,,,,,,,,,,,,,,,,,,,0.035094365,,,,,,,,,,,,,,,,,,,,,,,,,,,,left,0,130,30,160,1,2532.964855,2532.964855,2532.964855,None,None,1,1,0.3046156,,,,,,,,,,,,,,,,,,,10,17,1,2024-10-30_16h43.01.470,uWM_experiment,2022.2.3,59.99548834
,,,,,,,,,,,,,,,,,,,,3,0,3,0,6,0,6,0,,,,,,,,,,,,,,,,,,,,,,,,,,,,,,,,,,,,,,,,,,,,,,,,,,,,,,,,,,,,,,,,,,,,,,0.045094365,,,,,,,,,,,,,,,,,,,,,,,,,,,,left,0,160,30,190,1,2538.881801,2538.881801,2538.881801,None,None,1,1,0.3238029,,,,,,,,,,,,,,,,,,,10,17,1,2024-10-30_16h43.01.470,uWM_experiment,2022.2.3,59.99548834
,,,,,,,,,,,,,,,,,,,,3,0,3,0,7,0,7,0,,,,,,,,,,,,,,,,,,,,,,,,,,,,,,,,,,,,,,,,,,,,,,,,,,,,,,,,,,,,,,,,,,,,,,0.055094365,,,,,,,,,,,,,,,,,,,,,,,,,,,,left,1,130,-30,100,1,2544.598704,2544.598704,2544.598704,None,None,2,0,0.2707995,,,,,,,,,,,,,,,,,,,10,17,1,2024-10-30_16h43.01.470,uWM_experiment,2022.2.3,59.99548834
,,,,,,,,,,,,,,,,,,,,3,0,3,0,8,0,8,0,,,,,,,,,,,,,,,,,,,,,,,,,,,,,,,,,,,,,,,,,,,,,,,,,,,,,,,,,,,,,,,,,,,,,,0.045094365,,,,,,,,,,,,,,,,,,,,,,,,,,,,left,1,70,-30,40,1,2550.132298,2550.132298,2550.132298,None,None,1,1,0.4252477,,,,,,,,,,,,,,,,,,,10,17,1,2024-10-30_16h43.01.470,uWM_experiment,2022.2.3,59.99548834
,,,,,,,,,,,,,,,,,,,,3,0,3,0,9,0,9,0,,,,,,,,,,,,,,,,,,,,,,,,,,,,,,,,,,,,,,,,,,,,,,,,,,,,,,,,,,,,,,,,,,,,,,0.055094365,,,,,,,,,,,,,,,,,,,,,,,,,,,,left,1,70,-30,40,1,2555.932567,2555.932567,2555.932567,None,None,1,1,0.3130514,,,,,,,,,,,,,,,,,,,10,17,1,2024-10-30_16h43.01.470,uWM_experiment,2022.2.3,59.99548834
,,,,,,,,,,,,,,,,,,,,3,0,3,0,10,0,10,0,,,,,,,,,,,,,,,,,,,,,,,,,,,,,,,,,,,,,,,,,,,,,,,,,,,,,,,,,,,,,,,,,,,,,,0.1,,,,,,,,,,,,,,,,,,,,,,,,,,,,left,1,160,-30,130,2,2571.499916,2571.499916,2571.499916,None,None,3,0,1.4977001,,,,,,,,,,,,,,,,,,,10,17,1,2024-10-30_16h43.01.470,uWM_experiment,2022.2.3,59.99548834
,,,,,,,,,,,,,,,,,,,,3,0,3,0,11,0,11,0,,,,,,,,,,,,,,,,,,,,,,,,,,,,,,,,,,,,,,,,,,,,,,,,,,,,,,,,,,,,,,,,,,,,,,0.065094365,,,,,,,,,,,,,,,,,,,,,,,,,,,,left,1,10,-30,-20,1,2578.400234,2578.400234,2578.400234,None,None,2,0,0.3173539,,,,,,,,,,,,,,,,,,,10,17,1,2024-10-30_16h43.01.470,uWM_experiment,2022.2.3,59.99548834
,,,,,,,,,,,,,,,,,,,,3,0,3,0,12,0,12,0,,,,,,,,,,,,,,,,,,,,,,,,,,,,,,,,,,,,,,,,,,,,,,,,,,,,,,,,,,,,,,,,,,,,,,0.055094365,,,,,,,,,,,,,,,,,,,,,,,,,,,,left,0,10,30,40,1,2586.117233,2586.117233,2586.117233,None,None,2,0,0.2963846,,,,,,,,,,,,,,,,,,,10,17,1,2024-10-30_16h43.01.470,uWM_experiment,2022.2.3,59.99548834
,,,,,,,,,,,,,,,,,,,,3,0,3,0,13,0,13,0,,,,,,,,,,,,,,,,,,,,,,,,,,,,,,,,,,,,,,,,,,,,,,,,,,,,,,,,,,,,,,,,,,,,,,0,,,,,,,,,,,,,,,,,,,,,,,,,,,,left,1,160,-30,130,0,2593.88427,2593.88427,2593.88427,None,None,1,1,0.5372519,,,,,,,,,,,,,,,,,,,10,17,1,2024-10-30_16h43.01.470,uWM_experiment,2022.2.3,59.99548834
,,,,,,,,,,,,,,,,,,,,3,0,3,0,14,0,14,0,,,,,,,,,,,,,,,,,,,,,,,,,,,,,,,,,,,,,,,,,,,,,,,,,,,,,,,,,,,,,,,,,,,,,,0.045094365,,,,,,,,,,,,,,,,,,,,,,,,,,,,left,0,100,30,130,1,2599.884527,2599.884527,2599.884527,None,None,1,1,0.5689628,,,,,,,,,,,,,,,,,,,10,17,1,2024-10-30_16h43.01.470,uWM_experiment,2022.2.3,59.99548834
,,,,,,,,,,,,,,,,,,,,3,0,3,0,15,0,15,0,,,,,,,,,,,,,,,,,,,,,,,,,,,,,,,,,,,,,,,,,,,,,,,,,,,,,,,,,,,,,,,,,,,,,,0.055094365,,,,,,,,,,,,,,,,,,,,,,,,,,,,left,1,100,-30,70,1,2605.76811,2605.76811,2605.76811,None,None,1,1,0.3575016,,,,,,,,,,,,,,,,,,,10,17,1,2024-10-30_16h43.01.470,uWM_experiment,2022.2.3,59.99548834
,,,,,,,,,,,,,,,,,,,,3,0,3,0,16,0,16,0,,,,,,,,,,,,,,,,,,,,,,,,,,,,,,,,,,,,,,,,,,,,,,,,,,,,,,,,,,,,,,,,,,,,,,0.065094365,,,,,,,,,,,,,,,,,,,,,,,,,,,,left,0,40,30,70,1,2611.618401,2611.618401,2611.618401,None,None,1,1,0.3311613,,,,,,,,,,,,,,,,,,,10,17,1,2024-10-30_16h43.01.470,uWM_experiment,2022.2.3,59.99548834
,,,,,,,,,,,,,,,,,,,,3,0,3,0,17,0,17,0,,,,,,,,,,,,,,,,,,,,,,,,,,,,,,,,,,,,,,,,,,,,,,,,,,,,,,,,,,,,,,,,,,,,,,0.075094365,,,,,,,,,,,,,,,,,,,,,,,,,,,,left,1,10,-30,-20,1,2627.419065,2627.419065,2627.419065,None,None,3,0,0.7385805,,,,,,,,,,,,,,,,,,,10,17,1,2024-10-30_16h43.01.470,uWM_experiment,2022.2.3,59.99548834
,,,,,,,,,,,,,,,,,,,,3,0,3,0,18,0,18,0,,,,,,,,,,,,,,,,,,,,,,,,,,,,,,,,,,,,,,,,,,,,,,,,,,,,,,,,,,,,,,,,,,,,,,0.065094365,,,,,,,,,,,,,,,,,,,,,,,,,,,,left,1,40,-30,10,1,2634.08605,2634.08605,2634.08605,None,None,1,1,0.2635437,,,,,,,,,,,,,,,,,,,10,17,1,2024-10-30_16h43.01.470,uWM_experiment,2022.2.3,59.99548834
,,,,,,,,,,,,,,,,,,,,3,0,3,0,19,0,19,0,,,,,,,,,,,,,,,,,,,,,,,,,,,,,,,,,,,,,,,,,,,,,,,,,,,,,,,,,,,,,,,,,,,,,,0.075094365,,,,,,,,,,,,,,,,,,,,,,,,,,,,left,1,130,-30,100,1,2640.819675,2640.819675,2640.819675,None,None,2,0,0.3778747,,,,,,,,,,,,,,,,,,,10,17,1,2024-10-30_16h43.01.470,uWM_experiment,2022.2.3,59.99548834
,,,,,,,,,,,,,,,,,,,,3,0,3,0,20,0,20,0,,,,,,,,,,,,,,,,,,,,,,,,,,,,,,,,,,,,,,,,,,,,,,,,,,,,,,,,,,,,,,,,,,,,,,0.065094365,,,,,,,,,,,,,,,,,,,,,,,,,,,,left,1,10,-30,-20,1,2651.336833,2651.336833,2651.336833,None,None,3,0,1.6448682,,,,,,,,,,,,,,,,,,,10,17,1,2024-10-30_16h43.01.470,uWM_experiment,2022.2.3,59.99548834
,,,,,,,,,,,,,,,,,,,,3,0,3,0,21,0,21,0,,,,,,,,,,,,,,,,,,,,,,,,,,,,,,,,,,,,,,,,,,,,,,,,,,,,,,,,,,,,,,,,,,,,,,0.055094365,,,,,,,,,,,,,,,,,,,,,,,,,,,,left,1,70,-30,40,1,2658.170454,2658.170454,2658.170454,None,None,2,0,0.5631425,,,,,,,,,,,,,,,,,,,10,17,1,2024-10-30_16h43.01.470,uWM_experiment,2022.2.3,59.99548834
,,,,,,,,,,,,,,,,,,,,3,0,3,0,22,0,22,0,,,,,,,,,,,,,,,,,,,,,,,,,,,,,,,,,,,,,,,,,,,,,,,,,,,,,,,,,,,,,,,,,,,,,,0.045094365,,,,,,,,,,,,,,,,,,,,,,,,,,,,left,1,130,-30,100,1,2663.904051,2663.904051,2663.904051,None,None,1,1,0.3816165,,,,,,,,,,,,,,,,,,,10,17,1,2024-10-30_16h43.01.470,uWM_experiment,2022.2.3,59.99548834
,,,,,,,,,,,,,,,,,,,,3,0,3,0,23,0,23,0,,,,,,,,,,,,,,,,,,,,,,,,,,,,,,,,,,,,,,,,,,,,,,,,,,,,,,,,,,,,,,,,,,,,,,0.055094365,,,,,,,,,,,,,,,,,,,,,,,,,,,,left,1,100,-30,70,1,2670.737692,2670.737692,2670.737692,None,None,2,0,0.4599452,,,,,,,,,,,,,,,,,,,10,17,1,2024-10-30_16h43.01.470,uWM_experiment,2022.2.3,59.99548834
,,,,,,,,,,,,,,,,,,,,3,0,3,0,,,,,0,0,0,0,,,,,,,,,,,,,,,,,,,,,,,,,,,,,,,,,,,,,,,,,,,,,,,,,,,,,,,,,,,,,,,,,,,,,,,,,,,,,,,,,,,,,,,,,,,,,,,,,,,,,,,,,,,,2671.221017,2671.221017,space,5.7847097,None,None,,,,,,,,,,,,,10,17,1,2024-10-30_16h43.01.470,uWM_experiment,2022.2.3,59.99548834
,,,,,,,,,,,,,,,,,,,,3,0,3,0,,,,,1,0,1,0,,,,,,,,,,,,,,,,,,,,,,,,,,,,,,,,,,,,,,,,,,,,,,,,,,,,,,,,,,,,,,,,,,,,,,,,,,,,,,,,,,,,,,,,,,,,,,,,,,,,,,,,,,,,,,,,,,,,,,,,,,,,,,10,17,1,2024-10-30_16h43.01.470,uWM_experiment,2022.2.3,59.99548834
,,,,,,,,,,,,,,,,,,,,3,0,3,0,,,,,2,0,2,0,,,,,,,,,,,,,,,,,,,,,,,,,,,,,,,,,,,,,,,,,,,,,,,,,,,,,,,,,,,,,,,,,,,,,,,,,,,,,,,,,,,,,,,,,,,,,,,,,,,,,,,,,,,,,,,,,,,,,,,,,,,,,,10,17,1,2024-10-30_16h43.01.470,uWM_experiment,2022.2.3,59.99548834
,,,,,,,,,,,,,,,,,,,,4,0,4,0,0,0,0,0,,,,,,,,,,,,,,,,,,,,,,,,,,,,,,,,,,,,,,,,,,,,,,,,,,,,,,,,,,,,,,,,,,,,,,0.045094365,,,,,,,,,,,,,,,,,,,,2677.037952,2677.737988,2678.038003,2678.738034,2679.038045,2679.738078,2679.738078,2680.054765,left,1,70,-30,40,1,2684.504968,2684.504968,2684.504968,None,None,1,1,0.580627,,,,,,,None,,,,,,,,,,,,10,17,1,2024-10-30_16h43.01.470,uWM_experiment,2022.2.3,59.99548834
,,,,,,,,,,,,,,,,,,,,4,0,4,0,1,0,1,0,,,,,,,,,,,,,,,,,,,,,,,,,,,,,,,,,,,,,,,,,,,,,,,,,,,,,,,,,,,,,,,,,,,,,,0.055094365,,,,,,,,,,,,,,,,,,,,,,,,,,,,left,0,100,30,130,1,2690.421906,2690.421906,2690.421906,None,None,1,1,0.4397635,,,,,,,,,,,,,,,,,,,10,17,1,2024-10-30_16h43.01.470,uWM_experiment,2022.2.3,59.99548834
,,,,,,,,,,,,,,,,,,,,4,0,4,0,2,0,2,0,,,,,,,,,,,,,,,,,,,,,,,,,,,,,,,,,,,,,,,,,,,,,,,,,,,,,,,,,,,,,,,,,,,,,,0.065094365,,,,,,,,,,,,,,,,,,,,,,,,,,,,left,1,10,-30,-20,1,2696.222171,2696.222171,2696.222171,None,None,2,0,0.4635157,,,,,,,,,,,,,,,,,,,10,17,1,2024-10-30_16h43.01.470,uWM_experiment,2022.2.3,59.99548834
,,,,,,,,,,,,,,,,,,,,4,0,4,0,3,0,3,0,,,,,,,,,,,,,,,,,,,,,,,,,,,,,,,,,,,,,,,,,,,,,,,,,,,,,,,,,,,,,,,,,,,,,,0,,,,,,,,,,,,,,,,,,,,,,,,,,,,left,0,100,30,130,0,2702.139103,2702.139103,2702.139103,None,None,1,1,0.3544278,,,,,,,,,,,,,,,,,,,10,17,1,2024-10-30_16h43.01.470,uWM_experiment,2022.2.3,59.99548834
,,,,,,,,,,,,,,,,,,,,4,0,4,0,4,0,4,0,,,,,,,,,,,,,,,,,,,,,,,,,,,,,,,,,,,,,,,,,,,,,,,,,,,,,,,,,,,,,,,,,,,,,,0.055094365,,,,,,,,,,,,,,,,,,,,,,,,,,,,left,0,100,30,130,1,2707.739322,2707.739322,2707.739322,None,None,2,0,0.2742638,,,,,,,,,,,,,,,,,,,10,17,1,2024-10-30_16h43.01.470,uWM_experiment,2022.2.3,59.99548834
,,,,,,,,,,,,,,,,,,,,4,0,4,0,5,0,5,0,,,,,,,,,,,,,,,,,,,,,,,,,,,,,,,,,,,,,,,,,,,,,,,,,,,,,,,,,,,,,,,,,,,,,,0.045094365,,,,,,,,,,,,,,,,,,,,,,,,,,,,left,1,70,-30,40,1,2713.289588,2713.289588,2713.289588,None,None,1,1,0.5401058,,,,,,,,,,,,,,,,,,,10,17,1,2024-10-30_16h43.01.470,uWM_experiment,2022.2.3,59.99548834
,,,,,,,,,,,,,,,,,,,,4,0,4,0,6,0,6,0,,,,,,,,,,,,,,,,,,,,,,,,,,,,,,,,,,,,,,,,,,,,,,,,,,,,,,,,,,,,,,,,,,,,,,0.055094365,,,,,,,,,,,,,,,,,,,,,,,,,,,,left,0,100,30,130,1,2719.106507,2719.106507,2719.106507,None,None,2,0,0.3070631,,,,,,,,,,,,,,,,,,,10,17,1,2024-10-30_16h43.01.470,uWM_experiment,2022.2.3,59.99548834
,,,,,,,,,,,,,,,,,,,,4,0,4,0,7,0,7,0,,,,,,,,,,,,,,,,,,,,,,,,,,,,,,,,,,,,,,,,,,,,,,,,,,,,,,,,,,,,,,,,,,,,,,0.045094365,,,,,,,,,,,,,,,,,,,,,,,,,,,,left,1,10,-30,-20,1,2724.756784,2724.756784,2724.756784,None,None,2,0,0.2568795,,,,,,,,,,,,,,,,,,,10,17,1,2024-10-30_16h43.01.470,uWM_experiment,2022.2.3,59.99548834
,,,,,,,,,,,,,,,,,,,,4,0,4,0,8,0,8,0,,,,,,,,,,,,,,,,,,,,,,,,,,,,,,,,,,,,,,,,,,,,,,,,,,,,,,,,,,,,,,,,,,,,,,0.035094365,,,,,,,,,,,,,,,,,,,,,,,,,,,,left,1,10,-30,-20,1,2730.323689,2730.323689,2730.323689,None,None,1,1,0.3139199,,,,,,,,,,,,,,,,,,,10,17,1,2024-10-30_16h43.01.470,uWM_experiment,2022.2.3,59.99548834
,,,,,,,,,,,,,,,,,,,,4,0,4,0,9,0,9,0,,,,,,,,,,,,,,,,,,,,,,,,,,,,,,,,,,,,,,,,,,,,,,,,,,,,,,,,,,,,,,,,,,,,,,0,,,,,,,,,,,,,,,,,,,,,,,,,,,,left,0,10,30,40,0,2735.790585,2735.790585,2735.790585,None,None,1,1,0.3910839,,,,,,,,,,,,,,,,,,,10,17,1,2024-10-30_16h43.01.470,uWM_experiment,2022.2.3,59.99548834
,,,,,,,,,,,,,,,,,,,,4,0,4,0,10,0,10,0,,,,,,,,,,,,,,,,,,,,,,,,,,,,,,,,,,,,,,,,,,,,,,,,,,,,,,,,,,,,,,,,,,,,,,0.045094365,,,,,,,,,,,,,,,,,,,,,,,,,,,,left,1,130,-30,100,1,2741.340837,2741.340837,2741.340837,None,None,1,1,0.6088388,,,,,,,,,,,,,,,,,,,10,17,1,2024-10-30_16h43.01.470,uWM_experiment,2022.2.3,59.99548834
,,,,,,,,,,,,,,,,,,,,4,0,4,0,11,0,11,0,,,,,,,,,,,,,,,,,,,,,,,,,,,,,,,,,,,,,,,,,,,,,,,,,,,,,,,,,,,,,,,,,,,,,,0.055094365,,,,,,,,,,,,,,,,,,,,,,,,,,,,left,1,130,-30,100,1,2747.174448,2747.174448,2747.174448,None,None,1,1,0.3511499,,,,,,,,,,,,,,,,,,,10,17,1,2024-10-30_16h43.01.470,uWM_experiment,2022.2.3,59.99548834
,,,,,,,,,,,,,,,,,,,,4,0,4,0,12,0,12,0,,,,,,,,,,,,,,,,,,,,,,,,,,,,,,,,,,,,,,,,,,,,,,,,,,,,,,,,,,,,,,,,,,,,,,0.065094365,,,,,,,,,,,,,,,,,,,,,,,,,,,,right,0,160,-30,130,1,2755.174786,2755.174786,2755.174786,None,None,2,0,0.3348505,,,,,,,,,,,,,,,,,,,10,17,1,2024-10-30_16h43.01.470,uWM_experiment,2022.2.3,59.99548834
,,,,,,,,,,,,,,,,,,,,4,0,4,0,13,0,13,0,,,,,,,,,,,,,,,,,,,,,,,,,,,,,,,,,,,,,,,,,,,,,,,,,,,,,,,,,,,,,,,,,,,,,,0.055094365,,,,,,,,,,,,,,,,,,,,,,,,,,,,left,1,10,-30,-20,1,2765.608617,2765.608617,2765.608617,None,None,3,0,0.4849487,,,,,,,,,,,,,,,,,,,10,17,1,2024-10-30_16h43.01.470,uWM_experiment,2022.2.3,59.99548834
,,,,,,,,,,,,,,,,,,,,4,0,4,0,14,0,14,0,,,,,,,,,,,,,,,,,,,,,,,,,,,,,,,,,,,,,,,,,,,,,,,,,,,,,,,,,,,,,,,,,,,,,,0,,,,,,,,,,,,,,,,,,,,,,,,,,,,left,1,10,-30,-20,0,2771.492195,2771.492195,2771.492195,None,None,1,1,0.3534298,,,,,,,,,,,,,,,,,,,10,17,1,2024-10-30_16h43.01.470,uWM_experiment,2022.2.3,59.99548834
,,,,,,,,,,,,,,,,,,,,4,0,4,0,15,0,15,0,,,,,,,,,,,,,,,,,,,,,,,,,,,,,,,,,,,,,,,,,,,,,,,,,,,,,,,,,,,,,,,,,,,,,,0.045094365,,,,,,,,,,,,,,,,,,,,,,,,,,,,left,1,40,-30,10,1,2778.275835,2778.275835,2778.275835,None,None,1,1,0.5058388,,,,,,,,,,,,,,,,,,,10,17,1,2024-10-30_16h43.01.470,uWM_experiment,2022.2.3,59.99548834
,,,,,,,,,,,,,,,,,,,,4,0,4,0,16,0,16,0,,,,,,,,,,,,,,,,,,,,,,,,,,,,,,,,,,,,,,,,,,,,,,,,,,,,,,,,,,,,,,,,,,,,,,0,,,,,,,,,,,,,,,,,,,,,,,,,,,,left,0,160,30,190,0,2784.20942,2784.20942,2784.20942,None,None,2,0,0.2521341,,,,,,,,,,,,,,,,,,,10,17,1,2024-10-30_16h43.01.470,uWM_experiment,2022.2.3,59.99548834
,,,,,,,,,,,,,,,,,,,,4,0,4,0,17,0,17,0,,,,,,,,,,,,,,,,,,,,,,,,,,,,,,,,,,,,,,,,,,,,,,,,,,,,,,,,,,,,,,,,,,,,,,0,,,,,,,,,,,,,,,,,,,,,,,,,,,,left,0,10,30,40,0,2789.75965,2789.75965,2789.75965,None,None,1,1,0.5019317,,,,,,,,,,,,,,,,,,,10,17,1,2024-10-30_16h43.01.470,uWM_experiment,2022.2.3,59.99548834
,,,,,,,,,,,,,,,,,,,,4,0,4,0,18,0,18,0,,,,,,,,,,,,,,,,,,,,,,,,,,,,,,,,,,,,,,,,,,,,,,,,,,,,,,,,,,,,,,,,,,,,,,0.055094365,,,,,,,,,,,,,,,,,,,,,,,,,,,,left,0,40,30,70,1,2795.676605,2795.676605,2795.676605,None,None,2,0,1.5369887,,,,,,,,,,,,,,,,,,,10,17,1,2024-10-30_16h43.01.470,uWM_experiment,2022.2.3,59.99548834
,,,,,,,,,,,,,,,,,,,,4,0,4,0,19,0,19,0,,,,,,,,,,,,,,,,,,,,,,,,,,,,,,,,,,,,,,,,,,,,,,,,,,,,,,,,,,,,,,,,,,,,,,0,,,,,,,,,,,,,,,,,,,,,,,,,,,,left,1,10,-30,-20,0,2802.376893,2802.376893,2802.376893,None,None,1,1,0.3568268,,,,,,,,,,,,,,,,,,,10,17,1,2024-10-30_16h43.01.470,uWM_experiment,2022.2.3,59.99548834
,,,,,,,,,,,,,,,,,,,,4,0,4,0,20,0,20,0,,,,,,,,,,,,,,,,,,,,,,,,,,,,,,,,,,,,,,,,,,,,,,,,,,,,,,,,,,,,,,,,,,,,,,0.045094365,,,,,,,,,,,,,,,,,,,,,,,,,,,,right,1,10,30,40,1,2813.294056,2813.294056,2813.294056,None,None,2,0,2.6555439,,,,,,,,,,,,,,,,,,,10,17,1,2024-10-30_16h43.01.470,uWM_experiment,2022.2.3,59.99548834
,,,,,,,,,,,,,,,,,,,,4,0,4,0,21,0,21,0,,,,,,,,,,,,,,,,,,,,,,,,,,,,,,,,,,,,,,,,,,,,,,,,,,,,,,,,,,,,,,,,,,,,,,0.035094365,,,,,,,,,,,,,,,,,,,,,,,,,,,,left,0,40,30,70,1,2821.427759,2821.427759,2821.427759,None,None,1,1,0.4419646,,,,,,,,,,,,,,,,,,,10,17,1,2024-10-30_16h43.01.470,uWM_experiment,2022.2.3,59.99548834
,,,,,,,,,,,,,,,,,,,,4,0,4,0,22,0,22,0,,,,,,,,,,,,,,,,,,,,,,,,,,,,,,,,,,,,,,,,,,,,,,,,,,,,,,,,,,,,,,,,,,,,,,0,,,,,,,,,,,,,,,,,,,,,,,,,,,,left,0,160,30,190,0,2827.378032,2827.378032,2827.378032,None,None,1,1,0.7796395,,,,,,,,,,,,,,,,,,,10,17,1,2024-10-30_16h43.01.470,uWM_experiment,2022.2.3,59.99548834
,,,,,,,,,,,,,,,,,,,,4,0,4,0,23,0,23,0,,,,,,,,,,,,,,,,,,,,,,,,,,,,,,,,,,,,,,,,,,,,,,,,,,,,,,,,,,,,,,,,,,,,,,0.045094365,,,,,,,,,,,,,,,,,,,,,,,,,,,,left,1,130,-30,100,1,2833.444965,2833.444965,2833.444965,None,None,1,1,0.4327756,,,,,,,,,,,,,,,,,,,10,17,1,2024-10-30_16h43.01.470,uWM_experiment,2022.2.3,59.99548834
,,,,,,,,,,,,,,,,,,,,4,0,4,0,,,,,0,0,0,0,,,,,,,,,,,,,,,,,,,,,,,,,,,,,,,,,,,,,,,,,,,,,,,,,,,,,,,,,,,,,,,,,,,,,,,,,,,,,,,,,,,,,,,,,,,,,,,,,,,,,,,,,,,,2833.894952,2833.894952,space,1.9427928,None,None,,,,,,,,,,,,,10,17,1,2024-10-30_16h43.01.470,uWM_experiment,2022.2.3,59.99548834
,,,,,,,,,,,,,,,,,,,,4,0,4,0,,,,,1,0,1,0,,,,,,,,,,,,,,,,,,,,,,,,,,,,,,,,,,,,,,,,,,,,,,,,,,,,,,,,,,,,,,,,,,,,,,,,,,,,,,,,,,,,,,,,,,,,,,,,,,,,,,,,,,,,,,,,,,,,,,,,,,,,,,10,17,1,2024-10-30_16h43.01.470,uWM_experiment,2022.2.3,59.99548834
,,,,,,,,,,,,,,,,,,,,4,0,4,0,,,,,2,0,2,0,,,,,,,,,,,,,,,,,,,,,,,,,,,,,,,,,,,,,,,,,,,,,,,,,,,,,,,,,,,,,,,,,,,,,,,,,,,,,,,,,,,,,,,,,,,,,,,,,,,,,,,,,,,,,,,,,,,,,,,,,,,,,,10,17,1,2024-10-30_16h43.01.470,uWM_experiment,2022.2.3,59.99548834
,,,,,,,,,,,,,,,,,,,,5,0,5,0,0,0,0,0,,,,,,,,,,,,,,,,,,,,,,,,,,,,,,,,,,,,,,,,,,,,,,,,,,,,,,,,,,,,,,,,,,,,,,0.1,,,,,,,,,,,,,,,,,,,,2835.861717,2836.561748,2836.861796,2837.561798,2837.861806,2838.561837,2838.561837,2838.878527,right,1,160,30,190,2,2854.11254,2854.11254,2854.11254,None,None,3,0,2.4452772,,,,,,,None,,,,,,,,,,,,10,17,1,2024-10-30_16h43.01.470,uWM_experiment,2022.2.3,59.99548834
,,,,,,,,,,,,,,,,,,,,5,0,5,0,1,0,1,0,,,,,,,,,,,,,,,,,,,,,,,,,,,,,,,,,,,,,,,,,,,,,,,,,,,,,,,,,,,,,,,,,,,,,,0.055094365,,,,,,,,,,,,,,,,,,,,,,,,,,,,left,1,70,-30,40,1,2861.796219,2861.796219,2861.796219,None,None,1,1,0.3534187,,,,,,,,,,,,,,,,,,,10,17,1,2024-10-30_16h43.01.470,uWM_experiment,2022.2.3,59.99548834
,,,,,,,,,,,,,,,,,,,,5,0,5,0,2,0,2,0,,,,,,,,,,,,,,,,,,,,,,,,,,,,,,,,,,,,,,,,,,,,,,,,,,,,,,,,,,,,,,,,,,,,,,0.065094365,,,,,,,,,,,,,,,,,,,,,,,,,,,,left,1,130,-30,100,1,2867.613174,2867.613174,2867.613174,None,None,1,1,0.2485878,,,,,,,,,,,,,,,,,,,10,17,1,2024-10-30_16h43.01.470,uWM_experiment,2022.2.3,59.99548834
,,,,,,,,,,,,,,,,,,,,5,0,5,0,3,0,3,0,,,,,,,,,,,,,,,,,,,,,,,,,,,,,,,,,,,,,,,,,,,,,,,,,,,,,,,,,,,,,,,,,,,,,,0.075094365,,,,,,,,,,,,,,,,,,,,,,,,,,,,right,0,160,-30,130,1,2875.080161,2875.080161,2875.080161,None,None,3,0,2.0854611,,,,,,,,,,,,,,,,,,,10,17,1,2024-10-30_16h43.01.470,uWM_experiment,2022.2.3,59.99548834
,,,,,,,,,,,,,,,,,,,,5,0,5,0,4,0,4,0,,,,,,,,,,,,,,,,,,,,,,,,,,,,,,,,,,,,,,,,,,,,,,,,,,,,,,,,,,,,,,,,,,,,,,0.1,,,,,,,,,,,,,,,,,,,,,,,,,,,,right,1,100,30,130,2,2884.797235,2884.797235,2884.797235,None,None,4,0,0.4644691,,,,,,,,,,,,,,,,,,,10,17,1,2024-10-30_16h43.01.470,uWM_experiment,2022.2.3,59.99548834
,,,,,,,,,,,,,,,,,,,,5,0,5,0,5,0,5,0,,,,,,,,,,,,,,,,,,,,,,,,,,,,,,,,,,,,,,,,,,,,,,,,,,,,,,,,,,,,,,,,,,,,,,0.065094365,,,,,,,,,,,,,,,,,,,,,,,,,,,,left,1,100,-30,70,1,2891.23086,2891.23086,2891.23086,None,None,2,0,0.4228396,,,,,,,,,,,,,,,,,,,10,17,1,2024-10-30_16h43.01.470,uWM_experiment,2022.2.3,59.99548834
,,,,,,,,,,,,,,,,,,,,5,0,5,0,6,0,6,0,,,,,,,,,,,,,,,,,,,,,,,,,,,,,,,,,,,,,,,,,,,,,,,,,,,,,,,,,,,,,,,,,,,,,,0.055094365,,,,,,,,,,,,,,,,,,,,,,,,,,,,left,0,10,30,40,1,2900.664603,2900.664603,2900.664603,None,None,2,0,0.9092048,,,,,,,,,,,,,,,,,,,10,17,1,2024-10-30_16h43.01.470,uWM_experiment,2022.2.3,59.99548834
,,,,,,,,,,,,,,,,,,,,5,0,5,0,7,0,7,0,,,,,,,,,,,,,,,,,,,,,,,,,,,,,,,,,,,,,,,,,,,,,,,,,,,,,,,,,,,,,,,,,,,,,,0,,,,,,,,,,,,,,,,,,,,,,,,,,,,left,0,160,30,190,0,2910.548383,2910.548383,2910.548383,None,None,3,0,3.6892834,,,,,,,,,,,,,,,,,,,10,17,1,2024-10-30_16h43.01.470,uWM_experiment,2022.2.3,59.99548834
,,,,,,,,,,,,,,,,,,,,5,0,5,0,8,0,8,0,,,,,,,,,,,,,,,,,,,,,,,,,,,,,,,,,,,,,,,,,,,,,,,,,,,,,,,,,,,,,,,,,,,,,,0.1,,,,,,,,,,,,,,,,,,,,,,,,,,,,left,0,70,30,100,2,2924.432341,2924.432341,2924.432341,None,None,3,0,2.8453844,,,,,,,,,,,,,,,,,,,10,17,1,2024-10-30_16h43.01.470,uWM_experiment,2022.2.3,59.99548834
,,,,,,,,,,,,,,,,,,,,5,0,5,0,9,0,9,0,,,,,,,,,,,,,,,,,,,,,,,,,,,,,,,,,,,,,,,,,,,,,,,,,,,,,,,,,,,,,,,,,,,,,,0.045094365,,,,,,,,,,,,,,,,,,,,,,,,,,,,left,0,40,30,70,1,2932.499379,2932.499379,2932.499379,None,None,2,0,0.6903807,,,,,,,,,,,,,,,,,,,10,17,1,2024-10-30_16h43.01.470,uWM_experiment,2022.2.3,59.99548834
,,,,,,,,,,,,,,,,,,,,5,0,5,0,10,0,10,0,,,,,,,,,,,,,,,,,,,,,,,,,,,,,,,,,,,,,,,,,,,,,,,,,,,,,,,,,,,,,,,,,,,,,,0.035094365,,,,,,,,,,,,,,,,,,,,,,,,,,,,left,0,160,30,190,1,2938.349622,2938.349622,2938.349622,None,None,1,1,0.3680883,,,,,,,,,,,,,,,,,,,10,17,1,2024-10-30_16h43.01.470,uWM_experiment,2022.2.3,59.99548834
,,,,,,,,,,,,,,,,,,,,5,0,5,0,11,0,11,0,,,,,,,,,,,,,,,,,,,,,,,,,,,,,,,,,,,,,,,,,,,,,,,,,,,,,,,,,,,,,,,,,,,,,,0.045094365,,,,,,,,,,,,,,,,,,,,,,,,,,,,left,1,130,-30,100,1,2943.933211,2943.933211,2943.933211,None,None,1,1,0.2645415,,,,,,,,,,,,,,,,,,,10,17,1,2024-10-30_16h43.01.470,uWM_experiment,2022.2.3,59.99548834
,,,,,,,,,,,,,,,,,,,,5,0,5,0,12,0,12,0,,,,,,,,,,,,,,,,,,,,,,,,,,,,,,,,,,,,,,,,,,,,,,,,,,,,,,,,,,,,,,,,,,,,,,0.055094365,,,,,,,,,,,,,,,,,,,,,,,,,,,,left,1,130,-30,100,1,2949.416807,2949.416807,2949.416807,None,None,1,1,0.3410229,,,,,,,,,,,,,,,,,,,10,17,1,2024-10-30_16h43.01.470,uWM_experiment,2022.2.3,59.99548834
,,,,,,,,,,,,,,,,,,,,5,0,5,0,13,0,13,0,,,,,,,,,,,,,,,,,,,,,,,,,,,,,,,,,,,,,,,,,,,,,,,,,,,,,,,,,,,,,,,,,,,,,,0.065094365,,,,,,,,,,,,,,,,,,,,,,,,,,,,right,1,10,30,40,1,2958.783899,2958.783899,2958.783899,None,None,3,0,1.3259269,,,,,,,,,,,,,,,,,,,10,17,1,2024-10-30_16h43.01.470,uWM_experiment,2022.2.3,59.99548834
,,,,,,,,,,,,,,,,,,,,5,0,5,0,14,0,14,0,,,,,,,,,,,,,,,,,,,,,,,,,,,,,,,,,,,,,,,,,,,,,,,,,,,,,,,,,,,,,,,,,,,,,,0.055094365,,,,,,,,,,,,,,,,,,,,,,,,,,,,left,1,70,-30,40,1,2965.634291,2965.634291,2965.634291,None,None,2,0,0.3394819,,,,,,,,,,,,,,,,,,,10,17,1,2024-10-30_16h43.01.470,uWM_experiment,2022.2.3,59.99548834
,,,,,,,,,,,,,,,,,,,,5,0,5,0,15,0,15,0,,,,,,,,,,,,,,,,,,,,,,,,,,,,,,,,,,,,,,,,,,,,,,,,,,,,,,,,,,,,,,,,,,,,,,0.045094365,,,,,,,,,,,,,,,,,,,,,,,,,,,,left,0,40,30,70,1,2971.334461,2971.334461,2971.334461,None,None,2,0,0.2312834,,,,,,,,,,,,,,,,,,,10,17,1,2024-10-30_16h43.01.470,uWM_experiment,2022.2.3,59.99548834
,,,,,,,,,,,,,,,,,,,,5,0,5,0,16,0,16,0,,,,,,,,,,,,,,,,,,,,,,,,,,,,,,,,,,,,,,,,,,,,,,,,,,,,,,,,,,,,,,,,,,,,,,0.035094365,,,,,,,,,,,,,,,,,,,,,,,,,,,,left,0,160,30,190,1,2977.034717,2977.034717,2977.034717,None,None,2,0,0.7391325,,,,,,,,,,,,,,,,,,,10,17,1,2024-10-30_16h43.01.470,uWM_experiment,2022.2.3,59.99548834
,,,,,,,,,,,,,,,,,,,,5,0,5,0,17,0,17,0,,,,,,,,,,,,,,,,,,,,,,,,,,,,,,,,,,,,,,,,,,,,,,,,,,,,,,,,,,,,,,,,,,,,,,0.025094365,,,,,,,,,,,,,,,,,,,,,,,,,,,,left,1,100,-30,70,1,2982.984969,2982.984969,2982.984969,None,None,1,1,0.356815,,,,,,,,,,,,,,,,,,,10,17,1,2024-10-30_16h43.01.470,uWM_experiment,2022.2.3,59.99548834
,,,,,,,,,,,,,,,,,,,,5,0,5,0,18,0,18,0,,,,,,,,,,,,,,,,,,,,,,,,,,,,,,,,,,,,,,,,,,,,,,,,,,,,,,,,,,,,,,,,,,,,,,0.035094365,,,,,,,,,,,,,,,,,,,,,,,,,,,,left,1,160,-30,130,1,2989.401927,2989.401927,2989.401927,None,None,1,1,0.4037901,,,,,,,,,,,,,,,,,,,10,17,1,2024-10-30_16h43.01.470,uWM_experiment,2022.2.3,59.99548834
,,,,,,,,,,,,,,,,,,,,5,0,5,0,19,0,19,0,,,,,,,,,,,,,,,,,,,,,,,,,,,,,,,,,,,,,,,,,,,,,,,,,,,,,,,,,,,,,,,,,,,,,,0,,,,,,,,,,,,,,,,,,,,,,,,,,,,left,1,70,-30,40,0,2995.002199,2995.002199,2995.002199,None,None,1,1,0.3315869,,,,,,,,,,,,,,,,,,,10,17,1,2024-10-30_16h43.01.470,uWM_experiment,2022.2.3,59.99548834
,,,,,,,,,,,,,,,,,,,,5,0,5,0,20,0,20,0,,,,,,,,,,,,,,,,,,,,,,,,,,,,,,,,,,,,,,,,,,,,,,,,,,,,,,,,,,,,,,,,,,,,,,0,,,,,,,,,,,,,,,,,,,,,,,,,,,,left,0,40,30,70,0,3000.702403,3000.702403,3000.702403,None,None,1,1,0.3113583,,,,,,,,,,,,,,,,,,,10,17,1,2024-10-30_16h43.01.470,uWM_experiment,2022.2.3,59.99548834
,,,,,,,,,,,,,,,,,,,,5,0,5,0,21,0,21,0,,,,,,,,,,,,,,,,,,,,,,,,,,,,,,,,,,,,,,,,,,,,,,,,,,,,,,,,,,,,,,,,,,,,,,0.045094365,,,,,,,,,,,,,,,,,,,,,,,,,,,,left,1,100,-30,70,1,3006.88603,3006.88603,3006.88603,None,None,1,1,0.2876871,,,,,,,,,,,,,,,,,,,10,17,1,2024-10-30_16h43.01.470,uWM_experiment,2022.2.3,59.99548834
,,,,,,,,,,,,,,,,,,,,5,0,5,0,22,0,22,0,,,,,,,,,,,,,,,,,,,,,,,,,,,,,,,,,,,,,,,,,,,,,,,,,,,,,,,,,,,,,,,,,,,,,,0.055094365,,,,,,,,,,,,,,,,,,,,,,,,,,,,left,0,100,30,130,1,3012.452944,3012.452944,3012.452944,None,None,1,1,0.3687482,,,,,,,,,,,,,,,,,,,10,17,1,2024-10-30_16h43.01.470,uWM_experiment,2022.2.3,59.99548834
,,,,,,,,,,,,,,,,,,,,5,0,5,0,23,0,23,0,,,,,,,,,,,,,,,,,,,,,,,,,,,,,,,,,,,,,,,,,,,,,,,,,,,,,,,,,,,,,,,,,,,,,,0,,,,,,,,,,,,,,,,,,,,,,,,,,,,left,0,160,30,190,0,3018.086537,3018.086537,3018.086537,None,None,1,1,0.3352157,,,,,,,,,,,,,,,,,,,10,17,1,2024-10-30_16h43.01.470,uWM_experiment,2022.2.3,59.99548834
,,,,,,,,,,,,,,,,,,,,5,0,5,0,,,,,0,0,0,0,,,,,,,,,,,,,,,,,,,,,,,,,,,,,,,,,,,,,,,,,,,,,,,,,,,,,,,,,,,,,,,,,,,,,,,,,,,,,,,,,,,,,,,,,,,,,,,,,,,,,,,,,,,,3018.453196,3018.453196,space,1.344629,space,None,,3019.819924,3019.819924,3.4578952,,,,,,,,,10,17,1,2024-10-30_16h43.01.470,uWM_experiment,2022.2.3,59.99548834
,,,,,,,,,,,,,,,,,,,,5,0,5,0,,,,,1,0,1,0,,,,,,,,,,,,,,,,,,,,,,,,,,,,,,,,,,,,,,,,,,,,,,,,,,,,,,,,,,,,,,,,,,,,,,,,,,,,,,,,,,,,,,,,,,,,,,,,,,,,,,,,,,,,,,,,,,,,,,,,,,,,,,10,17,1,2024-10-30_16h43.01.470,uWM_experiment,2022.2.3,59.99548834
,,,,,,,,,,,,,,,,,,,,5,0,5,0,,,,,2,0,2,0,,,,,,,,,,,,,,,,,,,,,,,,,,,,,,,,,,,,,,,,,,,,,,,,,,,,,,,,,,,,,,,,,,,,,,,,,,,,,,,,,,,,,,,,,,,,,,,,,,,,,,,,,,,,,,,,,,,,,,,,,,,,,,10,17,1,2024-10-30_16h43.01.470,uWM_experiment,2022.2.3,59.99548834
,,,,,,,,,,,,,,,,,,,,6,0,6,0,0,0,0,0,,,,,,,,,,,,,,,,,,,,,,,,,,,,,,,,,,,,,,,,,,,,,,,,,,,,,,,,,,,,,,,,,,,,,,0.065094365,,,,,,,,,,,,,,,,,,,,3023.303426,3024.003458,3024.303468,3025.003499,3025.303513,3026.003543,3026.003543,3026.320233,left,1,100,-30,70,1,3030.753748,3030.753748,3030.753748,None,None,1,1,1.0920846,,,,,,,None,,,,,,,,,,,,10,17,1,2024-10-30_16h43.01.470,uWM_experiment,2022.2.3,59.99548834
,,,,,,,,,,,,,,,,,,,,6,0,6,0,1,0,1,0,,,,,,,,,,,,,,,,,,,,,,,,,,,,,,,,,,,,,,,,,,,,,,,,,,,,,,,,,,,,,,,,,,,,,,0.075094365,,,,,,,,,,,,,,,,,,,,,,,,,,,,left,0,40,30,70,1,3037.320712,3037.320712,3037.320712,None,None,1,1,0.3970616,,,,,,,,,,,,,,,,,,,10,17,1,2024-10-30_16h43.01.470,uWM_experiment,2022.2.3,59.99548834
,,,,,,,,,,,,,,,,,,,,6,0,6,0,2,0,2,0,,,,,,,,,,,,,,,,,,,,,,,,,,,,,,,,,,,,,,,,,,,,,,,,,,,,,,,,,,,,,,,,,,,,,,0.085094365,,,,,,,,,,,,,,,,,,,,,,,,,,,,left,1,10,-30,-20,1,3044.021012,3044.021012,3044.021012,None,None,2,0,0.4808447,,,,,,,,,,,,,,,,,,,10,17,1,2024-10-30_16h43.01.470,uWM_experiment,2022.2.3,59.99548834
,,,,,,,,,,,,,,,,,,,,6,0,6,0,3,0,3,0,,,,,,,,,,,,,,,,,,,,,,,,,,,,,,,,,,,,,,,,,,,,,,,,,,,,,,,,,,,,,,,,,,,,,,0.075094365,,,,,,,,,,,,,,,,,,,,,,,,,,,,right,1,160,30,190,1,3054.471499,3054.471499,3054.471499,None,None,3,0,1.2063836,,,,,,,,,,,,,,,,,,,10,17,1,2024-10-30_16h43.01.470,uWM_experiment,2022.2.3,59.99548834
,,,,,,,,,,,,,,,,,,,,6,0,6,0,4,0,4,0,,,,,,,,,,,,,,,,,,,,,,,,,,,,,,,,,,,,,,,,,,,,,,,,,,,,,,,,,,,,,,,,,,,,,,0.065094365,,,,,,,,,,,,,,,,,,,,,,,,,,,,right,1,160,30,190,1,3062.588545,3062.588545,3062.588545,None,None,4,0,2.4252458,,,,,,,,,,,,,,,,,,,10,17,1,2024-10-30_16h43.01.470,uWM_experiment,2022.2.3,59.99548834
,,,,,,,,,,,,,,,,,,,,6,0,6,0,5,0,5,0,,,,,,,,,,,,,,,,,,,,,,,,,,,,,,,,,,,,,,,,,,,,,,,,,,,,,,,,,,,,,,,,,,,,,,0.055094365,,,,,,,,,,,,,,,,,,,,,,,,,,,,left,1,10,-30,-20,1,3071.755603,3071.755603,3071.755603,None,None,2,0,2.7783221,,,,,,,,,,,,,,,,,,,10,17,1,2024-10-30_16h43.01.470,uWM_experiment,2022.2.3,59.99548834
,,,,,,,,,,,,,,,,,,,,6,0,6,0,6,0,6,0,,,,,,,,,,,,,,,,,,,,,,,,,,,,,,,,,,,,,,,,,,,,,,,,,,,,,,,,,,,,,,,,,,,,,,0.045094365,,,,,,,,,,,,,,,,,,,,,,,,,,,,right,0,70,-30,40,1,3083.256126,3083.256126,3083.256126,None,None,2,0,1.2777656,,,,,,,,,,,,,,,,,,,10,17,1,2024-10-30_16h43.01.470,uWM_experiment,2022.2.3,59.99548834
,,,,,,,,,,,,,,,,,,,,6,0,6,0,7,0,7,0,,,,,,,,,,,,,,,,,,,,,,,,,,,,,,,,,,,,,,,,,,,,,,,,,,,,,,,,,,,,,,,,,,,,,,0.1,,,,,,,,,,,,,,,,,,,,,,,,,,,,right,0,160,-30,130,2,3096.990072,3096.990072,3096.990072,None,None,2,0,0.2397531,,,,,,,,,,,,,,,,,,,10,17,1,2024-10-30_16h43.01.470,uWM_experiment,2022.2.3,59.99548834
,,,,,,,,,,,,,,,,,,,,6,0,6,0,8,0,8,0,,,,,,,,,,,,,,,,,,,,,,,,,,,,,,,,,,,,,,,,,,,,,,,,,,,,,,,,,,,,,,,,,,,,,,0,,,,,,,,,,,,,,,,,,,,,,,,,,,,left,0,160,30,190,0,3102.506966,3102.506966,3102.506966,None,None,1,1,0.2828707,,,,,,,,,,,,,,,,,,,10,17,1,2024-10-30_16h43.01.470,uWM_experiment,2022.2.3,59.99548834
,,,,,,,,,,,,,,,,,,,,6,0,6,0,9,0,9,0,,,,,,,,,,,,,,,,,,,,,,,,,,,,,,,,,,,,,,,,,,,,,,,,,,,,,,,,,,,,,,,,,,,,,,0.035094365,,,,,,,,,,,,,,,,,,,,,,,,,,,,left,1,10,-30,-20,1,3108.657251,3108.657251,3108.657251,None,None,1,1,0.4765373,,,,,,,,,,,,,,,,,,,10,17,1,2024-10-30_16h43.01.470,uWM_experiment,2022.2.3,59.99548834
,,,,,,,,,,,,,,,,,,,,6,0,6,0,10,0,10,0,,,,,,,,,,,,,,,,,,,,,,,,,,,,,,,,,,,,,,,,,,,,,,,,,,,,,,,,,,,,,,,,,,,,,,0,,,,,,,,,,,,,,,,,,,,,,,,,,,,left,0,160,30,190,0,3114.824196,3114.824196,3114.824196,None,None,1,1,0.2936124,,,,,,,,,,,,,,,,,,,10,17,1,2024-10-30_16h43.01.470,uWM_experiment,2022.2.3,59.99548834
,,,,,,,,,,,,,,,,,,,,6,0,6,0,11,0,11,0,,,,,,,,,,,,,,,,,,,,,,,,,,,,,,,,,,,,,,,,,,,,,,,,,,,,,,,,,,,,,,,,,,,,,,0.045094365,,,,,,,,,,,,,,,,,,,,,,,,,,,,left,1,40,-30,10,1,3120.607764,3120.607764,3120.607764,None,None,2,0,0.2539908,,,,,,,,,,,,,,,,,,,10,17,1,2024-10-30_16h43.01.470,uWM_experiment,2022.2.3,59.99548834
,,,,,,,,,,,,,,,,,,,,6,0,6,0,12,0,12,0,,,,,,,,,,,,,,,,,,,,,,,,,,,,,,,,,,,,,,,,,,,,,,,,,,,,,,,,,,,,,,,,,,,,,,0.035094365,,,,,,,,,,,,,,,,,,,,,,,,,,,,left,0,70,30,100,1,3126.09136,3126.09136,3126.09136,None,None,1,1,0.3305098,,,,,,,,,,,,,,,,,,,10,17,1,2024-10-30_16h43.01.470,uWM_experiment,2022.2.3,59.99548834
,,,,,,,,,,,,,,,,,,,,6,0,6,0,13,0,13,0,,,,,,,,,,,,,,,,,,,,,,,,,,,,,,,,,,,,,,,,,,,,,,,,,,,,,,,,,,,,,,,,,,,,,,0.045094365,,,,,,,,,,,,,,,,,,,,,,,,,,,,left,0,160,30,190,1,3131.791603,3131.791603,3131.791603,None,None,1,1,0.3821963,,,,,,,,,,,,,,,,,,,10,17,1,2024-10-30_16h43.01.470,uWM_experiment,2022.2.3,59.99548834
,,,,,,,,,,,,,,,,,,,,6,0,6,0,14,0,14,0,,,,,,,,,,,,,,,,,,,,,,,,,,,,,,,,,,,,,,,,,,,,,,,,,,,,,,,,,,,,,,,,,,,,,,0.055094365,,,,,,,,,,,,,,,,,,,,,,,,,,,,left,0,40,30,70,1,3139.025274,3139.025274,3139.025274,None,None,1,1,0.7966752,,,,,,,,,,,,,,,,,,,10,17,1,2024-10-30_16h43.01.470,uWM_experiment,2022.2.3,59.99548834
,,,,,,,,,,,,,,,,,,,,6,0,6,0,15,0,15,0,,,,,,,,,,,,,,,,,,,,,,,,,,,,,,,,,,,,,,,,,,,,,,,,,,,,,,,,,,,,,,,,,,,,,,0.065094365,,,,,,,,,,,,,,,,,,,,,,,,,,,,left,1,100,-30,70,1,3149.742419,3149.742419,3149.742419,None,None,2,0,10.1513748,,,,,,,,,,,,,,,,,,,10,17,1,2024-10-30_16h43.01.470,uWM_experiment,2022.2.3,59.99548834
,,,,,,,,,,,,,,,,,,,,6,0,6,0,16,0,16,0,,,,,,,,,,,,,,,,,,,,,,,,,,,,,,,,,,,,,,,,,,,,,,,,,,,,,,,,,,,,,,,,,,,,,,0.055094365,,,,,,,,,,,,,,,,,,,,,,,,,,,,left,0,160,30,190,1,3167.309868,3167.309868,3167.309868,None,None,2,0,0.2959705,,,,,,,,,,,,,,,,,,,10,17,1,2024-10-30_16h43.01.470,uWM_experiment,2022.2.3,59.99548834
,,,,,,,,,,,,,,,,,,,,6,0,6,0,17,0,17,0,,,,,,,,,,,,,,,,,,,,,,,,,,,,,,,,,,,,,,,,,,,,,,,,,,,,,,,,,,,,,,,,,,,,,,0,,,,,,,,,,,,,,,,,,,,,,,,,,,,left,0,70,30,100,0,3174.860202,3174.860202,3174.860202,None,None,1,1,0.4976521,,,,,,,,,,,,,,,,,,,10,17,1,2024-10-30_16h43.01.470,uWM_experiment,2022.2.3,59.99548834
,,,,,,,,,,,,,,,,,,,,6,0,6,0,18,0,18,0,,,,,,,,,,,,,,,,,,,,,,,,,,,,,,,,,,,,,,,,,,,,,,,,,,,,,,,,,,,,,,,,,,,,,,0.045094365,,,,,,,,,,,,,,,,,,,,,,,,,,,,left,1,40,-30,10,1,3181.893861,3181.893861,3181.893861,None,None,1,1,0.2960566,,,,,,,,,,,,,,,,,,,10,17,1,2024-10-30_16h43.01.470,uWM_experiment,2022.2.3,59.99548834
,,,,,,,,,,,,,,,,,,,,6,0,6,0,19,0,19,0,,,,,,,,,,,,,,,,,,,,,,,,,,,,,,,,,,,,,,,,,,,,,,,,,,,,,,,,,,,,,,,,,,,,,,0,,,,,,,,,,,,,,,,,,,,,,,,,,,,left,1,130,-30,100,0,3187.427431,3187.427431,3187.427431,None,None,1,1,0.3703946,,,,,,,,,,,,,,,,,,,10,17,1,2024-10-30_16h43.01.470,uWM_experiment,2022.2.3,59.99548834
,,,,,,,,,,,,,,,,,,,,6,0,6,0,20,0,20,0,,,,,,,,,,,,,,,,,,,,,,,,,,,,,,,,,,,,,,,,,,,,,,,,,,,,,,,,,,,,,,,,,,,,,,0.055094365,,,,,,,,,,,,,,,,,,,,,,,,,,,,left,0,130,30,160,1,3193.144335,3193.144335,3193.144335,None,None,1,1,0.3015054,,,,,,,,,,,,,,,,,,,10,17,1,2024-10-30_16h43.01.470,uWM_experiment,2022.2.3,59.99548834
,,,,,,,,,,,,,,,,,,,,6,0,6,0,21,0,21,0,,,,,,,,,,,,,,,,,,,,,,,,,,,,,,,,,,,,,,,,,,,,,,,,,,,,,,,,,,,,,,,,,,,,,,0.065094365,,,,,,,,,,,,,,,,,,,,,,,,,,,,left,1,40,-30,10,1,3198.811286,3198.811286,3198.811286,None,None,1,1,0.2985683,,,,,,,,,,,,,,,,,,,10,17,1,2024-10-30_16h43.01.470,uWM_experiment,2022.2.3,59.99548834
,,,,,,,,,,,,,,,,,,,,6,0,6,0,22,0,22,0,,,,,,,,,,,,,,,,,,,,,,,,,,,,,,,,,,,,,,,,,,,,,,,,,,,,,,,,,,,,,,,,,,,,,,0.075094365,,,,,,,,,,,,,,,,,,,,,,,,,,,,left,0,40,30,70,1,3205.211564,3205.211564,3205.211564,None,None,1,1,0.5063759,,,,,,,,,,,,,,,,,,,10,17,1,2024-10-30_16h43.01.470,uWM_experiment,2022.2.3,59.99548834
,,,,,,,,,,,,,,,,,,,,6,0,6,0,23,0,23,0,,,,,,,,,,,,,,,,,,,,,,,,,,,,,,,,,,,,,,,,,,,,,,,,,,,,,,,,,,,,,,,,,,,,,,0.085094365,,,,,,,,,,,,,,,,,,,,,,,,,,,,left,1,40,-30,10,1,3211.595171,3211.595171,3211.595171,None,None,1,1,0.5948245,,,,,,,,,,,,,,,,,,,10,17,1,2024-10-30_16h43.01.470,uWM_experiment,2022.2.3,59.99548834
,,,,,,,,,,,,,,,,,,,,6,0,6,0,,,,,0,0,0,0,,,,,,,,,,,,,,,,,,,,,,,,,,,,,,,,,,,,,,,,,,,,,,,,,,,,,,,,,,,,,,,,,,,,,,,,,,,,,,,,,,,,,,,,,,,,,,,,,,,,,,,,,,,,3212.211861,3212.211861,space,12.0900734,None,space,,,,,3224.329055,3224.329055,10.9489234,,,,,,10,17,1,2024-10-30_16h43.01.470,uWM_experiment,2022.2.3,59.99548834
,,,,,,,,,,,,,,,,,,,,6,0,6,0,,,,,1,0,1,0,,,,,,,,,,,,,,,,,,,,,,,,,,,,,,,,,,,,,,,,,,,,,,,,,,,,,,,,,,,,,,,,,,,,,,,,,,,,,,,,,,,,,,,,,,,,,,,,,,,,,,,,,,,,,,,,,,,,,,,,,,,,,,10,17,1,2024-10-30_16h43.01.470,uWM_experiment,2022.2.3,59.99548834
,,,,,,,,,,,,,,,,,,,,6,0,6,0,,,,,2,0,2,0,,,,,,,,,,,,,,,,,,,,,,,,,,,,,,,,,,,,,,,,,,,,,,,,,,,,,,,,,,,,,,,,,,,,,,,,,,,,,,,,,,,,,,,,,,,,,,,,,,,,,,,,,,,,,,,,,,,,,,,,,,,,,,10,17,1,2024-10-30_16h43.01.470,uWM_experiment,2022.2.3,59.99548834
,,,,,,,,,,,,,,,,,,,,7,0,7,0,0,0,0,0,,,,,,,,,,,,,,,,,,,,,,,,,,,,,,,,,,,,,,,,,,,,,,,,,,,,,,,,,,,,,,,,,,,,,,0.095094365,,,,,,,,,,,,,,,,,,,,3247.880113,3248.580171,3248.863491,3249.563527,3249.863537,3250.563561,3250.563561,3250.880249,left,0,70,30,100,1,3256.613838,3256.613838,3256.613838,None,None,1,1,0.2880091,,,,,,,space,,,,,,,3243.246589,3243.246589,4.6073237,,,10,17,1,2024-10-30_16h43.01.470,uWM_experiment,2022.2.3,59.99548834
,,,,,,,,,,,,,,,,,,,,7,0,7,0,1,0,1,0,,,,,,,,,,,,,,,,,,,,,,,,,,,,,,,,,,,,,,,,,,,,,,,,,,,,,,,,,,,,,,,,,,,,,,0.105094365,,,,,,,,,,,,,,,,,,,,,,,,,,,,left,0,70,30,100,1,3262.914135,3262.914135,3262.914135,None,None,2,0,0.5718355,,,,,,,,,,,,,,,,,,,10,17,1,2024-10-30_16h43.01.470,uWM_experiment,2022.2.3,59.99548834
,,,,,,,,,,,,,,,,,,,,7,0,7,0,2,0,2,0,,,,,,,,,,,,,,,,,,,,,,,,,,,,,,,,,,,,,,,,,,,,,,,,,,,,,,,,,,,,,,,,,,,,,,0,,,,,,,,,,,,,,,,,,,,,,,,,,,,left,0,130,30,160,0,3268.8644,3268.8644,3268.8644,None,None,1,1,0.2614973,,,,,,,,,,,,,,,,,,,10,17,1,2024-10-30_16h43.01.470,uWM_experiment,2022.2.3,59.99548834
,,,,,,,,,,,,,,,,,,,,7,0,7,0,3,0,3,0,,,,,,,,,,,,,,,,,,,,,,,,,,,,,,,,,,,,,,,,,,,,,,,,,,,,,,,,,,,,,,,,,,,,,,0.095094365,,,,,,,,,,,,,,,,,,,,,,,,,,,,left,0,40,30,70,1,3274.381334,3274.381334,3274.381334,None,None,2,0,1.3766621,,,,,,,,,,,,,,,,,,,10,17,1,2024-10-30_16h43.01.470,uWM_experiment,2022.2.3,59.99548834
,,,,,,,,,,,,,,,,,,,,7,0,7,0,4,0,4,0,,,,,,,,,,,,,,,,,,,,,,,,,,,,,,,,,,,,,,,,,,,,,,,,,,,,,,,,,,,,,,,,,,,,,,0,,,,,,,,,,,,,,,,,,,,,,,,,,,,left,0,70,30,100,0,3281.031608,3281.031608,3281.031608,None,None,2,0,0.3903458,,,,,,,,,,,,,,,,,,,10,17,1,2024-10-30_16h43.01.470,uWM_experiment,2022.2.3,59.99548834
,,,,,,,,,,,,,,,,,,,,7,0,7,0,5,0,5,0,,,,,,,,,,,,,,,,,,,,,,,,,,,,,,,,,,,,,,,,,,,,,,,,,,,,,,,,,,,,,,,,,,,,,,0,,,,,,,,,,,,,,,,,,,,,,,,,,,,left,1,100,-30,70,0,3293.282166,3293.282166,3293.282166,None,None,2,0,2.5157438,,,,,,,,,,,,,,,,,,,10,17,1,2024-10-30_16h43.01.470,uWM_experiment,2022.2.3,59.99548834
,,,,,,,,,,,,,,,,,,,,7,0,7,0,6,0,6,0,,,,,,,,,,,,,,,,,,,,,,,,,,,,,,,,,,,,,,,,,,,,,,,,,,,,,,,,,,,,,,,,,,,,,,0.085094365,,,,,,,,,,,,,,,,,,,,,,,,,,,,left,1,70,-30,40,1,3301.032509,3301.032509,3301.032509,None,None,1,1,0.3814661,,,,,,,,,,,,,,,,,,,10,17,1,2024-10-30_16h43.01.470,uWM_experiment,2022.2.3,59.99548834
,,,,,,,,,,,,,,,,,,,,7,0,7,0,7,0,7,0,,,,,,,,,,,,,,,,,,,,,,,,,,,,,,,,,,,,,,,,,,,,,,,,,,,,,,,,,,,,,,,,,,,,,,0.095094365,,,,,,,,,,,,,,,,,,,,,,,,,,,,left,0,160,30,190,1,3322.300098,3322.300098,3322.300098,None,None,3,0,0.8978436,,,,,,,,,,,,,,,,,,,10,17,1,2024-10-30_16h43.01.470,uWM_experiment,2022.2.3,59.99548834
,,,,,,,,,,,,,,,,,,,,7,0,7,0,8,0,8,0,,,,,,,,,,,,,,,,,,,,,,,,,,,,,,,,,,,,,,,,,,,,,,,,,,,,,,,,,,,,,,,,,,,,,,0.085094365,,,,,,,,,,,,,,,,,,,,,,,,,,,,left,0,160,30,190,1,3330.750491,3330.750491,3330.750491,None,None,2,0,0.663414,,,,,,,,,,,,,,,,,,,10,17,1,2024-10-30_16h43.01.470,uWM_experiment,2022.2.3,59.99548834
,,,,,,,,,,,,,,,,,,,,7,0,7,0,9,0,9,0,,,,,,,,,,,,,,,,,,,,,,,,,,,,,,,,,,,,,,,,,,,,,,,,,,,,,,,,,,,,,,,,,,,,,,0.075094365,,,,,,,,,,,,,,,,,,,,,,,,,,,,left,1,40,-30,10,1,3348.217922,3348.217922,3348.217922,None,None,2,0,0.7801694,,,,,,,,,,,,,,,,,,,10,17,1,2024-10-30_16h43.01.470,uWM_experiment,2022.2.3,59.99548834
,,,,,,,,,,,,,,,,,,,,7,0,7,0,10,0,10,0,,,,,,,,,,,,,,,,,,,,,,,,,,,,,,,,,,,,,,,,,,,,,,,,,,,,,,,,,,,,,,,,,,,,,,0.065094365,,,,,,,,,,,,,,,,,,,,,,,,,,,,right,0,130,-30,100,1,3355.35159,3355.35159,3355.35159,None,None,3,0,2.0623748,,,,,,,,,,,,,,,,,,,10,17,1,2024-10-30_16h43.01.470,uWM_experiment,2022.2.3,59.99548834
,,,,,,,,,,,,,,,,,,,,7,0,7,0,11,0,11,0,,,,,,,,,,,,,,,,,,,,,,,,,,,,,,,,,,,,,,,,,,,,,,,,,,,,,,,,,,,,,,,,,,,,,,0.055094365,,,,,,,,,,,,,,,,,,,,,,,,,,,,left,0,130,30,160,1,3363.935317,3363.935317,3363.935317,None,None,3,0,1.5906112,,,,,,,,,,,,,,,,,,,10,17,1,2024-10-30_16h43.01.470,uWM_experiment,2022.2.3,59.99548834
,,,,,,,,,,,,,,,,,,,,7,0,7,0,12,0,12,0,,,,,,,,,,,,,,,,,,,,,,,,,,,,,,,,,,,,,,,,,,,,,,,,,,,,,,,,,,,,,,,,,,,,,,0,,,,,,,,,,,,,,,,,,,,,,,,,,,,right,0,130,-30,100,0,3373.552415,3373.552415,3373.552415,None,None,1,1,0.8375316,,,,,,,,,,,,,,,,,,,10,17,1,2024-10-30_16h43.01.470,uWM_experiment,2022.2.3,59.99548834
,,,,,,,,,,,,,,,,,,,,7,0,7,0,13,0,13,0,,,,,,,,,,,,,,,,,,,,,,,,,,,,,,,,,,,,,,,,,,,,,,,,,,,,,,,,,,,,,,,,,,,,,,0.045094365,,,,,,,,,,,,,,,,,,,,,,,,,,,,left,1,130,-30,100,1,3379.552664,3379.552664,3379.552664,None,None,1,1,0.2613663,,,,,,,,,,,,,,,,,,,10,17,1,2024-10-30_16h43.01.470,uWM_experiment,2022.2.3,59.99548834
,,,,,,,,,,,,,,,,,,,,7,0,7,0,14,0,14,0,,,,,,,,,,,,,,,,,,,,,,,,,,,,,,,,,,,,,,,,,,,,,,,,,,,,,,,,,,,,,,,,,,,,,,0.055094365,,,,,,,,,,,,,,,,,,,,,,,,,,,,left,1,10,-30,-20,1,3385.086263,3385.086263,3385.086263,None,None,2,0,0.3436755,,,,,,,,,,,,,,,,,,,10,17,1,2024-10-30_16h43.01.470,uWM_experiment,2022.2.3,59.99548834
,,,,,,,,,,,,,,,,,,,,7,0,7,0,15,0,15,0,,,,,,,,,,,,,,,,,,,,,,,,,,,,,,,,,,,,,,,,,,,,,,,,,,,,,,,,,,,,,,,,,,,,,,0.045094365,,,,,,,,,,,,,,,,,,,,,,,,,,,,left,0,70,30,100,1,3391.453221,3391.453221,3391.453221,None,None,1,1,1.0887145,,,,,,,,,,,,,,,,,,,10,17,1,2024-10-30_16h43.01.470,uWM_experiment,2022.2.3,59.99548834
,,,,,,,,,,,,,,,,,,,,7,0,7,0,16,0,16,0,,,,,,,,,,,,,,,,,,,,,,,,,,,,,,,,,,,,,,,,,,,,,,,,,,,,,,,,,,,,,,,,,,,,,,0,,,,,,,,,,,,,,,,,,,,,,,,,,,,left,1,130,-30,100,0,3398.37018,3398.37018,3398.37018,None,None,2,0,1.1478987,,,,,,,,,,,,,,,,,,,10,17,1,2024-10-30_16h43.01.470,uWM_experiment,2022.2.3,59.99548834
,,,,,,,,,,,,,,,,,,,,7,0,7,0,17,0,17,0,,,,,,,,,,,,,,,,,,,,,,,,,,,,,,,,,,,,,,,,,,,,,,,,,,,,,,,,,,,,,,,,,,,,,,0.055094365,,,,,,,,,,,,,,,,,,,,,,,,,,,,left,1,10,-30,-20,1,3407.970611,3407.970611,3407.970611,None,None,3,0,0.9553657,,,,,,,,,,,,,,,,,,,10,17,1,2024-10-30_16h43.01.470,uWM_experiment,2022.2.3,59.99548834
,,,,,,,,,,,,,,,,,,,,7,0,7,0,18,0,18,0,,,,,,,,,,,,,,,,,,,,,,,,,,,,,,,,,,,,,,,,,,,,,,,,,,,,,,,,,,,,,,,,,,,,,,0.045094365,,,,,,,,,,,,,,,,,,,,,,,,,,,,left,0,160,30,190,1,3417.087703,3417.087703,3417.087703,None,None,3,0,2.8702353,,,,,,,,,,,,,,,,,,,10,17,1,2024-10-30_16h43.01.470,uWM_experiment,2022.2.3,59.99548834
,,,,,,,,,,,,,,,,,,,,7,0,7,0,19,0,19,0,,,,,,,,,,,,,,,,,,,,,,,,,,,,,,,,,,,,,,,,,,,,,,,,,,,,,,,,,,,,,,,,,,,,,,0.035094365,,,,,,,,,,,,,,,,,,,,,,,,,,,,left,1,40,-30,10,1,3427.954834,3427.954834,3427.954834,None,None,1,1,2.1631667,,,,,,,,,,,,,,,,,,,10,17,1,2024-10-30_16h43.01.470,uWM_experiment,2022.2.3,59.99548834
,,,,,,,,,,,,,,,,,,,,7,0,7,0,20,0,20,0,,,,,,,,,,,,,,,,,,,,,,,,,,,,,,,,,,,,,,,,,,,,,,,,,,,,,,,,,,,,,,,,,,,,,,0,,,,,,,,,,,,,,,,,,,,,,,,,,,,left,0,160,30,190,0,3438.38864,3438.38864,3438.38864,None,None,1,1,0.337283,,,,,,,,,,,,,,,,,,,10,17,1,2024-10-30_16h43.01.470,uWM_experiment,2022.2.3,59.99548834
,,,,,,,,,,,,,,,,,,,,7,0,7,0,21,0,21,0,,,,,,,,,,,,,,,,,,,,,,,,,,,,,,,,,,,,,,,,,,,,,,,,,,,,,,,,,,,,,,,,,,,,,,0.045094365,,,,,,,,,,,,,,,,,,,,,,,,,,,,left,1,70,-30,40,1,3444.47223,3444.47223,3444.47223,None,None,1,1,0.4297468,,,,,,,,,,,,,,,,,,,10,17,1,2024-10-30_16h43.01.470,uWM_experiment,2022.2.3,59.99548834
,,,,,,,,,,,,,,,,,,,,7,0,7,0,22,0,22,0,,,,,,,,,,,,,,,,,,,,,,,,,,,,,,,,,,,,,,,,,,,,,,,,,,,,,,,,,,,,,,,,,,,,,,0,,,,,,,,,,,,,,,,,,,,,,,,,,,,left,0,40,30,70,0,3454.122673,3454.122673,3454.122673,None,None,2,0,0.4673535,,,,,,,,,,,,,,,,,,,10,17,1,2024-10-30_16h43.01.470,uWM_experiment,2022.2.3,59.99548834
,,,,,,,,,,,,,,,,,,,,7,0,7,0,23,0,23,0,,,,,,,,,,,,,,,,,,,,,,,,,,,,,,,,,,,,,,,,,,,,,,,,,,,,,,,,,,,,,,,,,,,,,,0,,,,,,,,,,,,,,,,,,,,,,,,,,,,left,1,70,-30,40,0,3461.089638,3461.089638,3461.089638,None,None,1,1,0.2923618,,,,,,,,,,,,,,,,,,,10,17,1,2024-10-30_16h43.01.470,uWM_experiment,2022.2.3,59.99548834
,,,,,,,,,,,,,,,,,,,,7,0,7,0,,,,,0,0,0,0,,,,,,,,,,,,,,,,,,,,,,,,,,,,,,,,,,,,,,,,,,,,,,,,,,,,,,,,,,,,,,,,,,,,,,,,,,,,,,,,,,,,,,,,,,,,,,,,,,,,,,,,,,,,3461.406287,3461.406287,space,36.927745,None,None,,,,,,,,,,,,,10,17,1,2024-10-30_16h43.01.470,uWM_experiment,2022.2.3,59.99548834
,,,,,,,,,,,,,,,,,,,,7,0,7,0,,,,,1,0,1,0,,,,,,,,,,,,,,,,,,,,,,,,,,,,,,,,,,,,,,,,,,,,,,,,,,,,,,,,,,,,,,,,,,,,,,,,,,,,,,,,,,,,,,,,,,,,,,,,,,,,,,,,,,,,,,,,,,,,,,,,,,,,,,10,17,1,2024-10-30_16h43.01.470,uWM_experiment,2022.2.3,59.99548834
,,,,,,,,,,,,,,,,,,,,7,0,7,0,,,,,2,0,2,0,,,,,,,,,,,,,,,,,,,,,,,,,,,,,,,,,,,,,,,,,,,,,,,,,,,,,,,,,,,,,,,,,,,,,,,,,,,,,,,,,,,,,,,,,,,,,,,,,,,,,,,,,,,,,,,,,,,,,,,,,,,,,,10,17,1,2024-10-30_16h43.01.470,uWM_experiment,2022.2.3,59.99548834
,,,,,,,,,,,,,,,,,,,,8,0,8,0,0,0,0,0,,,,,,,,,,,,,,,,,,,,,,,,,,,,,,,,,,,,,,,,,,,,,,,,,,,,,,,,,,,,,,,,,,,,,,0.055094365,,,,,,,,,,,,,,,,,,,,3498.357959,3499.057985,3499.358,3500.058029,3500.358044,3501.058063,3501.058063,3501.37476,right,1,70,30,100,1,3506.858349,3506.858349,3506.858349,None,None,3,0,1.7716263,,,,,,,None,,,,,,,,,,,,10,17,1,2024-10-30_16h43.01.470,uWM_experiment,2022.2.3,59.99548834
,,,,,,,,,,,,,,,,,,,,8,0,8,0,1,0,1,0,,,,,,,,,,,,,,,,,,,,,,,,,,,,,,,,,,,,,,,,,,,,,,,,,,,,,,,,,,,,,,,,,,,,,,0.045094365,,,,,,,,,,,,,,,,,,,,,,,,,,,,left,1,130,-30,100,1,3514.708706,3514.708706,3514.708706,None,None,3,0,0.705296,,,,,,,,,,,,,,,,,,,10,17,1,2024-10-30_16h43.01.470,uWM_experiment,2022.2.3,59.99548834
,,,,,,,,,,,,,,,,,,,,8,0,8,0,2,0,2,0,,,,,,,,,,,,,,,,,,,,,,,,,,,,,,,,,,,,,,,,,,,,,,,,,,,,,,,,,,,,,,,,,,,,,,0.035094365,,,,,,,,,,,,,,,,,,,,,,,,,,,,left,1,10,-30,-20,1,3520.692301,3520.692301,3520.692301,None,None,2,0,0.3697039,,,,,,,,,,,,,,,,,,,10,17,1,2024-10-30_16h43.01.470,uWM_experiment,2022.2.3,59.99548834
,,,,,,,,,,,,,,,,,,,,8,0,8,0,3,0,3,0,,,,,,,,,,,,,,,,,,,,,,,,,,,,,,,,,,,,,,,,,,,,,,,,,,,,,,,,,,,,,,,,,,,,,,0.025094365,,,,,,,,,,,,,,,,,,,,,,,,,,,,left,1,40,-30,10,1,3526.492544,3526.492544,3526.492544,None,None,2,0,0.3054878,,,,,,,,,,,,,,,,,,,10,17,1,2024-10-30_16h43.01.470,uWM_experiment,2022.2.3,59.99548834
,,,,,,,,,,,,,,,,,,,,8,0,8,0,4,0,4,0,,,,,,,,,,,,,,,,,,,,,,,,,,,,,,,,,,,,,,,,,,,,,,,,,,,,,,,,,,,,,,,,,,,,,,0.015094365,,,,,,,,,,,,,,,,,,,,,,,,,,,,left,1,100,-30,70,1,3532.609501,3532.609501,3532.609501,None,None,1,1,0.4285361,,,,,,,,,,,,,,,,,,,10,17,1,2024-10-30_16h43.01.470,uWM_experiment,2022.2.3,59.99548834
,,,,,,,,,,,,,,,,,,,,8,0,8,0,5,0,5,0,,,,,,,,,,,,,,,,,,,,,,,,,,,,,,,,,,,,,,,,,,,,,,,,,,,,,,,,,,,,,,,,,,,,,,0.025094365,,,,,,,,,,,,,,,,,,,,,,,,,,,,left,0,10,30,40,1,3538.276407,3538.276407,3538.276407,None,None,1,1,0.3136512,,,,,,,,,,,,,,,,,,,10,17,1,2024-10-30_16h43.01.470,uWM_experiment,2022.2.3,59.99548834
,,,,,,,,,,,,,,,,,,,,8,0,8,0,6,0,6,0,,,,,,,,,,,,,,,,,,,,,,,,,,,,,,,,,,,,,,,,,,,,,,,,,,,,,,,,,,,,,,,,,,,,,,0.035094365,,,,,,,,,,,,,,,,,,,,,,,,,,,,left,1,70,-30,40,1,3543.809988,3543.809988,3543.809988,None,None,1,1,0.3720412,,,,,,,,,,,,,,,,,,,10,17,1,2024-10-30_16h43.01.470,uWM_experiment,2022.2.3,59.99548834
,,,,,,,,,,,,,,,,,,,,8,0,8,0,7,0,7,0,,,,,,,,,,,,,,,,,,,,,,,,,,,,,,,,,,,,,,,,,,,,,,,,,,,,,,,,,,,,,,,,,,,,,,0.045094365,,,,,,,,,,,,,,,,,,,,,,,,,,,,left,0,160,30,190,1,3549.626929,3549.626929,3549.626929,None,None,2,0,0.4431327,,,,,,,,,,,,,,,,,,,10,17,1,2024-10-30_16h43.01.470,uWM_experiment,2022.2.3,59.99548834
,,,,,,,,,,,,,,,,,,,,8,0,8,0,8,0,8,0,,,,,,,,,,,,,,,,,,,,,,,,,,,,,,,,,,,,,,,,,,,,,,,,,,,,,,,,,,,,,,,,,,,,,,0.1,,,,,,,,,,,,,,,,,,,,,,,,,,,,right,1,40,30,70,2,3557.560622,3557.560622,3557.560622,None,None,4,0,0.6454576,,,,,,,,,,,,,,,,,,,10,17,1,2024-10-30_16h43.01.470,uWM_experiment,2022.2.3,59.99548834
,,,,,,,,,,,,,,,,,,,,8,0,8,0,9,0,9,0,,,,,,,,,,,,,,,,,,,,,,,,,,,,,,,,,,,,,,,,,,,,,,,,,,,,,,,,,,,,,,,,,,,,,,0.035094365,,,,,,,,,,,,,,,,,,,,,,,,,,,,left,1,160,-30,130,1,3564.427577,3564.427577,3564.427577,None,None,3,0,0.9864588,,,,,,,,,,,,,,,,,,,10,17,1,2024-10-30_16h43.01.470,uWM_experiment,2022.2.3,59.99548834
,,,,,,,,,,,,,,,,,,,,8,0,8,0,10,0,10,0,,,,,,,,,,,,,,,,,,,,,,,,,,,,,,,,,,,,,,,,,,,,,,,,,,,,,,,,,,,,,,,,,,,,,,0,,,,,,,,,,,,,,,,,,,,,,,,,,,,left,0,100,30,130,0,3570.727856,3570.727856,3570.727856,None,None,1,1,0.3021717,,,,,,,,,,,,,,,,,,,10,17,1,2024-10-30_16h43.01.470,uWM_experiment,2022.2.3,59.99548834
,,,,,,,,,,,,,,,,,,,,8,0,8,0,11,0,11,0,,,,,,,,,,,,,,,,,,,,,,,,,,,,,,,,,,,,,,,,,,,,,,,,,,,,,,,,,,,,,,,,,,,,,,0.025094365,,,,,,,,,,,,,,,,,,,,,,,,,,,,left,1,130,-30,100,1,3576.561446,3576.561446,3576.561446,None,None,1,1,0.2845922,,,,,,,,,,,,,,,,,,,10,17,1,2024-10-30_16h43.01.470,uWM_experiment,2022.2.3,59.99548834
,,,,,,,,,,,,,,,,,,,,8,0,8,0,12,0,12,0,,,,,,,,,,,,,,,,,,,,,,,,,,,,,,,,,,,,,,,,,,,,,,,,,,,,,,,,,,,,,,,,,,,,,,0.035094365,,,,,,,,,,,,,,,,,,,,,,,,,,,,left,0,100,30,130,1,3582.261736,3582.261736,3582.261736,None,None,2,0,2.8882935,,,,,,,,,,,,,,,,,,,10,17,1,2024-10-30_16h43.01.470,uWM_experiment,2022.2.3,59.99548834
,,,,,,,,,,,,,,,,,,,,8,0,8,0,13,0,13,0,,,,,,,,,,,,,,,,,,,,,,,,,,,,,,,,,,,,,,,,,,,,,,,,,,,,,,,,,,,,,,,,,,,,,,0.025094365,,,,,,,,,,,,,,,,,,,,,,,,,,,,left,0,70,30,100,1,3590.37875,3590.37875,3590.37875,None,None,1,1,0.42738,,,,,,,,,,,,,,,,,,,10,17,1,2024-10-30_16h43.01.470,uWM_experiment,2022.2.3,59.99548834
,,,,,,,,,,,,,,,,,,,,8,0,8,0,14,0,14,0,,,,,,,,,,,,,,,,,,,,,,,,,,,,,,,,,,,,,,,,,,,,,,,,,,,,,,,,,,,,,,,,,,,,,,0,,,,,,,,,,,,,,,,,,,,,,,,,,,,left,1,130,-30,100,0,3596.145715,3596.145715,3596.145715,None,None,1,1,0.2603909,,,,,,,,,,,,,,,,,,,10,17,1,2024-10-30_16h43.01.470,uWM_experiment,2022.2.3,59.99548834
,,,,,,,,,,,,,,,,,,,,8,0,8,0,15,0,15,0,,,,,,,,,,,,,,,,,,,,,,,,,,,,,,,,,,,,,,,,,,,,,,,,,,,,,,,,,,,,,,,,,,,,,,0.035094365,,,,,,,,,,,,,,,,,,,,,,,,,,,,left,0,10,30,40,1,3601.579255,3601.579255,3601.579255,None,None,1,1,0.2669261,,,,,,,,,,,,,,,,,,,10,17,1,2024-10-30_16h43.01.470,uWM_experiment,2022.2.3,59.99548834
,,,,,,,,,,,,,,,,,,,,8,0,8,0,16,0,16,0,,,,,,,,,,,,,,,,,,,,,,,,,,,,,,,,,,,,,,,,,,,,,,,,,,,,,,,,,,,,,,,,,,,,,,0.045094365,,,,,,,,,,,,,,,,,,,,,,,,,,,,left,0,130,30,160,1,3607.296178,3607.296178,3607.296178,None,None,1,1,1.4299052,,,,,,,,,,,,,,,,,,,10,17,1,2024-10-30_16h43.01.470,uWM_experiment,2022.2.3,59.99548834
,,,,,,,,,,,,,,,,,,,,8,0,8,0,17,0,17,0,,,,,,,,,,,,,,,,,,,,,,,,,,,,,,,,,,,,,,,,,,,,,,,,,,,,,,,,,,,,,,,,,,,,,,0,,,,,,,,,,,,,,,,,,,,,,,,,,,,left,0,70,30,100,0,3614.963212,3614.963212,3614.963212,None,None,2,0,1.0028341,,,,,,,,,,,,,,,,,,,10,17,1,2024-10-30_16h43.01.470,uWM_experiment,2022.2.3,59.99548834
,,,,,,,,,,,,,,,,,,,,8,0,8,0,18,0,18,0,,,,,,,,,,,,,,,,,,,,,,,,,,,,,,,,,,,,,,,,,,,,,,,,,,,,,,,,,,,,,,,,,,,,,,0.055094365,,,,,,,,,,,,,,,,,,,,,,,,,,,,right,1,10,30,40,1,3622.313505,3622.313505,3622.313505,None,None,2,0,3.0205443,,,,,,,,,,,,,,,,,,,10,17,1,2024-10-30_16h43.01.470,uWM_experiment,2022.2.3,59.99548834
,,,,,,,,,,,,,,,,,,,,8,0,8,0,19,0,19,0,,,,,,,,,,,,,,,,,,,,,,,,,,,,,,,,,,,,,,,,,,,,,,,,,,,,,,,,,,,,,,,,,,,,,,0.045094365,,,,,,,,,,,,,,,,,,,,,,,,,,,,left,1,160,-30,130,1,3631.04721,3631.04721,3631.04721,None,None,2,0,0.6069038,,,,,,,,,,,,,,,,,,,10,17,1,2024-10-30_16h43.01.470,uWM_experiment,2022.2.3,59.99548834
,,,,,,,,,,,,,,,,,,,,8,0,8,0,20,0,20,0,,,,,,,,,,,,,,,,,,,,,,,,,,,,,,,,,,,,,,,,,,,,,,,,,,,,,,,,,,,,,,,,,,,,,,0,,,,,,,,,,,,,,,,,,,,,,,,,,,,left,0,160,30,190,0,3636.947491,3636.947491,3636.947491,None,None,1,1,0.2906102,,,,,,,,,,,,,,,,,,,10,17,1,2024-10-30_16h43.01.470,uWM_experiment,2022.2.3,59.99548834
,,,,,,,,,,,,,,,,,,,,8,0,8,0,21,0,21,0,,,,,,,,,,,,,,,,,,,,,,,,,,,,,,,,,,,,,,,,,,,,,,,,,,,,,,,,,,,,,,,,,,,,,,0.035094365,,,,,,,,,,,,,,,,,,,,,,,,,,,,left,1,40,-30,10,1,3643.047753,3643.047753,3643.047753,None,None,1,1,0.7183178,,,,,,,,,,,,,,,,,,,10,17,1,2024-10-30_16h43.01.470,uWM_experiment,2022.2.3,59.99548834
,,,,,,,,,,,,,,,,,,,,8,0,8,0,22,0,22,0,,,,,,,,,,,,,,,,,,,,,,,,,,,,,,,,,,,,,,,,,,,,,,,,,,,,,,,,,,,,,,,,,,,,,,0.045094365,,,,,,,,,,,,,,,,,,,,,,,,,,,,left,1,10,-30,-20,1,3648.94803,3648.94803,3648.94803,None,None,1,1,0.2340044,,,,,,,,,,,,,,,,,,,10,17,1,2024-10-30_16h43.01.470,uWM_experiment,2022.2.3,59.99548834
,,,,,,,,,,,,,,,,,,,,8,0,8,0,23,0,23,0,,,,,,,,,,,,,,,,,,,,,,,,,,,,,,,,,,,,,,,,,,,,,,,,,,,,,,,,,,,,,,,,,,,,,,0.055094365,,,,,,,,,,,,,,,,,,,,,,,,,,,,left,1,100,-30,70,1,3654.414924,3654.414924,3654.414924,None,None,1,1,0.2871875,,,,,,,,,,,,,,,,,,,10,17,1,2024-10-30_16h43.01.470,uWM_experiment,2022.2.3,59.99548834
,,,,,,,,,,,,,,,,,,,,8,0,8,0,,,,,0,0,0,0,,,,,,,,,,,,,,,,,,,,,,,,,,,,,,,,,,,,,,,,,,,,,,,,,,,,,,,,,,,,,,,,,,,,,,,,,,,,,,,,,,,,,,,,,,,,,,,,,,,,,,,,,,,,3654.731599,3654.731599,space,1.8026252,space,None,,3656.565049,3656.565049,8.8091444,,,,,,,,,10,17,1,2024-10-30_16h43.01.470,uWM_experiment,2022.2.3,59.99548834
,,,,,,,,,,,,,,,,,,,,8,0,8,0,,,,,1,0,1,0,,,,,,,,,,,,,,,,,,,,,,,,,,,,,,,,,,,,,,,,,,,,,,,,,,,,,,,,,,,,,,,,,,,,,,,,,,,,,,,,,,,,,,,,,,,,,,,,,,,,,,,,,,,,,,,,,,,,,,,,,,,,,,10,17,1,2024-10-30_16h43.01.470,uWM_experiment,2022.2.3,59.99548834
,,,,,,,,,,,,,,,,,,,,8,0,8,0,,,,,2,0,2,0,,,,,,,,,,,,,,,,,,,,,,,,,,,,,,,,,,,,,,,,,,,,,,,,,,,,,,,,,,,,,,,,,,,,,,,,,,,,,,,,,,,,,,,,,,,,,,,,,,,,,,,,,,,,,,,,,,,,,,,,,,,,,,10,17,1,2024-10-30_16h43.01.470,uWM_experiment,2022.2.3,59.99548834
,,,,,,,,,,,,,,,,,,,,9,0,9,0,0,0,0,0,,,,,,,,,,,,,,,,,,,,,,,,,,,,,,,,,,,,,,,,,,,,,,,,,,,,,,,,,,,,,,,,,,,,,,0.065094365,,,,,,,,,,,,,,,,,,,,3665.398752,3666.098784,3666.398789,3667.098822,3667.398842,3668.098866,3668.098866,3668.415556,left,1,40,-30,10,1,3676.449246,3676.449246,3676.449246,None,None,2,0,0.9489488,,,,,,,None,,,,,,,,,,,,10,17,1,2024-10-30_16h43.01.470,uWM_experiment,2022.2.3,59.99548834
,,,,,,,,,,,,,,,,,,,,9,0,9,0,1,0,1,0,,,,,,,,,,,,,,,,,,,,,,,,,,,,,,,,,,,,,,,,,,,,,,,,,,,,,,,,,,,,,,,,,,,,,,0.055094365,,,,,,,,,,,,,,,,,,,,,,,,,,,,left,0,10,30,40,1,3683.716255,3683.716255,3683.716255,None,None,2,0,0.2899716,,,,,,,,,,,,,,,,,,,10,17,1,2024-10-30_16h43.01.470,uWM_experiment,2022.2.3,59.99548834
,,,,,,,,,,,,,,,,,,,,9,0,9,0,2,0,2,0,,,,,,,,,,,,,,,,,,,,,,,,,,,,,,,,,,,,,,,,,,,,,,,,,,,,,,,,,,,,,,,,,,,,,,0.045094365,,,,,,,,,,,,,,,,,,,,,,,,,,,,left,1,130,-30,100,1,3689.183146,3689.183146,3689.183146,None,None,1,1,0.318946,,,,,,,,,,,,,,,,,,,10,17,1,2024-10-30_16h43.01.470,uWM_experiment,2022.2.3,59.99548834
,,,,,,,,,,,,,,,,,,,,9,0,9,0,3,0,3,0,,,,,,,,,,,,,,,,,,,,,,,,,,,,,,,,,,,,,,,,,,,,,,,,,,,,,,,,,,,,,,,,,,,,,,0.055094365,,,,,,,,,,,,,,,,,,,,,,,,,,,,left,0,100,30,130,1,3694.666744,3694.666744,3694.666744,None,None,1,1,0.4274969,,,,,,,,,,,,,,,,,,,10,17,1,2024-10-30_16h43.01.470,uWM_experiment,2022.2.3,59.99548834
,,,,,,,,,,,,,,,,,,,,9,0,9,0,4,0,4,0,,,,,,,,,,,,,,,,,,,,,,,,,,,,,,,,,,,,,,,,,,,,,,,,,,,,,,,,,,,,,,,,,,,,,,0.065094365,,,,,,,,,,,,,,,,,,,,,,,,,,,,left,1,160,-30,130,1,3700.60031,3700.60031,3700.60031,None,None,1,1,0.4298377,,,,,,,,,,,,,,,,,,,10,17,1,2024-10-30_16h43.01.470,uWM_experiment,2022.2.3,59.99548834
,,,,,,,,,,,,,,,,,,,,9,0,9,0,5,0,5,0,,,,,,,,,,,,,,,,,,,,,,,,,,,,,,,,,,,,,,,,,,,,,,,,,,,,,,,,,,,,,,,,,,,,,,0.075094365,,,,,,,,,,,,,,,,,,,,,,,,,,,,left,0,10,30,40,1,3706.50058,3706.50058,3706.50058,None,None,1,1,0.3936662,,,,,,,,,,,,,,,,,,,10,17,1,2024-10-30_16h43.01.470,uWM_experiment,2022.2.3,59.99548834
,,,,,,,,,,,,,,,,,,,,9,0,9,0,6,0,6,0,,,,,,,,,,,,,,,,,,,,,,,,,,,,,,,,,,,,,,,,,,,,,,,,,,,,,,,,,,,,,,,,,,,,,,0.085094365,,,,,,,,,,,,,,,,,,,,,,,,,,,,left,1,40,-30,10,1,3712.267505,3712.267505,3712.267505,None,None,2,0,0.3866257,,,,,,,,,,,,,,,,,,,10,17,1,2024-10-30_16h43.01.470,uWM_experiment,2022.2.3,59.99548834
,,,,,,,,,,,,,,,,,,,,9,0,9,0,7,0,7,0,,,,,,,,,,,,,,,,,,,,,,,,,,,,,,,,,,,,,,,,,,,,,,,,,,,,,,,,,,,,,,,,,,,,,,0.1,,,,,,,,,,,,,,,,,,,,,,,,,,,,right,1,130,30,160,2,3719.00116,3719.00116,3719.00116,None,None,4,0,0.6049931,,,,,,,,,,,,,,,,,,,10,17,1,2024-10-30_16h43.01.470,uWM_experiment,2022.2.3,59.99548834
,,,,,,,,,,,,,,,,,,,,9,0,9,0,8,0,8,0,,,,,,,,,,,,,,,,,,,,,,,,,,,,,,,,,,,,,,,,,,,,,,,,,,,,,,,,,,,,,,,,,,,,,,0.075094365,,,,,,,,,,,,,,,,,,,,,,,,,,,,left,1,160,-30,130,1,3726.101481,3726.101481,3726.101481,None,None,3,0,1.6967227,,,,,,,,,,,,,,,,,,,10,17,1,2024-10-30_16h43.01.470,uWM_experiment,2022.2.3,59.99548834
,,,,,,,,,,,,,,,,,,,,9,0,9,0,9,0,9,0,,,,,,,,,,,,,,,,,,,,,,,,,,,,,,,,,,,,,,,,,,,,,,,,,,,,,,,,,,,,,,,,,,,,,,0,,,,,,,,,,,,,,,,,,,,,,,,,,,,left,1,130,-30,100,0,3733.30178,3733.30178,3733.30178,None,None,1,1,0.3363183,,,,,,,,,,,,,,,,,,,10,17,1,2024-10-30_16h43.01.470,uWM_experiment,2022.2.3,59.99548834
,,,,,,,,,,,,,,,,,,,,9,0,9,0,10,0,10,0,,,,,,,,,,,,,,,,,,,,,,,,,,,,,,,,,,,,,,,,,,,,,,,,,,,,,,,,,,,,,,,,,,,,,,0.065094365,,,,,,,,,,,,,,,,,,,,,,,,,,,,left,0,160,30,190,1,3739.102073,3739.102073,3739.102073,None,None,2,0,0.4241201,,,,,,,,,,,,,,,,,,,10,17,1,2024-10-30_16h43.01.470,uWM_experiment,2022.2.3,59.99548834
,,,,,,,,,,,,,,,,,,,,9,0,9,0,11,0,11,0,,,,,,,,,,,,,,,,,,,,,,,,,,,,,,,,,,,,,,,,,,,,,,,,,,,,,,,,,,,,,,,,,,,,,,0.055094365,,,,,,,,,,,,,,,,,,,,,,,,,,,,left,0,130,30,160,1,3745.018992,3745.018992,3745.018992,None,None,1,1,0.7791864,,,,,,,,,,,,,,,,,,,10,17,1,2024-10-30_16h43.01.470,uWM_experiment,2022.2.3,59.99548834
,,,,,,,,,,,,,,,,,,,,9,0,9,0,12,0,12,0,,,,,,,,,,,,,,,,,,,,,,,,,,,,,,,,,,,,,,,,,,,,,,,,,,,,,,,,,,,,,,,,,,,,,,0.065094365,,,,,,,,,,,,,,,,,,,,,,,,,,,,left,0,100,30,130,1,3751.085898,3751.085898,3751.085898,None,None,1,1,0.2882274,,,,,,,,,,,,,,,,,,,10,17,1,2024-10-30_16h43.01.470,uWM_experiment,2022.2.3,59.99548834
,,,,,,,,,,,,,,,,,,,,9,0,9,0,13,0,13,0,,,,,,,,,,,,,,,,,,,,,,,,,,,,,,,,,,,,,,,,,,,,,,,,,,,,,,,,,,,,,,,,,,,,,,0,,,,,,,,,,,,,,,,,,,,,,,,,,,,left,1,160,-30,130,0,3756.652826,3756.652826,3756.652826,None,None,1,1,0.3533205,,,,,,,,,,,,,,,,,,,10,17,1,2024-10-30_16h43.01.470,uWM_experiment,2022.2.3,59.99548834
,,,,,,,,,,,,,,,,,,,,9,0,9,0,14,0,14,0,,,,,,,,,,,,,,,,,,,,,,,,,,,,,,,,,,,,,,,,,,,,,,,,,,,,,,,,,,,,,,,,,,,,,,0.075094365,,,,,,,,,,,,,,,,,,,,,,,,,,,,right,1,10,30,40,1,3763.053112,3763.053112,3763.053112,None,None,3,0,0.9610701,,,,,,,,,,,,,,,,,,,10,17,1,2024-10-30_16h43.01.470,uWM_experiment,2022.2.3,59.99548834
,,,,,,,,,,,,,,,,,,,,9,0,9,0,15,0,15,0,,,,,,,,,,,,,,,,,,,,,,,,,,,,,,,,,,,,,,,,,,,,,,,,,,,,,,,,,,,,,,,,,,,,,,0.065094365,,,,,,,,,,,,,,,,,,,,,,,,,,,,left,1,40,-30,10,1,3769.870097,3769.870097,3769.870097,None,None,2,0,1.0400858,,,,,,,,,,,,,,,,,,,10,17,1,2024-10-30_16h43.01.470,uWM_experiment,2022.2.3,59.99548834
,,,,,,,,,,,,,,,,,,,,9,0,9,0,16,0,16,0,,,,,,,,,,,,,,,,,,,,,,,,,,,,,,,,,,,,,,,,,,,,,,,,,,,,,,,,,,,,,,,,,,,,,,0.055094365,,,,,,,,,,,,,,,,,,,,,,,,,,,,left,0,130,30,160,1,3776.203682,3776.203682,3776.203682,None,None,1,1,0.3864783,,,,,,,,,,,,,,,,,,,10,17,1,2024-10-30_16h43.01.470,uWM_experiment,2022.2.3,59.99548834
,,,,,,,,,,,,,,,,,,,,9,0,9,0,17,0,17,0,,,,,,,,,,,,,,,,,,,,,,,,,,,,,,,,,,,,,,,,,,,,,,,,,,,,,,,,,,,,,,,,,,,,,,0,,,,,,,,,,,,,,,,,,,,,,,,,,,,left,0,100,30,130,0,3782.087334,3782.087334,3782.087334,None,None,1,1,0.3028015,,,,,,,,,,,,,,,,,,,10,17,1,2024-10-30_16h43.01.470,uWM_experiment,2022.2.3,59.99548834
,,,,,,,,,,,,,,,,,,,,9,0,9,0,18,0,18,0,,,,,,,,,,,,,,,,,,,,,,,,,,,,,,,,,,,,,,,,,,,,,,,,,,,,,,,,,,,,,,,,,,,,,,0.065094365,,,,,,,,,,,,,,,,,,,,,,,,,,,,left,0,40,30,70,1,3787.970897,3787.970897,3787.970897,None,None,1,1,0.3632175,,,,,,,,,,,,,,,,,,,10,17,1,2024-10-30_16h43.01.470,uWM_experiment,2022.2.3,59.99548834
,,,,,,,,,,,,,,,,,,,,9,0,9,0,19,0,19,0,,,,,,,,,,,,,,,,,,,,,,,,,,,,,,,,,,,,,,,,,,,,,,,,,,,,,,,,,,,,,,,,,,,,,,0,,,,,,,,,,,,,,,,,,,,,,,,,,,,left,0,100,30,130,0,3793.571125,3793.571125,3793.571125,None,None,1,1,0.5549981,,,,,,,,,,,,,,,,,,,10,17,1,2024-10-30_16h43.01.470,uWM_experiment,2022.2.3,59.99548834
