PreTrainingPAS4_loop.thisRepN,PreTrainingPAS4_loop.thisTrialN,PreTrainingPAS4_loop.thisN,PreTrainingPAS4_loop.thisIndex,PreTrainingPAS1_loop.thisRepN,PreTrainingPAS1_loop.thisTrialN,PreTrainingPAS1_loop.thisN,PreTrainingPAS1_loop.thisIndex,RepeatCV_loop.thisRepN,RepeatCV_loop.thisTrialN,RepeatCV_loop.thisN,RepeatCV_loop.thisIndex,TrainingCV_loop.thisRepN,TrainingCV_loop.thisTrialN,TrainingCV_loop.thisN,TrainingCV_loop.thisIndex,TrainingCAL_loop.thisRepN,TrainingCAL_loop.thisTrialN,TrainingCAL_loop.thisN,TrainingCAL_loop.thisIndex,blocks_loop.thisRepN,blocks_loop.thisTrialN,blocks_loop.thisN,blocks_loop.thisIndex,trials_loop.thisRepN,trials_loop.thisTrialN,trials_loop.thisN,trials_loop.thisIndex,TrainingPAS1_loop.thisRepN,TrainingPAS1_loop.thisTrialN,TrainingPAS1_loop.thisN,TrainingPAS1_loop.thisIndex,spacebarWelcome0.started,spacebarWelcome0.keys,spacebarWelcome0.rt,spacebarWelcome1.started,gaborWelcome1.started,maskWelcome1.started,textMaskWelcome1.started,spacebarWelcome1.keys,spacebarWelcome1.rt,spacebarWelcome2.started,spacebarWelcome2.keys,spacebarWelcome2.rt,textInst_PreTrainingPAS4.started,spacebarPreTrainingPAS4.started,spacebarPreTrainingPAS4.keys,spacebarPreTrainingPAS4.rt,textPreTrainingPAS1.started,spacebarPreTrainingPAS1.started,spacebarPreTrainingPAS1.keys,spacebarPreTrainingPAS1.rt,textQUEST0.started,spacebarQUEST0.started,spacebarQUEST0.keys,spacebarQUEST0.rt,spacebar0.started,spacebar0.keys,spacebar0.rt,spacebar1.started,spacebar1.keys,spacebar1.rt,textInstructions2.started,spacebar2.started,Gabor1Inst2.started,Gabor2Inst2.started,Gabor3Inst2.started,Gabor4Inst2.started,spacebar2.keys,spacebar2.rt,textInstructionsPAS.started,spacebarInstPAS.started,spacebarInstPAS.keys,spacebarInstPAS.rt,textInstructions3.started,spacebar3.started,spacebar3.keys,spacebar3.rt,WMresp_CV,WMresp_CV_acc,oriMemo_CV,gyre_CV,oriTest_CV,feedbackText.started,feedbackText.stopped,sliderCV.started,PAStextCV.started,PASkeyCV.started,sliderCV.response,sliderCV.rt,PASkeyCV.keys,PASkeyCV.corr,PASkeyCV.rt,TextInstructionsCAL.started,spacebarCAL.started,spacebarCAL.keys,spacebarCAL.rt,contrast,WMresp_CAL,WMresp_CAL_acc,oriMemo_CAL,gyre_CAL,oriTest_CAL,cue_CAL,sliderCAL.started,PAStextCAL.started,PASkeyCAL.started,sliderCAL.response,sliderCAL.rt,PASkeyCAL.keys,PASkeyCAL.corr,PASkeyCAL.rt,propUnseen_CAL,textStart.started,spacebar4.started,spacebar4.keys,spacebar4.rt,three.started,three.stopped,two.started,two.stopped,one.started,one.stopped,blank_countdown.started,blank_countdown.stopped,WMresp,WMresp_acc,oriMemo,gyre,oriTest,cue,slider.started,textPAS_firstGabor.started,PASkey.started,slider.response,slider.rt,PASkey.keys,PASkey.corr,PASkey.rt,spacebarContinue.started,textBreak.started,spacebarContinue.keys,spacebarContinue.rt,spacebar_reminder.keys,spacebar_TrainingPAS1.keys,spacebar_endpractice.keys,spacebar_reminder.started,textReminder.started,spacebar_reminder.rt,textInst_TrainingPAS1.started,spacebar_TrainingPAS1.started,spacebar_TrainingPAS1.rt,textend_practicePAS1.started,spacebar_endpractice.started,spacebar_endpractice.rt,textThanks.started,buttonURL.started,buttonURL.numClicks,buttonURL.timesOn,buttonURL.timesOff,laboratory,participant,session,date,expName,psychopyVersion,frameRate
,,,,,,,,,,,,,,,,,,,,,,,,,,,,,,,,76.9952583,space,4.6558748,,,,,,,,,,,,,,,,,,,,,,,,,,,,,,,,,,,,,,,,,,,,,,,,,,,,,,,,,,,,,,,,,,,,,,,,,,,,,,,,,,,,,,,,,,,,,,,,,,,,,,,,,,,,,,,,,,,,,,,,,,,,,,10,18,2,2024-11-14_18h09.50.012,uWM_experiment,2022.2.3,59.99674817
,,,,,,,,,,,,,,,,,,,,,,,,,,,,,,,,,,,81.6952552,81.6952552,81.6952552,81.6952552,space,18.1717433,,,,,,,,,,,,,,,,,,,,,,,,,,,,,,,,,,,,,,,,,,,,,,,,,,,,,,,,,,,,,,,,,,,,,,,,,,,,,,,,,,,,,,,,,,,,,,,,,,,,,,,,,,,,,,,,,,,,,,,,10,18,2,2024-11-14_18h09.50.012,uWM_experiment,2022.2.3,59.99674817
,,,,,,,,,,,,,,,,,,,,,,,,,,,,,,,,,,,,,,,,,99.8959544,space,8.8430068,,,,,,,,,,,,,,,,,,,,,,,,,,,,,,,,,,,,,,,,,,,,,,,,,,,,,,,,,,,,,,,,,,,,,,,,,,,,,,,,,,,,,,,,,,,,,,,,,,,,,,,,,,,,,,,,,,,,,10,18,2,2024-11-14_18h09.50.012,uWM_experiment,2022.2.3,59.99674817
,,,,,,,,,,,,,,,,,,,,,,,,,,,,,,,,,,,,,,,,,,,,108.7629534,108.7629534,space,26.2719132,,,,,,,,,,,,,,,,,,,,,,,,,,,,,,,,,,,,,,,,,,,,,,,,,,,,,,,,,,,,,,,,,,,,,,,,,,,,,,,,,,,,,,,,,,,,,,,,,,,,,,,,,,,,,,,,,10,18,2,2024-11-14_18h09.50.012,uWM_experiment,2022.2.3,59.99674817
0,0,0,0,,,,,,,,,,,,,,,,,,,,,,,,,,,,,,,,,,,,,,,,,,,,,,,,,,,,,,,,,,,,,,,,,,,,,,,,,,,,,,,,,,,,,,,,,,,,,,,,,,,,,,,,,,,,,,,,,,,,,,,,,,,,,,,,,,,,,,,,,,,,,,,,,,,,,,,,,,,,,10,18,2,2024-11-14_18h09.50.012,uWM_experiment,2022.2.3,59.99674817
1,0,1,0,,,,,,,,,,,,,,,,,,,,,,,,,,,,,,,,,,,,,,,,,,,,,,,,,,,,,,,,,,,,,,,,,,,,,,,,,,,,,,,,,,,,,,,,,,,,,,,,,,,,,,,,,,,,,,,,,,,,,,,,,,,,,,,,,,,,,,,,,,,,,,,,,,,,,,,,,,,,,10,18,2,2024-11-14_18h09.50.012,uWM_experiment,2022.2.3,59.99674817
2,0,2,0,,,,,,,,,,,,,,,,,,,,,,,,,,,,,,,,,,,,,,,,,,,,,,,,,,,,,,,,,,,,,,,,,,,,,,,,,,,,,,,,,,,,,,,,,,,,,,,,,,,,,,,,,,,,,,,,,,,,,,,,,,,,,,,,,,,,,,,,,,,,,,,,,,,,,,,,,,,,,10,18,2,2024-11-14_18h09.50.012,uWM_experiment,2022.2.3,59.99674817
,,,,,,,,,,,,,,,,,,,,,,,,,,,,,,,,,,,,,,,,,,,,,,,,146.497732,146.497732,space,14.1450191,,,,,,,,,,,,,,,,,,,,,,,,,,,,,,,,,,,,,,,,,,,,,,,,,,,,,,,,,,,,,,,,,,,,,,,,,,,,,,,,,,,,,,,,,,,,,,,,,,,,,,,,,,,,,10,18,2,2024-11-14_18h09.50.012,uWM_experiment,2022.2.3,59.99674817
,,,,0,0,0,0,,,,,,,,,,,,,,,,,,,,,,,,,,,,,,,,,,,,,,,,,,,,,,,,,,,,,,,,,,,,,,,,,,,,,,,,,,,,,,,,,,,,,,,,,,,,,,,,,,,,,,,,,,,,,,,,,,,,,,,,,,,,,,,,,,,,,,,,,,,,,,,,,,,,,,,,,10,18,2,2024-11-14_18h09.50.012,uWM_experiment,2022.2.3,59.99674817
,,,,1,0,1,0,,,,,,,,,,,,,,,,,,,,,,,,,,,,,,,,,,,,,,,,,,,,,,,,,,,,,,,,,,,,,,,,,,,,,,,,,,,,,,,,,,,,,,,,,,,,,,,,,,,,,,,,,,,,,,,,,,,,,,,,,,,,,,,,,,,,,,,,,,,,,,,,,,,,,,,,,10,18,2,2024-11-14_18h09.50.012,uWM_experiment,2022.2.3,59.99674817
,,,,2,0,2,0,,,,,,,,,,,,,,,,,,,,,,,,,,,,,,,,,,,,,,,,,,,,,,,,,,,,,,,,,,,,,,,,,,,,,,,,,,,,,,,,,,,,,,,,,,,,,,,,,,,,,,,,,,,,,,,,,,,,,,,,,,,,,,,,,,,,,,,,,,,,,,,,,,,,,,,,,10,18,2,2024-11-14_18h09.50.012,uWM_experiment,2022.2.3,59.99674817
,,,,,,,,,,,,,,,,,,,,,,,,,,,,,,,,,,,,,,,,,,,,,,,,,,,,175.048837,175.048837,space,9.0737618,,,,,,,,,,,,,,,,,,,,,,,,,,,,,,,,,,,,,,,,,,,,,,,,,,,,,,,,,,,,,,,,,,,,,,,,,,,,,,,,,,,,,,,,,,,,,,,,,,,,,,,,,10,18,2,2024-11-14_18h09.50.012,uWM_experiment,2022.2.3,59.99674817
,,,,,,,,,,,,,,,,,,,,,,,,,,,,,,,,,,,,,,,,,,,,,,,,,,,,,,,,308.1539848,space,27.0398328,,,,,,,,,,,,,,,,,,,,,,,,,,,,,,,,,,,,,,,,,,,,,,,,,,,,,,,,,,,,,,,,,,,,,,,,,,,,,,,,,,,,,,,,,,,,,,,,,,,,,,10,18,2,2024-11-14_18h09.50.012,uWM_experiment,2022.2.3,59.99674817
,,,,,,,,,,,,,,,,,,,,,,,,,,,,,,,,,,,,,,,,,,,,,,,,,,,,,,,,,,,335.2216867,space,51.1558844,,,,,,,,,,,,,,,,,,,,,,,,,,,,,,,,,,,,,,,,,,,,,,,,,,,,,,,,,,,,,,,,,,,,,,,,,,,,,,,,,,,,,,,,,,,,,,,,,,,10,18,2,2024-11-14_18h09.50.012,uWM_experiment,2022.2.3,59.99674817
,,,,,,,,,,,,,,,,,,,,,,,,,,,,,,,,,,,,,,,,,,,,,,,,,,,,,,,,,,,,,,386.4070112,386.4070112,386.4070112,386.4070112,386.4070112,386.4070112,space,25.7384082,,,,,,,,,,,,,,,,,,,,,,,,,,,,,,,,,,,,,,,,,,,,,,,,,,,,,,,,,,,,,,,,,,,,,,,,,,,,,,,,,,,,,,,,,,,10,18,2,2024-11-14_18h09.50.012,uWM_experiment,2022.2.3,59.99674817
,,,,,,,,,,,,,,,,,,,,,,,,,,,,,,,,,,,,,,,,,,,,,,,,,,,,,,,,,,,,,,,,,,,,,,412.1746928,412.1746928,space,14.7946976,,,,,,,,,,,,,,,,,,,,,,,,,,,,,,,,,,,,,,,,,,,,,,,,,,,,,,,,,,,,,,,,,,,,,,,,,,,,,,,,,,,,,,,10,18,2,2024-11-14_18h09.50.012,uWM_experiment,2022.2.3,59.99674817
,,,,,,,,,,,,,,,,,,,,,,,,,,,,,,,,,,,,,,,,,,,,,,,,,,,,,,,,,,,,,,,,,,,,,,,,,,426.9919047,426.9919047,space,10.8733752,,,,,,,,,,,,,,,,,,,,,,,,,,,,,,,,,,,,,,,,,,,,,,,,,,,,,,,,,,,,,,,,,,,,,,,,,,,,,,,,,,,10,18,2,2024-11-14_18h09.50.012,uWM_experiment,2022.2.3,59.99674817
,,,,,,,,0,0,0,0,0,0,0,0,,,,,,,,,,,,,,,,,,,,,,,,,,,,,,,,,,,,,,,,,,,,,,,,,,,,,,,,,,,,,,,left,0,160,30,190,446.0930032,447.0926972,447.0926972,447.0926972,447.0926972,None,None,4,0,1.4684408,,,,,,,,,,,,,,,,,,,,,,,,,,,,,,,,,,,,,,,,,,,,,,,,,,,,,,,,,,,,,,,,,,,,10,18,2,2024-11-14_18h09.50.012,uWM_experiment,2022.2.3,59.99674817
,,,,,,,,0,0,0,0,1,0,1,0,,,,,,,,,,,,,,,,,,,,,,,,,,,,,,,,,,,,,,,,,,,,,,,,,,,,,,,,,,,,,,,left,0,10,30,40,455.3263516,456.3263898,456.3263898,456.3263898,456.3263898,None,None,4,0,1.0748038,,,,,,,,,,,,,,,,,,,,,,,,,,,,,,,,,,,,,,,,,,,,,,,,,,,,,,,,,,,,,,,,,,,,10,18,2,2024-11-14_18h09.50.012,uWM_experiment,2022.2.3,59.99674817
,,,,,,,,0,0,0,0,2,0,2,0,,,,,,,,,,,,,,,,,,,,,,,,,,,,,,,,,,,,,,,,,,,,,,,,,,,,,,,,,,,,,,,left,0,10,30,40,464.5267136,465.5267473,465.5267473,465.5267473,465.5267473,None,None,4,0,0.7303897,,,,,,,,,,,,,,,,,,,,,,,,,,,,,,,,,,,,,,,,,,,,,,,,,,,,,,,,,,,,,,,,,,,,10,18,2,2024-11-14_18h09.50.012,uWM_experiment,2022.2.3,59.99674817
,,,,,,,,0,0,0,0,3,0,3,0,,,,,,,,,,,,,,,,,,,,,,,,,,,,,,,,,,,,,,,,,,,,,,,,,,,,,,,,,,,,,,,right,0,40,-30,10,472.8603809,,473.8604074,473.8604074,473.8604074,None,None,4,0,1.1486866,,,,,,,,,,,,,,,,,,,,,,,,,,,,,,,,,,,,,,,,,,,,,,,,,,,,,,,,,,,,,,,,,,,,10,18,2,2024-11-14_18h09.50.012,uWM_experiment,2022.2.3,59.99674817
,,,,,,,,0,0,0,0,4,0,4,0,,,,,,,,,,,,,,,,,,,,,,,,,,,,,,,,,,,,,,,,,,,,,,,,,,,,,,,,,,,,,,,right,0,100,-30,70,482.1273969,483.1274382,483.1274382,483.1274382,483.1274382,None,None,4,0,0.8896454,,,,,,,,,,,,,,,,,,,,,,,,,,,,,,,,,,,,,,,,,,,,,,,,,,,,,,,,,,,,,,,,,,,,10,18,2,2024-11-14_18h09.50.012,uWM_experiment,2022.2.3,59.99674817
,,,,,,,,0,0,0,0,5,0,5,0,,,,,,,,,,,,,,,,,,,,,,,,,,,,,,,,,,,,,,,,,,,,,,,,,,,,,,,,,,,,,,,right,0,130,-30,100,490.4110407,,491.4110886,491.4110886,491.4110886,None,None,4,0,0.6458019,,,,,,,,,,,,,,,,,,,,,,,,,,,,,,,,,,,,,,,,,,,,,,,,,,,,,,,,,,,,,,,,,,,,10,18,2,2024-11-14_18h09.50.012,uWM_experiment,2022.2.3,59.99674817
,,,,,,,,0,0,0,0,,,,,,,,,,,,,,,,,,,,,,,,,,,,,,,,,,,,,,,,,,,,,,,,,,,,,,,,,,,,,,,,,,,,,,,,,,,,,,,,,,,,,,,,,,,,,,,,,,,,,,,,,,,,,,,,,,,,,,,,,,,,,,,,,,,,,,,,,,,,,,,,,,,,,10,18,2,2024-11-14_18h09.50.012,uWM_experiment,2022.2.3,59.99674817
,,,,,,,,1,0,1,0,0,0,0,0,,,,,,,,,,,,,,,,,,,,,,,,,,,,,,,,,,,,,,,,,,,,,,,,,,,,,,,,,,,,,,,left,0,40,30,70,511.4618732,512.46191,512.46191,512.46191,512.46191,None,None,4,0,1.0668893,,,,,,,,,,,,,,,,,,,,,,,,,,,,,,,,,,,,,,,,,,,,,,,,,,,,,,,,,,,,,,,,,,,,10,18,2,2024-11-14_18h09.50.012,uWM_experiment,2022.2.3,59.99674817
,,,,,,,,1,0,1,0,1,0,1,0,,,,,,,,,,,,,,,,,,,,,,,,,,,,,,,,,,,,,,,,,,,,,,,,,,,,,,,,,,,,,,,right,0,100,-30,70,519.37887,,520.3788835,520.3788835,520.3788835,None,None,4,0,1.2058323,,,,,,,,,,,,,,,,,,,,,,,,,,,,,,,,,,,,,,,,,,,,,,,,,,,,,,,,,,,,,,,,,,,,10,18,2,2024-11-14_18h09.50.012,uWM_experiment,2022.2.3,59.99674817
,,,,,,,,1,0,1,0,2,0,2,0,,,,,,,,,,,,,,,,,,,,,,,,,,,,,,,,,,,,,,,,,,,,,,,,,,,,,,,,,,,,,,,right,1,160,30,190,527.3624826,,528.362537,528.362537,528.362537,None,None,4,0,0.5822303,,,,,,,,,,,,,,,,,,,,,,,,,,,,,,,,,,,,,,,,,,,,,,,,,,,,,,,,,,,,,,,,,,,,10,18,2,2024-11-14_18h09.50.012,uWM_experiment,2022.2.3,59.99674817
,,,,,,,,1,0,1,0,3,0,3,0,,,,,,,,,,,,,,,,,,,,,,,,,,,,,,,,,,,,,,,,,,,,,,,,,,,,,,,,,,,,,,,right,1,70,30,100,534.9461313,535.9461654,535.9461654,535.9461654,535.9461654,None,None,4,0,0.702459,,,,,,,,,,,,,,,,,,,,,,,,,,,,,,,,,,,,,,,,,,,,,,,,,,,,,,,,,,,,,,,,,,,,10,18,2,2024-11-14_18h09.50.012,uWM_experiment,2022.2.3,59.99674817
,,,,,,,,1,0,1,0,4,0,4,0,,,,,,,,,,,,,,,,,,,,,,,,,,,,,,,,,,,,,,,,,,,,,,,,,,,,,,,,,,,,,,,right,0,70,-30,40,542.6797381,543.6798041,543.6798041,543.6798041,543.6798041,None,None,4,0,0.5207798,,,,,,,,,,,,,,,,,,,,,,,,,,,,,,,,,,,,,,,,,,,,,,,,,,,,,,,,,,,,,,,,,,,,10,18,2,2024-11-14_18h09.50.012,uWM_experiment,2022.2.3,59.99674817
,,,,,,,,1,0,1,0,5,0,5,0,,,,,,,,,,,,,,,,,,,,,,,,,,,,,,,,,,,,,,,,,,,,,,,,,,,,,,,,,,,,,,,right,0,130,-30,100,550.0967378,551.096762,551.096762,551.096762,551.096762,None,None,4,0,0.7677725,,,,,,,,,,,,,,,,,,,,,,,,,,,,,,,,,,,,,,,,,,,,,,,,,,,,,,,,,,,,,,,,,,,,10,18,2,2024-11-14_18h09.50.012,uWM_experiment,2022.2.3,59.99674817
,,,,,,,,1,0,1,0,,,,,,,,,,,,,,,,,,,,,,,,,,,,,,,,,,,,,,,,,,,,,,,,,,,,,,,,,,,,,,,,,,,,,,,,,,,,,,,,,,,,,,,,,,,,,,,,,,,,,,,,,,,,,,,,,,,,,,,,,,,,,,,,,,,,,,,,,,,,,,,,,,,,,10,18,2,2024-11-14_18h09.50.012,uWM_experiment,2022.2.3,59.99674817
,,,,,,,,,,,,,,,,,,,,,,,,,,,,,,,,,,,,,,,,,,,,,,,,,,,,,,,,,,,,,,,,,,,,,,,,,,,,,,,,,,,,,,,,,,,,,551.8967891,551.8967891,space,5.3198508,,,,,,,,,,,,,,,,,,,,,,,,,,,,,,,,,,,,,,,,,,,,,,,,,,,,,,,,,,,,,,,,10,18,2,2024-11-14_18h09.50.012,uWM_experiment,2022.2.3,59.99674817
,,,,,,,,,,,,,,,,0,0,0,0,,,,,,,,,,,,,,,,,,,,,,,,,,,,,,,,,,,,,,,,,,,,,,,,,,,,,,,,,,,,,,,,,,,,,,,,,,,,,,0.005,right,0,100,-30,70,1,562.963881,562.963881,562.963881,None,None,4,0,0.6446876,,,,,,,,,,,,,,,,,,,,,,,,,,,,,,,,,,,,,,,,,,,,,,,,,10,18,2,2024-11-14_18h09.50.012,uWM_experiment,2022.2.3,59.99674817
,,,,,,,,,,,,,,,,1,0,1,0,,,,,,,,,,,,,,,,,,,,,,,,,,,,,,,,,,,,,,,,,,,,,,,,,,,,,,,,,,,,,,,,,,,,,,,,,,,,,,0.1,right,1,70,30,100,2,569.6474733,569.6474733,569.6474733,None,None,4,0,0.5050044,0,,,,,,,,,,,,,,,,,,,,,,,,,,,,,,,,,,,,,,,,,,,,,,,,10,18,2,2024-11-14_18h09.50.012,uWM_experiment,2022.2.3,59.99674817
,,,,,,,,,,,,,,,,2,0,2,0,,,,,,,,,,,,,,,,,,,,,,,,,,,,,,,,,,,,,,,,,,,,,,,,,,,,,,,,,,,,,,,,,,,,,,,,,,,,,,0.1,right,1,130,30,160,2,575.6477106,575.6477106,575.6477106,None,None,4,0,0.5608419,0,,,,,,,,,,,,,,,,,,,,,,,,,,,,,,,,,,,,,,,,,,,,,,,,10,18,2,2024-11-14_18h09.50.012,uWM_experiment,2022.2.3,59.99674817
,,,,,,,,,,,,,,,,3,0,3,0,,,,,,,,,,,,,,,,,,,,,,,,,,,,,,,,,,,,,,,,,,,,,,,,,,,,,,,,,,,,,,,,,,,,,,,,,,,,,,0.005,right,0,40,-30,10,1,581.5812886,581.5812886,581.5812886,None,None,4,0,0.4592877,0,,,,,,,,,,,,,,,,,,,,,,,,,,,,,,,,,,,,,,,,,,,,,,,,10,18,2,2024-11-14_18h09.50.012,uWM_experiment,2022.2.3,59.99674817
,,,,,,,,,,,,,,,,4,0,4,0,,,,,,,,,,,,,,,,,,,,,,,,,,,,,,,,,,,,,,,,,,,,,,,,,,,,,,,,,,,,,,,,,,,,,,,,,,,,,,0.1,right,1,10,30,40,2,587.7648459,587.7648459,587.7648459,None,None,4,0,0.4915948,0,,,,,,,,,,,,,,,,,,,,,,,,,,,,,,,,,,,,,,,,,,,,,,,,10,18,2,2024-11-14_18h09.50.012,uWM_experiment,2022.2.3,59.99674817
,,,,,,,,,,,,,,,,5,0,5,0,,,,,,,,,,,,,,,,,,,,,,,,,,,,,,,,,,,,,,,,,,,,,,,,,,,,,,,,,,,,,,,,,,,,,,,,,,,,,,0.005,right,0,160,-30,130,1,593.7650641,593.7650641,593.7650641,None,None,4,0,0.4594495,0,,,,,,,,,,,,,,,,,,,,,,,,,,,,,,,,,,,,,,,,,,,,,,,,10,18,2,2024-11-14_18h09.50.012,uWM_experiment,2022.2.3,59.99674817
,,,,,,,,,,,,,,,,,,,,,,,,,,,,,,,,,,,,,,,,,,,,,,,,,,,,,,,,,,,,,,,,,,,,,,,,,,,,,,,,,,,,,,,,,,,,,,,,,,,,,,,,,,,,,,,,,594.2484209,595.2317932,space,5.9606541,,,,,,,,,,,,,,,,,,,,,,,,,,,,,,,,,,,,,,,,,,,,10,18,2,2024-11-14_18h09.50.012,uWM_experiment,2022.2.3,59.99674817
,,,,,,,,,,,,,,,,,,,,0,0,0,0,0,0,0,0,,,,,,,,,,,,,,,,,,,,,,,,,,,,,,,,,,,,,,,,,,,,,,,,,,,,,,,,,,,,,,,,,,,,,,0.005,,,,,,,,,,,,,,,,,,,,601.2153603,601.9153832,602.198756,602.8987664,603.1987553,603.898801,603.898801,604.2488285,right,0,70,-30,40,1,610.7823925,610.7823925,610.7823925,None,None,4,0,0.4979894,,,,,,,,,,,,,,,,,,,,,,10,18,2,2024-11-14_18h09.50.012,uWM_experiment,2022.2.3,59.99674817
,,,,,,,,,,,,,,,,,,,,0,0,0,0,1,0,1,0,,,,,,,,,,,,,,,,,,,,,,,,,,,,,,,,,,,,,,,,,,,,,,,,,,,,,,,,,,,,,,,,,,,,,,0.005,,,,,,,,,,,,,,,,,,,,,,,,,,,,right,1,100,30,130,1,617.4993354,617.4993354,617.4993354,None,None,4,0,0.6449545,,,,,,,,,,,,,,,,,,,,,,10,18,2,2024-11-14_18h09.50.012,uWM_experiment,2022.2.3,59.99674817
,,,,,,,,,,,,,,,,,,,,0,0,0,0,2,0,2,0,,,,,,,,,,,,,,,,,,,,,,,,,,,,,,,,,,,,,,,,,,,,,,,,,,,,,,,,,,,,,,,,,,,,,,0,,,,,,,,,,,,,,,,,,,,,,,,,,,,left,1,40,-30,10,0,623.9829446,623.9829446,623.9829446,None,None,4,0,0.6813606,,,,,,,,,,,,,,,,,,,,,,10,18,2,2024-11-14_18h09.50.012,uWM_experiment,2022.2.3,59.99674817
,,,,,,,,,,,,,,,,,,,,0,0,0,0,3,0,3,0,,,,,,,,,,,,,,,,,,,,,,,,,,,,,,,,,,,,,,,,,,,,,,,,,,,,,,,,,,,,,,,,,,,,,,0.005,,,,,,,,,,,,,,,,,,,,,,,,,,,,left,1,160,-30,130,1,630.4165186,630.4165186,630.4165186,None,None,4,0,0.4797399,,,,,,,,,,,,,,,,,,,,,,10,18,2,2024-11-14_18h09.50.012,uWM_experiment,2022.2.3,59.99674817
,,,,,,,,,,,,,,,,,,,,0,0,0,0,4,0,4,0,,,,,,,,,,,,,,,,,,,,,,,,,,,,,,,,,,,,,,,,,,,,,,,,,,,,,,,,,,,,,,,,,,,,,,0.005,,,,,,,,,,,,,,,,,,,,,,,,,,,,right,1,160,30,190,1,636.7167489,636.7167489,636.7167489,None,None,4,0,0.3475747,,,,,,,,,,,,,,,,,,,,,,10,18,2,2024-11-14_18h09.50.012,uWM_experiment,2022.2.3,59.99674817
,,,,,,,,,,,,,,,,,,,,0,0,0,0,5,0,5,0,,,,,,,,,,,,,,,,,,,,,,,,,,,,,,,,,,,,,,,,,,,,,,,,,,,,,,,,,,,,,,,,,,,,,,0.005,,,,,,,,,,,,,,,,,,,,,,,,,,,,left,1,100,-30,70,1,642.7170045,642.7170045,642.7170045,None,None,4,0,0.3792488,,,,,,,,,,,,,,,,,,,,,,10,18,2,2024-11-14_18h09.50.012,uWM_experiment,2022.2.3,59.99674817
,,,,,,,,,,,,,,,,,,,,0,0,0,0,6,0,6,0,,,,,,,,,,,,,,,,,,,,,,,,,,,,,,,,,,,,,,,,,,,,,,,,,,,,,,,,,,,,,,,,,,,,,,0.005,,,,,,,,,,,,,,,,,,,,,,,,,,,,left,0,160,30,190,1,648.5338759,648.5338759,648.5338759,None,None,4,0,0.3221802,,,,,,,,,,,,,,,,,,,,,,10,18,2,2024-11-14_18h09.50.012,uWM_experiment,2022.2.3,59.99674817
,,,,,,,,,,,,,,,,,,,,0,0,0,0,7,0,7,0,,,,,,,,,,,,,,,,,,,,,,,,,,,,,,,,,,,,,,,,,,,,,,,,,,,,,,,,,,,,,,,,,,,,,,0,,,,,,,,,,,,,,,,,,,,,,,,,,,,left,0,130,30,160,0,654.4174581,654.4174581,654.4174581,None,None,4,0,0.2545656,,,,,,,,,,,,,,,,,,,,,,10,18,2,2024-11-14_18h09.50.012,uWM_experiment,2022.2.3,59.99674817
,,,,,,,,,,,,,,,,,,,,0,0,0,0,8,0,8,0,,,,,,,,,,,,,,,,,,,,,,,,,,,,,,,,,,,,,,,,,,,,,,,,,,,,,,,,,,,,,,,,,,,,,,0.005,,,,,,,,,,,,,,,,,,,,,,,,,,,,left,0,160,30,190,1,660.4843401,660.4843401,660.4843401,None,None,4,0,0.2757769,,,,,,,,,,,,,,,,,,,,,,10,18,2,2024-11-14_18h09.50.012,uWM_experiment,2022.2.3,59.99674817
,,,,,,,,,,,,,,,,,,,,0,0,0,0,9,0,9,0,,,,,,,,,,,,,,,,,,,,,,,,,,,,,,,,,,,,,,,,,,,,,,,,,,,,,,,,,,,,,,,,,,,,,,0.005,,,,,,,,,,,,,,,,,,,,,,,,,,,,right,1,160,30,190,1,666.3345758,666.3345758,666.3345758,None,None,4,0,0.265452,,,,,,,,,,,,,,,,,,,,,,10,18,2,2024-11-14_18h09.50.012,uWM_experiment,2022.2.3,59.99674817
,,,,,,,,,,,,,,,,,,,,0,0,0,0,10,0,10,0,,,,,,,,,,,,,,,,,,,,,,,,,,,,,,,,,,,,,,,,,,,,,,,,,,,,,,,,,,,,,,,,,,,,,,0.005,,,,,,,,,,,,,,,,,,,,,,,,,,,,right,0,10,-30,-20,1,672.2847978,672.2847978,672.2847978,None,None,4,0,0.3233051,,,,,,,,,,,,,,,,,,,,,,10,18,2,2024-11-14_18h09.50.012,uWM_experiment,2022.2.3,59.99674817
,,,,,,,,,,,,,,,,,,,,0,0,0,0,11,0,11,0,,,,,,,,,,,,,,,,,,,,,,,,,,,,,,,,,,,,,,,,,,,,,,,,,,,,,,,,,,,,,,,,,,,,,,0,,,,,,,,,,,,,,,,,,,,,,,,,,,,left,0,130,30,160,0,678.3683675,678.3683675,678.3683675,None,None,4,0,0.2875139,,,,,,,,,,,,,,,,,,,,,,10,18,2,2024-11-14_18h09.50.012,uWM_experiment,2022.2.3,59.99674817
,,,,,,,,,,,,,,,,,,,,0,0,0,0,12,0,12,0,,,,,,,,,,,,,,,,,,,,,,,,,,,,,,,,,,,,,,,,,,,,,,,,,,,,,,,,,,,,,,,,,,,,,,0.005,,,,,,,,,,,,,,,,,,,,,,,,,,,,right,0,40,-30,10,1,684.4852547,684.4852547,684.4852547,None,None,4,0,0.3387365,,,,,,,,,,,,,,,,,,,,,,10,18,2,2024-11-14_18h09.50.012,uWM_experiment,2022.2.3,59.99674817
,,,,,,,,,,,,,,,,,,,,0,0,0,0,13,0,13,0,,,,,,,,,,,,,,,,,,,,,,,,,,,,,,,,,,,,,,,,,,,,,,,,,,,,,,,,,,,,,,,,,,,,,,0.005,,,,,,,,,,,,,,,,,,,,,,,,,,,,left,1,130,-30,100,1,690.7688621,690.7688621,690.7688621,None,None,4,0,0.4310474,,,,,,,,,,,,,,,,,,,,,,10,18,2,2024-11-14_18h09.50.012,uWM_experiment,2022.2.3,59.99674817
,,,,,,,,,,,,,,,,,,,,0,0,0,0,14,0,14,0,,,,,,,,,,,,,,,,,,,,,,,,,,,,,,,,,,,,,,,,,,,,,,,,,,,,,,,,,,,,,,,,,,,,,,0.005,,,,,,,,,,,,,,,,,,,,,,,,,,,,left,0,130,30,160,1,696.652429,696.652429,696.652429,None,None,4,0,0.2914277,,,,,,,,,,,,,,,,,,,,,,10,18,2,2024-11-14_18h09.50.012,uWM_experiment,2022.2.3,59.99674817
,,,,,,,,,,,,,,,,,,,,0,0,0,0,15,0,15,0,,,,,,,,,,,,,,,,,,,,,,,,,,,,,,,,,,,,,,,,,,,,,,,,,,,,,,,,,,,,,,,,,,,,,,0.005,,,,,,,,,,,,,,,,,,,,,,,,,,,,right,1,10,30,40,1,702.6859776,702.6859776,702.6859776,None,None,4,0,0.2658842,,,,,,,,,,,,,,,,,,,,,,10,18,2,2024-11-14_18h09.50.012,uWM_experiment,2022.2.3,59.99674817
,,,,,,,,,,,,,,,,,,,,0,0,0,0,16,0,16,0,,,,,,,,,,,,,,,,,,,,,,,,,,,,,,,,,,,,,,,,,,,,,,,,,,,,,,,,,,,,,,,,,,,,,,0.1,,,,,,,,,,,,,,,,,,,,,,,,,,,,right,0,100,-30,70,2,708.7028711,708.7028711,708.7028711,None,None,4,0,0.3048773,,,,,,,,,,,,,,,,,,,,,,10,18,2,2024-11-14_18h09.50.012,uWM_experiment,2022.2.3,59.99674817
,,,,,,,,,,,,,,,,,,,,0,0,0,0,17,0,17,0,,,,,,,,,,,,,,,,,,,,,,,,,,,,,,,,,,,,,,,,,,,,,,,,,,,,,,,,,,,,,,,,,,,,,,0.005,,,,,,,,,,,,,,,,,,,,,,,,,,,,left,0,70,30,100,1,714.7197645,714.7197645,714.7197645,None,None,4,0,0.2879493,,,,,,,,,,,,,,,,,,,,,,10,18,2,2024-11-14_18h09.50.012,uWM_experiment,2022.2.3,59.99674817
,,,,,,,,,,,,,,,,,,,,0,0,0,0,18,0,18,0,,,,,,,,,,,,,,,,,,,,,,,,,,,,,,,,,,,,,,,,,,,,,,,,,,,,,,,,,,,,,,,,,,,,,,0.005,,,,,,,,,,,,,,,,,,,,,,,,,,,,left,1,10,-30,-20,1,720.7200089,720.7200089,720.7200089,None,None,4,0,0.3196826,,,,,,,,,,,,,,,,,,,,,,10,18,2,2024-11-14_18h09.50.012,uWM_experiment,2022.2.3,59.99674817
,,,,,,,,,,,,,,,,,,,,0,0,0,0,19,0,19,0,,,,,,,,,,,,,,,,,,,,,,,,,,,,,,,,,,,,,,,,,,,,,,,,,,,,,,,,,,,,,,,,,,,,,,0.005,,,,,,,,,,,,,,,,,,,,,,,,,,,,left,1,160,-30,130,1,726.6035755,726.6035755,726.6035755,None,None,4,0,0.2842937,,,,,,,,,,,,,,,,,,,,,,10,18,2,2024-11-14_18h09.50.012,uWM_experiment,2022.2.3,59.99674817
,,,,,,,,,,,,,,,,,,,,0,0,0,0,20,0,20,0,,,,,,,,,,,,,,,,,,,,,,,,,,,,,,,,,,,,,,,,,,,,,,,,,,,,,,,,,,,,,,,,,,,,,,0.005,,,,,,,,,,,,,,,,,,,,,,,,,,,,left,0,130,30,160,1,732.5038051,732.5038051,732.5038051,None,None,4,0,0.2399711,,,,,,,,,,,,,,,,,,,,,,10,18,2,2024-11-14_18h09.50.012,uWM_experiment,2022.2.3,59.99674817
,,,,,,,,,,,,,,,,,,,,0,0,0,0,21,0,21,0,,,,,,,,,,,,,,,,,,,,,,,,,,,,,,,,,,,,,,,,,,,,,,,,,,,,,,,,,,,,,,,,,,,,,,0.005,,,,,,,,,,,,,,,,,,,,,,,,,,,,left,1,100,-30,70,1,738.2706991,738.2706991,738.2706991,None,None,4,0,0.2650611,,,,,,,,,,,,,,,,,,,,,,10,18,2,2024-11-14_18h09.50.012,uWM_experiment,2022.2.3,59.99674817
,,,,,,,,,,,,,,,,,,,,0,0,0,0,22,0,22,0,,,,,,,,,,,,,,,,,,,,,,,,,,,,,,,,,,,,,,,,,,,,,,,,,,,,,,,,,,,,,,,,,,,,,,0,,,,,,,,,,,,,,,,,,,,,,,,,,,,left,0,70,30,100,0,744.020912,744.020912,744.020912,None,None,4,0,0.3068115,,,,,,,,,,,,,,,,,,,,,,10,18,2,2024-11-14_18h09.50.012,uWM_experiment,2022.2.3,59.99674817
,,,,,,,,,,,,,,,,,,,,0,0,0,0,23,0,23,0,,,,,,,,,,,,,,,,,,,,,,,,,,,,,,,,,,,,,,,,,,,,,,,,,,,,,,,,,,,,,,,,,,,,,,0.005,,,,,,,,,,,,,,,,,,,,,,,,,,,,left,0,10,30,40,1,749.6878032,749.6878032,749.6878032,None,None,4,0,0.3197288,,,,,,,,,,,,,,,,,,,,,,10,18,2,2024-11-14_18h09.50.012,uWM_experiment,2022.2.3,59.99674817
,,,,,,,,,,,,,,,,,,,,0,0,0,0,,,,,0,0,0,0,,,,,,,,,,,,,,,,,,,,,,,,,,,,,,,,,,,,,,,,,,,,,,,,,,,,,,,,,,,,,,,,,,,,,,,,,,,,,,,,,,,,,,,,,,,,,,,,,,,,,,,,,,,,750.0378066,750.0378066,space,22.4417911,None,None,,,,,,,,,,,,,,,,10,18,2,2024-11-14_18h09.50.012,uWM_experiment,2022.2.3,59.99674817
,,,,,,,,,,,,,,,,,,,,0,0,0,0,,,,,1,0,1,0,,,,,,,,,,,,,,,,,,,,,,,,,,,,,,,,,,,,,,,,,,,,,,,,,,,,,,,,,,,,,,,,,,,,,,,,,,,,,,,,,,,,,,,,,,,,,,,,,,,,,,,,,,,,,,,,,,,,,,,,,,,,,,,,,10,18,2,2024-11-14_18h09.50.012,uWM_experiment,2022.2.3,59.99674817
,,,,,,,,,,,,,,,,,,,,0,0,0,0,,,,,2,0,2,0,,,,,,,,,,,,,,,,,,,,,,,,,,,,,,,,,,,,,,,,,,,,,,,,,,,,,,,,,,,,,,,,,,,,,,,,,,,,,,,,,,,,,,,,,,,,,,,,,,,,,,,,,,,,,,,,,,,,,,,,,,,,,,,,,10,18,2,2024-11-14_18h09.50.012,uWM_experiment,2022.2.3,59.99674817
,,,,,,,,,,,,,,,,,,,,1,0,1,0,0,0,0,0,,,,,,,,,,,,,,,,,,,,,,,,,,,,,,,,,,,,,,,,,,,,,,,,,,,,,,,,,,,,,,,,,,,,,,0,,,,,,,,,,,,,,,,,,,,772.5053526,773.2053809,773.5053929,774.20541,774.5054264,775.2054416,775.2054416,775.5221468,right,0,70,-30,40,0,780.1389855,780.1389855,780.1389855,None,None,4,0,0.4764698,,,,,,,None,,,,,,,,,,,,,,,10,18,2,2024-11-14_18h09.50.012,uWM_experiment,2022.2.3,59.99674817
,,,,,,,,,,,,,,,,,,,,1,0,1,0,1,0,1,0,,,,,,,,,,,,,,,,,,,,,,,,,,,,,,,,,,,,,,,,,,,,,,,,,,,,,,,,,,,,,,,,,,,,,,0.005,,,,,,,,,,,,,,,,,,,,,,,,,,,,right,1,160,30,190,1,785.9558791,785.9558791,785.9558791,None,None,4,0,0.3956392,,,,,,,,,,,,,,,,,,,,,,10,18,2,2024-11-14_18h09.50.012,uWM_experiment,2022.2.3,59.99674817
,,,,,,,,,,,,,,,,,,,,1,0,1,0,2,0,2,0,,,,,,,,,,,,,,,,,,,,,,,,,,,,,,,,,,,,,,,,,,,,,,,,,,,,,,,,,,,,,,,,,,,,,,0.005,,,,,,,,,,,,,,,,,,,,,,,,,,,,right,1,40,30,70,1,791.6894392,791.6894392,791.6894392,None,None,4,0,0.1979438,,,,,,,,,,,,,,,,,,,,,,10,18,2,2024-11-14_18h09.50.012,uWM_experiment,2022.2.3,59.99674817
,,,,,,,,,,,,,,,,,,,,1,0,1,0,3,0,3,0,,,,,,,,,,,,,,,,,,,,,,,,,,,,,,,,,,,,,,,,,,,,,,,,,,,,,,,,,,,,,,,,,,,,,,0.005,,,,,,,,,,,,,,,,,,,,,,,,,,,,right,0,70,-30,40,1,797.2063341,797.2063341,797.2063341,None,None,4,0,0.2170613,,,,,,,,,,,,,,,,,,,,,,10,18,2,2024-11-14_18h09.50.012,uWM_experiment,2022.2.3,59.99674817
,,,,,,,,,,,,,,,,,,,,1,0,1,0,4,0,4,0,,,,,,,,,,,,,,,,,,,,,,,,,,,,,,,,,,,,,,,,,,,,,,,,,,,,,,,,,,,,,,,,,,,,,,0.005,,,,,,,,,,,,,,,,,,,,,,,,,,,,right,1,160,30,190,1,802.9398708,802.9398708,802.9398708,None,None,4,0,0.3394002,,,,,,,,,,,,,,,,,,,,,,10,18,2,2024-11-14_18h09.50.012,uWM_experiment,2022.2.3,59.99674817
,,,,,,,,,,,,,,,,,,,,1,0,1,0,5,0,5,0,,,,,,,,,,,,,,,,,,,,,,,,,,,,,,,,,,,,,,,,,,,,,,,,,,,,,,,,,,,,,,,,,,,,,,0.005,,,,,,,,,,,,,,,,,,,,,,,,,,,,right,0,130,-30,100,1,808.7734244,808.7734244,808.7734244,None,None,4,0,0.2178319,,,,,,,,,,,,,,,,,,,,,,10,18,2,2024-11-14_18h09.50.012,uWM_experiment,2022.2.3,59.99674817
,,,,,,,,,,,,,,,,,,,,1,0,1,0,6,0,6,0,,,,,,,,,,,,,,,,,,,,,,,,,,,,,,,,,,,,,,,,,,,,,,,,,,,,,,,,,,,,,,,,,,,,,,0,,,,,,,,,,,,,,,,,,,,,,,,,,,,right,0,160,-30,130,0,814.5569912,814.5569912,814.5569912,None,None,4,0,0.2502345,,,,,,,,,,,,,,,,,,,,,,10,18,2,2024-11-14_18h09.50.012,uWM_experiment,2022.2.3,59.99674817
,,,,,,,,,,,,,,,,,,,,1,0,1,0,7,0,7,0,,,,,,,,,,,,,,,,,,,,,,,,,,,,,,,,,,,,,,,,,,,,,,,,,,,,,,,,,,,,,,,,,,,,,,0.005,,,,,,,,,,,,,,,,,,,,,,,,,,,,right,0,70,-30,40,1,820.4905361,820.4905361,820.4905361,None,None,4,0,0.2046444,,,,,,,,,,,,,,,,,,,,,,10,18,2,2024-11-14_18h09.50.012,uWM_experiment,2022.2.3,59.99674817
,,,,,,,,,,,,,,,,,,,,1,0,1,0,8,0,8,0,,,,,,,,,,,,,,,,,,,,,,,,,,,,,,,,,,,,,,,,,,,,,,,,,,,,,,,,,,,,,,,,,,,,,,0.005,,,,,,,,,,,,,,,,,,,,,,,,,,,,right,0,40,-30,10,1,826.2408282,826.2408282,826.2408282,None,None,4,0,0.2543154,,,,,,,,,,,,,,,,,,,,,,10,18,2,2024-11-14_18h09.50.012,uWM_experiment,2022.2.3,59.99674817
,,,,,,,,,,,,,,,,,,,,1,0,1,0,9,0,9,0,,,,,,,,,,,,,,,,,,,,,,,,,,,,,,,,,,,,,,,,,,,,,,,,,,,,,,,,,,,,,,,,,,,,,,0.005,,,,,,,,,,,,,,,,,,,,,,,,,,,,right,0,10,-30,-20,1,831.9743379,831.9743379,831.9743379,None,None,4,0,0.2007772,,,,,,,,,,,,,,,,,,,,,,10,18,2,2024-11-14_18h09.50.012,uWM_experiment,2022.2.3,59.99674817
,,,,,,,,,,,,,,,,,,,,1,0,1,0,10,0,10,0,,,,,,,,,,,,,,,,,,,,,,,,,,,,,,,,,,,,,,,,,,,,,,,,,,,,,,,,,,,,,,,,,,,,,,0.005,,,,,,,,,,,,,,,,,,,,,,,,,,,,right,1,70,30,100,1,837.6578935,837.6578935,837.6578935,None,None,4,0,0.2933261,,,,,,,,,,,,,,,,,,,,,,10,18,2,2024-11-14_18h09.50.012,uWM_experiment,2022.2.3,59.99674817
,,,,,,,,,,,,,,,,,,,,1,0,1,0,11,0,11,0,,,,,,,,,,,,,,,,,,,,,,,,,,,,,,,,,,,,,,,,,,,,,,,,,,,,,,,,,,,,,,,,,,,,,,0.005,,,,,,,,,,,,,,,,,,,,,,,,,,,,right,1,130,30,160,1,843.2581043,843.2581043,843.2581043,None,None,4,0,0.3090775,,,,,,,,,,,,,,,,,,,,,,10,18,2,2024-11-14_18h09.50.012,uWM_experiment,2022.2.3,59.99674817
,,,,,,,,,,,,,,,,,,,,1,0,1,0,12,0,12,0,,,,,,,,,,,,,,,,,,,,,,,,,,,,,,,,,,,,,,,,,,,,,,,,,,,,,,,,,,,,,,,,,,,,,,0.005,,,,,,,,,,,,,,,,,,,,,,,,,,,,left,0,70,30,100,1,849.3083787,849.3083787,849.3083787,None,None,4,0,0.2506394,,,,,,,,,,,,,,,,,,,,,,10,18,2,2024-11-14_18h09.50.012,uWM_experiment,2022.2.3,59.99674817
,,,,,,,,,,,,,,,,,,,,1,0,1,0,13,0,13,0,,,,,,,,,,,,,,,,,,,,,,,,,,,,,,,,,,,,,,,,,,,,,,,,,,,,,,,,,,,,,,,,,,,,,,0,,,,,,,,,,,,,,,,,,,,,,,,,,,,right,0,100,-30,70,0,855.2252255,855.2252255,855.2252255,None,None,4,0,0.4138886,,,,,,,,,,,,,,,,,,,,,,10,18,2,2024-11-14_18h09.50.012,uWM_experiment,2022.2.3,59.99674817
,,,,,,,,,,,,,,,,,,,,1,0,1,0,14,0,14,0,,,,,,,,,,,,,,,,,,,,,,,,,,,,,,,,,,,,,,,,,,,,,,,,,,,,,,,,,,,,,,,,,,,,,,0,,,,,,,,,,,,,,,,,,,,,,,,,,,,right,0,70,-30,40,0,861.1754654,861.1754654,861.1754654,None,None,4,0,0.303557,,,,,,,,,,,,,,,,,,,,,,10,18,2,2024-11-14_18h09.50.012,uWM_experiment,2022.2.3,59.99674817
,,,,,,,,,,,,,,,,,,,,1,0,1,0,15,0,15,0,,,,,,,,,,,,,,,,,,,,,,,,,,,,,,,,,,,,,,,,,,,,,,,,,,,,,,,,,,,,,,,,,,,,,,0.005,,,,,,,,,,,,,,,,,,,,,,,,,,,,right,1,70,30,100,1,866.8257066,866.8257066,866.8257066,None,None,4,0,0.3413945,,,,,,,,,,,,,,,,,,,,,,10,18,2,2024-11-14_18h09.50.012,uWM_experiment,2022.2.3,59.99674817
,,,,,,,,,,,,,,,,,,,,1,0,1,0,16,0,16,0,,,,,,,,,,,,,,,,,,,,,,,,,,,,,,,,,,,,,,,,,,,,,,,,,,,,,,,,,,,,,,,,,,,,,,0.005,,,,,,,,,,,,,,,,,,,,,,,,,,,,right,0,100,-30,70,1,872.7592656,872.7592656,872.7592656,None,None,4,0,0.3756802,,,,,,,,,,,,,,,,,,,,,,10,18,2,2024-11-14_18h09.50.012,uWM_experiment,2022.2.3,59.99674817
,,,,,,,,,,,,,,,,,,,,1,0,1,0,17,0,17,0,,,,,,,,,,,,,,,,,,,,,,,,,,,,,,,,,,,,,,,,,,,,,,,,,,,,,,,,,,,,,,,,,,,,,,0,,,,,,,,,,,,,,,,,,,,,,,,,,,,left,1,10,-30,-20,0,879.0094946,879.0094946,879.0094946,None,None,4,0,0.3655312,,,,,,,,,,,,,,,,,,,,,,10,18,2,2024-11-14_18h09.50.012,uWM_experiment,2022.2.3,59.99674817
,,,,,,,,,,,,,,,,,,,,1,0,1,0,18,0,18,0,,,,,,,,,,,,,,,,,,,,,,,,,,,,,,,,,,,,,,,,,,,,,,,,,,,,,,,,,,,,,,,,,,,,,,0.005,,,,,,,,,,,,,,,,,,,,,,,,,,,,left,0,130,30,160,1,884.6597166,884.6597166,884.6597166,None,None,2,0,0.3792836,,,,,,,,,,,,,,,,,,,,,,10,18,2,2024-11-14_18h09.50.012,uWM_experiment,2022.2.3,59.99674817
,,,,,,,,,,,,,,,,,,,,1,0,1,0,19,0,19,0,,,,,,,,,,,,,,,,,,,,,,,,,,,,,,,,,,,,,,,,,,,,,,,,,,,,,,,,,,,,,,,,,,,,,,0.005,,,,,,,,,,,,,,,,,,,,,,,,,,,,left,0,130,30,160,1,890.4599497,890.4599497,890.4599497,None,None,2,0,0.290892,,,,,,,,,,,,,,,,,,,,,,10,18,2,2024-11-14_18h09.50.012,uWM_experiment,2022.2.3,59.99674817
,,,,,,,,,,,,,,,,,,,,1,0,1,0,20,0,20,0,,,,,,,,,,,,,,,,,,,,,,,,,,,,,,,,,,,,,,,,,,,,,,,,,,,,,,,,,,,,,,,,,,,,,,0.1,,,,,,,,,,,,,,,,,,,,,,,,,,,,left,0,40,30,70,2,896.5268408,896.5268408,896.5268408,None,None,2,0,0.456184,,,,,,,,,,,,,,,,,,,,,,10,18,2,2024-11-14_18h09.50.012,uWM_experiment,2022.2.3,59.99674817
,,,,,,,,,,,,,,,,,,,,1,0,1,0,21,0,21,0,,,,,,,,,,,,,,,,,,,,,,,,,,,,,,,,,,,,,,,,,,,,,,,,,,,,,,,,,,,,,,,,,,,,,,0.005,,,,,,,,,,,,,,,,,,,,,,,,,,,,left,0,10,30,40,1,902.6103957,902.6103957,902.6103957,None,None,4,0,0.3565033,,,,,,,,,,,,,,,,,,,,,,10,18,2,2024-11-14_18h09.50.012,uWM_experiment,2022.2.3,59.99674817
,,,,,,,,,,,,,,,,,,,,1,0,1,0,22,0,22,0,,,,,,,,,,,,,,,,,,,,,,,,,,,,,,,,,,,,,,,,,,,,,,,,,,,,,,,,,,,,,,,,,,,,,,0.1,,,,,,,,,,,,,,,,,,,,,,,,,,,,left,1,160,-30,130,2,908.6106544,908.6106544,908.6106544,None,None,4,0,0.4442572,,,,,,,,,,,,,,,,,,,,,,10,18,2,2024-11-14_18h09.50.012,uWM_experiment,2022.2.3,59.99674817
,,,,,,,,,,,,,,,,,,,,1,0,1,0,23,0,23,0,,,,,,,,,,,,,,,,,,,,,,,,,,,,,,,,,,,,,,,,,,,,,,,,,,,,,,,,,,,,,,,,,,,,,,0.005,,,,,,,,,,,,,,,,,,,,,,,,,,,,left,1,40,-30,10,1,914.4608763,914.4608763,914.4608763,None,None,4,0,0.3299584,,,,,,,,,,,,,,,,,,,,,,10,18,2,2024-11-14_18h09.50.012,uWM_experiment,2022.2.3,59.99674817
,,,,,,,,,,,,,,,,,,,,1,0,1,0,,,,,0,0,0,0,,,,,,,,,,,,,,,,,,,,,,,,,,,,,,,,,,,,,,,,,,,,,,,,,,,,,,,,,,,,,,,,,,,,,,,,,,,,,,,,,,,,,,,,,,,,,,,,,,,,,,,,,,,,914.8108708,914.8108708,space,22.8198101,None,None,,,,,,,,,,,,,,,,10,18,2,2024-11-14_18h09.50.012,uWM_experiment,2022.2.3,59.99674817
,,,,,,,,,,,,,,,,,,,,1,0,1,0,,,,,1,0,1,0,,,,,,,,,,,,,,,,,,,,,,,,,,,,,,,,,,,,,,,,,,,,,,,,,,,,,,,,,,,,,,,,,,,,,,,,,,,,,,,,,,,,,,,,,,,,,,,,,,,,,,,,,,,,,,,,,,,,,,,,,,,,,,,,,10,18,2,2024-11-14_18h09.50.012,uWM_experiment,2022.2.3,59.99674817
,,,,,,,,,,,,,,,,,,,,1,0,1,0,,,,,2,0,2,0,,,,,,,,,,,,,,,,,,,,,,,,,,,,,,,,,,,,,,,,,,,,,,,,,,,,,,,,,,,,,,,,,,,,,,,,,,,,,,,,,,,,,,,,,,,,,,,,,,,,,,,,,,,,,,,,,,,,,,,,,,,,,,,,,10,18,2,2024-11-14_18h09.50.012,uWM_experiment,2022.2.3,59.99674817
,,,,,,,,,,,,,,,,,,,,2,0,2,0,0,0,0,0,,,,,,,,,,,,,,,,,,,,,,,,,,,,,,,,,,,,,,,,,,,,,,,,,,,,,,,,,,,,,,,,,,,,,,0,,,,,,,,,,,,,,,,,,,,937.6617696,938.3617864,938.6617979,939.361847,939.6618355,940.3618803,940.3618803,940.6785566,right,0,70,-30,40,0,945.3120761,945.3120761,945.3120761,None,None,4,0,0.406654,,,,,,,None,,,,,,,,,,,,,,,10,18,2,2024-11-14_18h09.50.012,uWM_experiment,2022.2.3,59.99674817
,,,,,,,,,,,,,,,,,,,,2,0,2,0,1,0,1,0,,,,,,,,,,,,,,,,,,,,,,,,,,,,,,,,,,,,,,,,,,,,,,,,,,,,,,,,,,,,,,,,,,,,,,0,,,,,,,,,,,,,,,,,,,,,,,,,,,,left,1,10,-30,-20,0,951.3622947,951.3622947,951.3622947,None,None,4,0,0.3004157,,,,,,,,,,,,,,,,,,,,,,10,18,2,2024-11-14_18h09.50.012,uWM_experiment,2022.2.3,59.99674817
,,,,,,,,,,,,,,,,,,,,2,0,2,0,2,0,2,0,,,,,,,,,,,,,,,,,,,,,,,,,,,,,,,,,,,,,,,,,,,,,,,,,,,,,,,,,,,,,,,,,,,,,,0,,,,,,,,,,,,,,,,,,,,,,,,,,,,left,0,130,30,160,0,957.2292024,957.2292024,957.2292024,None,None,4,0,0.3614118,,,,,,,,,,,,,,,,,,,,,,10,18,2,2024-11-14_18h09.50.012,uWM_experiment,2022.2.3,59.99674817
,,,,,,,,,,,,,,,,,,,,2,0,2,0,3,0,3,0,,,,,,,,,,,,,,,,,,,,,,,,,,,,,,,,,,,,,,,,,,,,,,,,,,,,,,,,,,,,,,,,,,,,,,0,,,,,,,,,,,,,,,,,,,,,,,,,,,,left,0,40,30,70,0,963.0461338,963.0461338,963.0461338,None,None,4,0,0.2563151,,,,,,,,,,,,,,,,,,,,,,10,18,2,2024-11-14_18h09.50.012,uWM_experiment,2022.2.3,59.99674817
,,,,,,,,,,,,,,,,,,,,2,0,2,0,4,0,4,0,,,,,,,,,,,,,,,,,,,,,,,,,,,,,,,,,,,,,,,,,,,,,,,,,,,,,,,,,,,,,,,,,,,,,,0.005,,,,,,,,,,,,,,,,,,,,,,,,,,,,left,0,160,30,190,1,968.9296262,968.9296262,968.9296262,None,None,4,0,0.32495,,,,,,,,,,,,,,,,,,,,,,10,18,2,2024-11-14_18h09.50.012,uWM_experiment,2022.2.3,59.99674817
,,,,,,,,,,,,,,,,,,,,2,0,2,0,5,0,5,0,,,,,,,,,,,,,,,,,,,,,,,,,,,,,,,,,,,,,,,,,,,,,,,,,,,,,,,,,,,,,,,,,,,,,,0.005,,,,,,,,,,,,,,,,,,,,,,,,,,,,left,1,40,-30,10,1,974.7465182,974.7465182,974.7465182,None,None,4,0,0.3000302,,,,,,,,,,,,,,,,,,,,,,10,18,2,2024-11-14_18h09.50.012,uWM_experiment,2022.2.3,59.99674817
,,,,,,,,,,,,,,,,,,,,2,0,2,0,6,0,6,0,,,,,,,,,,,,,,,,,,,,,,,,,,,,,,,,,,,,,,,,,,,,,,,,,,,,,,,,,,,,,,,,,,,,,,0.1,,,,,,,,,,,,,,,,,,,,,,,,,,,,right,1,10,30,40,2,980.9967783,980.9967783,980.9967783,None,None,4,0,0.5375802,,,,,,,,,,,,,,,,,,,,,,10,18,2,2024-11-14_18h09.50.012,uWM_experiment,2022.2.3,59.99674817
,,,,,,,,,,,,,,,,,,,,2,0,2,0,7,0,7,0,,,,,,,,,,,,,,,,,,,,,,,,,,,,,,,,,,,,,,,,,,,,,,,,,,,,,,,,,,,,,,,,,,,,,,0.005,,,,,,,,,,,,,,,,,,,,,,,,,,,,left,0,40,30,70,1,990.2138012,990.2138012,990.2138012,None,None,4,0,0.432718,,,,,,,,,,,,,,,,,,,,,,10,18,2,2024-11-14_18h09.50.012,uWM_experiment,2022.2.3,59.99674817
,,,,,,,,,,,,,,,,,,,,2,0,2,0,8,0,8,0,,,,,,,,,,,,,,,,,,,,,,,,,,,,,,,,,,,,,,,,,,,,,,,,,,,,,,,,,,,,,,,,,,,,,,0.005,,,,,,,,,,,,,,,,,,,,,,,,,,,,right,0,100,-30,70,1,996.2973475,996.2973475,996.2973475,None,None,4,0,0.2289663,,,,,,,,,,,,,,,,,,,,,,10,18,2,2024-11-14_18h09.50.012,uWM_experiment,2022.2.3,59.99674817
,,,,,,,,,,,,,,,,,,,,2,0,2,0,9,0,9,0,,,,,,,,,,,,,,,,,,,,,,,,,,,,,,,,,,,,,,,,,,,,,,,,,,,,,,,,,,,,,,,,,,,,,,0.1,,,,,,,,,,,,,,,,,,,,,,,,,,,,right,1,70,30,100,2,1002.464276,1002.464276,1002.464276,None,None,4,0,0.3340197,,,,,,,,,,,,,,,,,,,,,,10,18,2,2024-11-14_18h09.50.012,uWM_experiment,2022.2.3,59.99674817
,,,,,,,,,,,,,,,,,,,,2,0,2,0,10,0,10,0,,,,,,,,,,,,,,,,,,,,,,,,,,,,,,,,,,,,,,,,,,,,,,,,,,,,,,,,,,,,,,,,,,,,,,0.005,,,,,,,,,,,,,,,,,,,,,,,,,,,,left,1,10,-30,-20,1,1008.264521,1008.264521,1008.264521,None,None,4,0,0.2938024,,,,,,,,,,,,,,,,,,,,,,10,18,2,2024-11-14_18h09.50.012,uWM_experiment,2022.2.3,59.99674817
,,,,,,,,,,,,,,,,,,,,2,0,2,0,11,0,11,0,,,,,,,,,,,,,,,,,,,,,,,,,,,,,,,,,,,,,,,,,,,,,,,,,,,,,,,,,,,,,,,,,,,,,,0.005,,,,,,,,,,,,,,,,,,,,,,,,,,,,left,0,130,30,160,1,1014.214739,1014.214739,1014.214739,None,None,4,0,0.3596097,,,,,,,,,,,,,,,,,,,,,,10,18,2,2024-11-14_18h09.50.012,uWM_experiment,2022.2.3,59.99674817
,,,,,,,,,,,,,,,,,,,,2,0,2,0,12,0,12,0,,,,,,,,,,,,,,,,,,,,,,,,,,,,,,,,,,,,,,,,,,,,,,,,,,,,,,,,,,,,,,,,,,,,,,0.005,,,,,,,,,,,,,,,,,,,,,,,,,,,,left,1,130,-30,100,1,1019.881665,1019.881665,1019.881665,None,None,4,0,0.3086354,,,,,,,,,,,,,,,,,,,,,,10,18,2,2024-11-14_18h09.50.012,uWM_experiment,2022.2.3,59.99674817
,,,,,,,,,,,,,,,,,,,,2,0,2,0,13,0,13,0,,,,,,,,,,,,,,,,,,,,,,,,,,,,,,,,,,,,,,,,,,,,,,,,,,,,,,,,,,,,,,,,,,,,,,0.005,,,,,,,,,,,,,,,,,,,,,,,,,,,,left,1,160,-30,130,1,1025.648521,1025.648521,1025.648521,None,None,4,0,0.2855981,,,,,,,,,,,,,,,,,,,,,,10,18,2,2024-11-14_18h09.50.012,uWM_experiment,2022.2.3,59.99674817
,,,,,,,,,,,,,,,,,,,,2,0,2,0,14,0,14,0,,,,,,,,,,,,,,,,,,,,,,,,,,,,,,,,,,,,,,,,,,,,,,,,,,,,,,,,,,,,,,,,,,,,,,0.1,,,,,,,,,,,,,,,,,,,,,,,,,,,,right,1,10,30,40,2,1031.915416,1031.915416,1031.915416,None,None,4,0,0.2667425,,,,,,,,,,,,,,,,,,,,,,10,18,2,2024-11-14_18h09.50.012,uWM_experiment,2022.2.3,59.99674817
,,,,,,,,,,,,,,,,,,,,2,0,2,0,15,0,15,0,,,,,,,,,,,,,,,,,,,,,,,,,,,,,,,,,,,,,,,,,,,,,,,,,,,,,,,,,,,,,,,,,,,,,,0.005,,,,,,,,,,,,,,,,,,,,,,,,,,,,left,1,160,-30,130,1,1037.76565,1037.76565,1037.76565,None,None,4,0,0.2484768,,,,,,,,,,,,,,,,,,,,,,10,18,2,2024-11-14_18h09.50.012,uWM_experiment,2022.2.3,59.99674817
,,,,,,,,,,,,,,,,,,,,2,0,2,0,16,0,16,0,,,,,,,,,,,,,,,,,,,,,,,,,,,,,,,,,,,,,,,,,,,,,,,,,,,,,,,,,,,,,,,,,,,,,,0.005,,,,,,,,,,,,,,,,,,,,,,,,,,,,left,1,130,-30,100,1,1043.365855,1043.365855,1043.365855,None,None,4,0,0.3521983,,,,,,,,,,,,,,,,,,,,,,10,18,2,2024-11-14_18h09.50.012,uWM_experiment,2022.2.3,59.99674817
,,,,,,,,,,,,,,,,,,,,2,0,2,0,17,0,17,0,,,,,,,,,,,,,,,,,,,,,,,,,,,,,,,,,,,,,,,,,,,,,,,,,,,,,,,,,,,,,,,,,,,,,,0.005,,,,,,,,,,,,,,,,,,,,,,,,,,,,left,1,40,-30,10,1,1048.999419,1048.999419,1048.999419,None,None,4,0,0.3506207,,,,,,,,,,,,,,,,,,,,,,10,18,2,2024-11-14_18h09.50.012,uWM_experiment,2022.2.3,59.99674817
,,,,,,,,,,,,,,,,,,,,2,0,2,0,18,0,18,0,,,,,,,,,,,,,,,,,,,,,,,,,,,,,,,,,,,,,,,,,,,,,,,,,,,,,,,,,,,,,,,,,,,,,,0.005,,,,,,,,,,,,,,,,,,,,,,,,,,,,right,1,40,30,70,1,1055.066325,1055.066325,1055.066325,None,None,4,0,0.3157785,,,,,,,,,,,,,,,,,,,,,,10,18,2,2024-11-14_18h09.50.012,uWM_experiment,2022.2.3,59.99674817
,,,,,,,,,,,,,,,,,,,,2,0,2,0,19,0,19,0,,,,,,,,,,,,,,,,,,,,,,,,,,,,,,,,,,,,,,,,,,,,,,,,,,,,,,,,,,,,,,,,,,,,,,0.1,,,,,,,,,,,,,,,,,,,,,,,,,,,,right,0,100,-30,70,2,1060.999863,1060.999863,1060.999863,None,None,4,0,0.4622138,,,,,,,,,,,,,,,,,,,,,,10,18,2,2024-11-14_18h09.50.012,uWM_experiment,2022.2.3,59.99674817
,,,,,,,,,,,,,,,,,,,,2,0,2,0,20,0,20,0,,,,,,,,,,,,,,,,,,,,,,,,,,,,,,,,,,,,,,,,,,,,,,,,,,,,,,,,,,,,,,,,,,,,,,0,,,,,,,,,,,,,,,,,,,,,,,,,,,,right,0,10,-30,-20,0,1066.950084,1066.950084,1066.950084,None,None,4,0,0.3280071,,,,,,,,,,,,,,,,,,,,,,10,18,2,2024-11-14_18h09.50.012,uWM_experiment,2022.2.3,59.99674817
,,,,,,,,,,,,,,,,,,,,2,0,2,0,21,0,21,0,,,,,,,,,,,,,,,,,,,,,,,,,,,,,,,,,,,,,,,,,,,,,,,,,,,,,,,,,,,,,,,,,,,,,,0,,,,,,,,,,,,,,,,,,,,,,,,,,,,left,0,100,30,130,0,1072.68366,1072.68366,1072.68366,None,None,4,0,0.2983785,,,,,,,,,,,,,,,,,,,,,,10,18,2,2024-11-14_18h09.50.012,uWM_experiment,2022.2.3,59.99674817
,,,,,,,,,,,,,,,,,,,,2,0,2,0,22,0,22,0,,,,,,,,,,,,,,,,,,,,,,,,,,,,,,,,,,,,,,,,,,,,,,,,,,,,,,,,,,,,,,,,,,,,,,0.005,,,,,,,,,,,,,,,,,,,,,,,,,,,,left,1,40,-30,10,1,1081.784024,1081.784024,1081.784024,None,None,4,0,0.3739701,,,,,,,,,,,,,,,,,,,,,,10,18,2,2024-11-14_18h09.50.012,uWM_experiment,2022.2.3,59.99674817
,,,,,,,,,,,,,,,,,,,,2,0,2,0,23,0,23,0,,,,,,,,,,,,,,,,,,,,,,,,,,,,,,,,,,,,,,,,,,,,,,,,,,,,,,,,,,,,,,,,,,,,,,0.005,,,,,,,,,,,,,,,,,,,,,,,,,,,,left,1,100,-30,70,1,1087.617567,1087.617567,1087.617567,None,None,4,0,0.2924319,,,,,,,,,,,,,,,,,,,,,,10,18,2,2024-11-14_18h09.50.012,uWM_experiment,2022.2.3,59.99674817
,,,,,,,,,,,,,,,,,,,,2,0,2,0,,,,,0,0,0,0,,,,,,,,,,,,,,,,,,,,,,,,,,,,,,,,,,,,,,,,,,,,,,,,,,,,,,,,,,,,,,,,,,,,,,,,,,,,,,,,,,,,,,,,,,,,,,,,,,,,,,,,,,,,1087.934267,1087.934267,space,19.6636132,space,None,,1107.618349,1107.618349,13.091499,,,,,,,,,,,,10,18,2,2024-11-14_18h09.50.012,uWM_experiment,2022.2.3,59.99674817
,,,,,,,,,,,,,,,,,,,,2,0,2,0,,,,,1,0,1,0,,,,,,,,,,,,,,,,,,,,,,,,,,,,,,,,,,,,,,,,,,,,,,,,,,,,,,,,,,,,,,,,,,,,,,,,,,,,,,,,,,,,,,,,,,,,,,,,,,,,,,,,,,,,,,,,,,,,,,,,,,,,,,,,,10,18,2,2024-11-14_18h09.50.012,uWM_experiment,2022.2.3,59.99674817
,,,,,,,,,,,,,,,,,,,,2,0,2,0,,,,,2,0,2,0,,,,,,,,,,,,,,,,,,,,,,,,,,,,,,,,,,,,,,,,,,,,,,,,,,,,,,,,,,,,,,,,,,,,,,,,,,,,,,,,,,,,,,,,,,,,,,,,,,,,,,,,,,,,,,,,,,,,,,,,,,,,,,,,,10,18,2,2024-11-14_18h09.50.012,uWM_experiment,2022.2.3,59.99674817
,,,,,,,,,,,,,,,,,,,,3,0,3,0,0,0,0,0,,,,,,,,,,,,,,,,,,,,,,,,,,,,,,,,,,,,,,,,,,,,,,,,,,,,,,,,,,,,,,,,,,,,,,0.005,,,,,,,,,,,,,,,,,,,,1120.735521,1121.435549,1121.73556,1122.435587,1122.735601,1123.435644,1123.435644,1123.752322,left,1,40,-30,10,1,1128.052462,1128.052462,1128.052462,None,None,4,0,0.305151,,,,,,,None,,,,,,,,,,,,,,,10,18,2,2024-11-14_18h09.50.012,uWM_experiment,2022.2.3,59.99674817
,,,,,,,,,,,,,,,,,,,,3,0,3,0,1,0,1,0,,,,,,,,,,,,,,,,,,,,,,,,,,,,,,,,,,,,,,,,,,,,,,,,,,,,,,,,,,,,,,,,,,,,,,0,,,,,,,,,,,,,,,,,,,,,,,,,,,,left,1,130,-30,100,0,1133.886047,1133.886047,1133.886047,None,None,4,0,0.2155403,,,,,,,,,,,,,,,,,,,,,,10,18,2,2024-11-14_18h09.50.012,uWM_experiment,2022.2.3,59.99674817
,,,,,,,,,,,,,,,,,,,,3,0,3,0,2,0,2,0,,,,,,,,,,,,,,,,,,,,,,,,,,,,,,,,,,,,,,,,,,,,,,,,,,,,,,,,,,,,,,,,,,,,,,0.005,,,,,,,,,,,,,,,,,,,,,,,,,,,,left,1,10,-30,-20,1,1139.436256,1139.436256,1139.436256,None,None,4,0,0.2413483,,,,,,,,,,,,,,,,,,,,,,10,18,2,2024-11-14_18h09.50.012,uWM_experiment,2022.2.3,59.99674817
,,,,,,,,,,,,,,,,,,,,3,0,3,0,3,0,3,0,,,,,,,,,,,,,,,,,,,,,,,,,,,,,,,,,,,,,,,,,,,,,,,,,,,,,,,,,,,,,,,,,,,,,,0.005,,,,,,,,,,,,,,,,,,,,,,,,,,,,left,0,100,30,130,1,1144.953142,1144.953142,1144.953142,None,None,4,0,0.2285909,,,,,,,,,,,,,,,,,,,,,,10,18,2,2024-11-14_18h09.50.012,uWM_experiment,2022.2.3,59.99674817
,,,,,,,,,,,,,,,,,,,,3,0,3,0,4,0,4,0,,,,,,,,,,,,,,,,,,,,,,,,,,,,,,,,,,,,,,,,,,,,,,,,,,,,,,,,,,,,,,,,,,,,,,0.005,,,,,,,,,,,,,,,,,,,,,,,,,,,,left,0,130,30,160,1,1150.520028,1150.520028,1150.520028,None,None,4,0,0.2694753,,,,,,,,,,,,,,,,,,,,,,10,18,2,2024-11-14_18h09.50.012,uWM_experiment,2022.2.3,59.99674817
,,,,,,,,,,,,,,,,,,,,3,0,3,0,5,0,5,0,,,,,,,,,,,,,,,,,,,,,,,,,,,,,,,,,,,,,,,,,,,,,,,,,,,,,,,,,,,,,,,,,,,,,,0.005,,,,,,,,,,,,,,,,,,,,,,,,,,,,left,0,70,30,100,1,1156.120238,1156.120238,1156.120238,None,None,4,0,0.2532439,,,,,,,,,,,,,,,,,,,,,,10,18,2,2024-11-14_18h09.50.012,uWM_experiment,2022.2.3,59.99674817
,,,,,,,,,,,,,,,,,,,,3,0,3,0,6,0,6,0,,,,,,,,,,,,,,,,,,,,,,,,,,,,,,,,,,,,,,,,,,,,,,,,,,,,,,,,,,,,,,,,,,,,,,0.005,,,,,,,,,,,,,,,,,,,,,,,,,,,,left,1,130,-30,100,1,1161.653786,1161.653786,1161.653786,None,None,4,0,0.3196526,,,,,,,,,,,,,,,,,,,,,,10,18,2,2024-11-14_18h09.50.012,uWM_experiment,2022.2.3,59.99674817
,,,,,,,,,,,,,,,,,,,,3,0,3,0,7,0,7,0,,,,,,,,,,,,,,,,,,,,,,,,,,,,,,,,,,,,,,,,,,,,,,,,,,,,,,,,,,,,,,,,,,,,,,0.005,,,,,,,,,,,,,,,,,,,,,,,,,,,,left,0,40,30,70,1,1167.320673,1167.320673,1167.320673,None,None,4,0,0.3489214,,,,,,,,,,,,,,,,,,,,,,10,18,2,2024-11-14_18h09.50.012,uWM_experiment,2022.2.3,59.99674817
,,,,,,,,,,,,,,,,,,,,3,0,3,0,8,0,8,0,,,,,,,,,,,,,,,,,,,,,,,,,,,,,,,,,,,,,,,,,,,,,,,,,,,,,,,,,,,,,,,,,,,,,,0.005,,,,,,,,,,,,,,,,,,,,,,,,,,,,left,0,160,30,190,1,1173.004231,1173.004231,1173.004231,None,None,4,0,0.361341,,,,,,,,,,,,,,,,,,,,,,10,18,2,2024-11-14_18h09.50.012,uWM_experiment,2022.2.3,59.99674817
,,,,,,,,,,,,,,,,,,,,3,0,3,0,9,0,9,0,,,,,,,,,,,,,,,,,,,,,,,,,,,,,,,,,,,,,,,,,,,,,,,,,,,,,,,,,,,,,,,,,,,,,,0,,,,,,,,,,,,,,,,,,,,,,,,,,,,right,0,40,-30,10,0,1178.871136,1178.871136,1178.871136,None,None,4,0,0.3263794,,,,,,,,,,,,,,,,,,,,,,10,18,2,2024-11-14_18h09.50.012,uWM_experiment,2022.2.3,59.99674817
,,,,,,,,,,,,,,,,,,,,3,0,3,0,10,0,10,0,,,,,,,,,,,,,,,,,,,,,,,,,,,,,,,,,,,,,,,,,,,,,,,,,,,,,,,,,,,,,,,,,,,,,,0,,,,,,,,,,,,,,,,,,,,,,,,,,,,right,1,160,30,190,0,1184.904708,1184.904708,1184.904708,None,None,4,0,0.3247674,,,,,,,,,,,,,,,,,,,,,,10,18,2,2024-11-14_18h09.50.012,uWM_experiment,2022.2.3,59.99674817
,,,,,,,,,,,,,,,,,,,,3,0,3,0,11,0,11,0,,,,,,,,,,,,,,,,,,,,,,,,,,,,,,,,,,,,,,,,,,,,,,,,,,,,,,,,,,,,,,,,,,,,,,0.005,,,,,,,,,,,,,,,,,,,,,,,,,,,,right,0,100,-30,70,1,1190.588247,1190.588247,1190.588247,None,None,4,0,0.2891883,,,,,,,,,,,,,,,,,,,,,,10,18,2,2024-11-14_18h09.50.012,uWM_experiment,2022.2.3,59.99674817
,,,,,,,,,,,,,,,,,,,,3,0,3,0,12,0,12,0,,,,,,,,,,,,,,,,,,,,,,,,,,,,,,,,,,,,,,,,,,,,,,,,,,,,,,,,,,,,,,,,,,,,,,0.005,,,,,,,,,,,,,,,,,,,,,,,,,,,,left,0,10,30,40,1,1196.305134,1196.305134,1196.305134,None,None,4,0,0.2361341,,,,,,,,,,,,,,,,,,,,,,10,18,2,2024-11-14_18h09.50.012,uWM_experiment,2022.2.3,59.99674817
,,,,,,,,,,,,,,,,,,,,3,0,3,0,13,0,13,0,,,,,,,,,,,,,,,,,,,,,,,,,,,,,,,,,,,,,,,,,,,,,,,,,,,,,,,,,,,,,,,,,,,,,,0.005,,,,,,,,,,,,,,,,,,,,,,,,,,,,left,1,10,-30,-20,1,1201.88868,1201.88868,1201.88868,None,None,4,0,0.2525505,,,,,,,,,,,,,,,,,,,,,,10,18,2,2024-11-14_18h09.50.012,uWM_experiment,2022.2.3,59.99674817
,,,,,,,,,,,,,,,,,,,,3,0,3,0,14,0,14,0,,,,,,,,,,,,,,,,,,,,,,,,,,,,,,,,,,,,,,,,,,,,,,,,,,,,,,,,,,,,,,,,,,,,,,0.005,,,,,,,,,,,,,,,,,,,,,,,,,,,,left,0,40,30,70,1,1207.50557,1207.50557,1207.50557,None,None,4,0,0.2918771,,,,,,,,,,,,,,,,,,,,,,10,18,2,2024-11-14_18h09.50.012,uWM_experiment,2022.2.3,59.99674817
,,,,,,,,,,,,,,,,,,,,3,0,3,0,15,0,15,0,,,,,,,,,,,,,,,,,,,,,,,,,,,,,,,,,,,,,,,,,,,,,,,,,,,,,,,,,,,,,,,,,,,,,,0.005,,,,,,,,,,,,,,,,,,,,,,,,,,,,right,1,10,30,40,1,1213.389149,1213.389149,1213.389149,None,None,4,0,0.2400934,,,,,,,,,,,,,,,,,,,,,,10,18,2,2024-11-14_18h09.50.012,uWM_experiment,2022.2.3,59.99674817
,,,,,,,,,,,,,,,,,,,,3,0,3,0,16,0,16,0,,,,,,,,,,,,,,,,,,,,,,,,,,,,,,,,,,,,,,,,,,,,,,,,,,,,,,,,,,,,,,,,,,,,,,0,,,,,,,,,,,,,,,,,,,,,,,,,,,,right,0,130,-30,100,0,1219.23936,1219.23936,1219.23936,None,None,4,0,0.4938646,,,,,,,,,,,,,,,,,,,,,,10,18,2,2024-11-14_18h09.50.012,uWM_experiment,2022.2.3,59.99674817
,,,,,,,,,,,,,,,,,,,,3,0,3,0,17,0,17,0,,,,,,,,,,,,,,,,,,,,,,,,,,,,,,,,,,,,,,,,,,,,,,,,,,,,,,,,,,,,,,,,,,,,,,0,,,,,,,,,,,,,,,,,,,,,,,,,,,,right,1,100,30,130,0,1225.339592,1225.339592,1225.339592,None,None,4,0,0.2656574,,,,,,,,,,,,,,,,,,,,,,10,18,2,2024-11-14_18h09.50.012,uWM_experiment,2022.2.3,59.99674817
,,,,,,,,,,,,,,,,,,,,3,0,3,0,18,0,18,0,,,,,,,,,,,,,,,,,,,,,,,,,,,,,,,,,,,,,,,,,,,,,,,,,,,,,,,,,,,,,,,,,,,,,,0.005,,,,,,,,,,,,,,,,,,,,,,,,,,,,right,0,70,-30,40,1,1230.973183,1230.973183,1230.973183,None,None,4,0,0.2479345,,,,,,,,,,,,,,,,,,,,,,10,18,2,2024-11-14_18h09.50.012,uWM_experiment,2022.2.3,59.99674817
,,,,,,,,,,,,,,,,,,,,3,0,3,0,19,0,19,0,,,,,,,,,,,,,,,,,,,,,,,,,,,,,,,,,,,,,,,,,,,,,,,,,,,,,,,,,,,,,,,,,,,,,,0.005,,,,,,,,,,,,,,,,,,,,,,,,,,,,right,0,10,-30,-20,1,1236.573366,1236.573366,1236.573366,None,None,4,0,0.2717257,,,,,,,,,,,,,,,,,,,,,,10,18,2,2024-11-14_18h09.50.012,uWM_experiment,2022.2.3,59.99674817
,,,,,,,,,,,,,,,,,,,,3,0,3,0,20,0,20,0,,,,,,,,,,,,,,,,,,,,,,,,,,,,,,,,,,,,,,,,,,,,,,,,,,,,,,,,,,,,,,,,,,,,,,0,,,,,,,,,,,,,,,,,,,,,,,,,,,,right,1,100,30,130,0,1242.20692,1242.20692,1242.20692,None,None,4,0,0.3341373,,,,,,,,,,,,,,,,,,,,,,10,18,2,2024-11-14_18h09.50.012,uWM_experiment,2022.2.3,59.99674817
,,,,,,,,,,,,,,,,,,,,3,0,3,0,21,0,21,0,,,,,,,,,,,,,,,,,,,,,,,,,,,,,,,,,,,,,,,,,,,,,,,,,,,,,,,,,,,,,,,,,,,,,,0,,,,,,,,,,,,,,,,,,,,,,,,,,,,right,0,100,-30,70,0,1247.873807,1247.873807,1247.873807,None,None,4,0,0.2992583,,,,,,,,,,,,,,,,,,,,,,10,18,2,2024-11-14_18h09.50.012,uWM_experiment,2022.2.3,59.99674817
,,,,,,,,,,,,,,,,,,,,3,0,3,0,22,0,22,0,,,,,,,,,,,,,,,,,,,,,,,,,,,,,,,,,,,,,,,,,,,,,,,,,,,,,,,,,,,,,,,,,,,,,,0,,,,,,,,,,,,,,,,,,,,,,,,,,,,right,1,40,30,70,0,1253.624033,1253.624033,1253.624033,None,None,4,0,0.2771101,,,,,,,,,,,,,,,,,,,,,,10,18,2,2024-11-14_18h09.50.012,uWM_experiment,2022.2.3,59.99674817
,,,,,,,,,,,,,,,,,,,,3,0,3,0,23,0,23,0,,,,,,,,,,,,,,,,,,,,,,,,,,,,,,,,,,,,,,,,,,,,,,,,,,,,,,,,,,,,,,,,,,,,,,0.005,,,,,,,,,,,,,,,,,,,,,,,,,,,,right,0,100,-30,70,1,1259.340929,1259.340929,1259.340929,None,None,4,0,0.2001635,,,,,,,,,,,,,,,,,,,,,,10,18,2,2024-11-14_18h09.50.012,uWM_experiment,2022.2.3,59.99674817
,,,,,,,,,,,,,,,,,,,,3,0,3,0,,,,,0,0,0,0,,,,,,,,,,,,,,,,,,,,,,,,,,,,,,,,,,,,,,,,,,,,,,,,,,,,,,,,,,,,,,,,,,,,,,,,,,,,,,,,,,,,,,,,,,,,,,,,,,,,,,,,,,,,1259.574263,1259.574263,space,23.2547609,None,None,,,,,,,,,,,,,,,,10,18,2,2024-11-14_18h09.50.012,uWM_experiment,2022.2.3,59.99674817
,,,,,,,,,,,,,,,,,,,,3,0,3,0,,,,,1,0,1,0,,,,,,,,,,,,,,,,,,,,,,,,,,,,,,,,,,,,,,,,,,,,,,,,,,,,,,,,,,,,,,,,,,,,,,,,,,,,,,,,,,,,,,,,,,,,,,,,,,,,,,,,,,,,,,,,,,,,,,,,,,,,,,,,,10,18,2,2024-11-14_18h09.50.012,uWM_experiment,2022.2.3,59.99674817
,,,,,,,,,,,,,,,,,,,,3,0,3,0,,,,,2,0,2,0,,,,,,,,,,,,,,,,,,,,,,,,,,,,,,,,,,,,,,,,,,,,,,,,,,,,,,,,,,,,,,,,,,,,,,,,,,,,,,,,,,,,,,,,,,,,,,,,,,,,,,,,,,,,,,,,,,,,,,,,,,,,,,,,,10,18,2,2024-11-14_18h09.50.012,uWM_experiment,2022.2.3,59.99674817
,,,,,,,,,,,,,,,,,,,,4,0,4,0,0,0,0,0,,,,,,,,,,,,,,,,,,,,,,,,,,,,,,,,,,,,,,,,,,,,,,,,,,,,,,,,,,,,,,,,,,,,,,0,,,,,,,,,,,,,,,,,,,,1282.858499,1283.558544,1283.85853,1284.558579,1284.858573,1285.558603,1285.558603,1285.875284,left,1,130,-30,100,0,1290.408796,1290.408796,1290.408796,None,None,4,0,0.2120046,,,,,,,None,,,,,,,,,,,,,,,10,18,2,2024-11-14_18h09.50.012,uWM_experiment,2022.2.3,59.99674817
,,,,,,,,,,,,,,,,,,,,4,0,4,0,1,0,1,0,,,,,,,,,,,,,,,,,,,,,,,,,,,,,,,,,,,,,,,,,,,,,,,,,,,,,,,,,,,,,,,,,,,,,,0.005,,,,,,,,,,,,,,,,,,,,,,,,,,,,left,0,70,30,100,1,1296.075703,1296.075703,1296.075703,None,None,4,0,0.2092367,,,,,,,,,,,,,,,,,,,,,,10,18,2,2024-11-14_18h09.50.012,uWM_experiment,2022.2.3,59.99674817
,,,,,,,,,,,,,,,,,,,,4,0,4,0,2,0,2,0,,,,,,,,,,,,,,,,,,,,,,,,,,,,,,,,,,,,,,,,,,,,,,,,,,,,,,,,,,,,,,,,,,,,,,0.005,,,,,,,,,,,,,,,,,,,,,,,,,,,,left,0,100,30,130,1,1301.709253,1301.709253,1301.709253,None,None,4,0,0.1996049,,,,,,,,,,,,,,,,,,,,,,10,18,2,2024-11-14_18h09.50.012,uWM_experiment,2022.2.3,59.99674817
,,,,,,,,,,,,,,,,,,,,4,0,4,0,3,0,3,0,,,,,,,,,,,,,,,,,,,,,,,,,,,,,,,,,,,,,,,,,,,,,,,,,,,,,,,,,,,,,,,,,,,,,,0.005,,,,,,,,,,,,,,,,,,,,,,,,,,,,left,0,70,30,100,1,1307.376113,1307.376113,1307.376113,None,None,4,0,0.2045704,,,,,,,,,,,,,,,,,,,,,,10,18,2,2024-11-14_18h09.50.012,uWM_experiment,2022.2.3,59.99674817
,,,,,,,,,,,,,,,,,,,,4,0,4,0,4,0,4,0,,,,,,,,,,,,,,,,,,,,,,,,,,,,,,,,,,,,,,,,,,,,,,,,,,,,,,,,,,,,,,,,,,,,,,0.005,,,,,,,,,,,,,,,,,,,,,,,,,,,,left,1,70,-30,40,1,1312.959675,1312.959675,1312.959675,None,None,4,0,0.1571306,,,,,,,,,,,,,,,,,,,,,,10,18,2,2024-11-14_18h09.50.012,uWM_experiment,2022.2.3,59.99674817
,,,,,,,,,,,,,,,,,,,,4,0,4,0,5,0,5,0,,,,,,,,,,,,,,,,,,,,,,,,,,,,,,,,,,,,,,,,,,,,,,,,,,,,,,,,,,,,,,,,,,,,,,0.005,,,,,,,,,,,,,,,,,,,,,,,,,,,,left,1,10,-30,-20,1,1318.543232,1318.543232,1318.543232,None,None,4,0,0.2614823,,,,,,,,,,,,,,,,,,,,,,10,18,2,2024-11-14_18h09.50.012,uWM_experiment,2022.2.3,59.99674817
,,,,,,,,,,,,,,,,,,,,4,0,4,0,6,0,6,0,,,,,,,,,,,,,,,,,,,,,,,,,,,,,,,,,,,,,,,,,,,,,,,,,,,,,,,,,,,,,,,,,,,,,,0,,,,,,,,,,,,,,,,,,,,,,,,,,,,left,1,100,-30,70,0,1324.293461,1324.293461,1324.293461,None,None,4,0,0.1833259,,,,,,,,,,,,,,,,,,,,,,10,18,2,2024-11-14_18h09.50.012,uWM_experiment,2022.2.3,59.99674817
,,,,,,,,,,,,,,,,,,,,4,0,4,0,7,0,7,0,,,,,,,,,,,,,,,,,,,,,,,,,,,,,,,,,,,,,,,,,,,,,,,,,,,,,,,,,,,,,,,,,,,,,,0.005,,,,,,,,,,,,,,,,,,,,,,,,,,,,right,0,70,-30,40,1,1329.993679,1329.993679,1329.993679,None,None,4,0,0.2188797,,,,,,,,,,,,,,,,,,,,,,10,18,2,2024-11-14_18h09.50.012,uWM_experiment,2022.2.3,59.99674817
,,,,,,,,,,,,,,,,,,,,4,0,4,0,8,0,8,0,,,,,,,,,,,,,,,,,,,,,,,,,,,,,,,,,,,,,,,,,,,,,,,,,,,,,,,,,,,,,,,,,,,,,,0.005,,,,,,,,,,,,,,,,,,,,,,,,,,,,right,0,160,-30,130,1,1336.010588,1336.010588,1336.010588,None,None,4,0,0.3781164,,,,,,,,,,,,,,,,,,,,,,10,18,2,2024-11-14_18h09.50.012,uWM_experiment,2022.2.3,59.99674817
,,,,,,,,,,,,,,,,,,,,4,0,4,0,9,0,9,0,,,,,,,,,,,,,,,,,,,,,,,,,,,,,,,,,,,,,,,,,,,,,,,,,,,,,,,,,,,,,,,,,,,,,,0,,,,,,,,,,,,,,,,,,,,,,,,,,,,left,1,40,-30,10,0,1342.160825,1342.160825,1342.160825,None,None,4,0,0.3237508,,,,,,,,,,,,,,,,,,,,,,10,18,2,2024-11-14_18h09.50.012,uWM_experiment,2022.2.3,59.99674817
,,,,,,,,,,,,,,,,,,,,4,0,4,0,10,0,10,0,,,,,,,,,,,,,,,,,,,,,,,,,,,,,,,,,,,,,,,,,,,,,,,,,,,,,,,,,,,,,,,,,,,,,,0.005,,,,,,,,,,,,,,,,,,,,,,,,,,,,right,0,130,-30,100,1,1348.294367,1348.294367,1348.294367,None,None,4,0,0.2861449,,,,,,,,,,,,,,,,,,,,,,10,18,2,2024-11-14_18h09.50.012,uWM_experiment,2022.2.3,59.99674817
,,,,,,,,,,,,,,,,,,,,4,0,4,0,11,0,11,0,,,,,,,,,,,,,,,,,,,,,,,,,,,,,,,,,,,,,,,,,,,,,,,,,,,,,,,,,,,,,,,,,,,,,,0,,,,,,,,,,,,,,,,,,,,,,,,,,,,right,1,100,30,130,0,1354.561269,1354.561269,1354.561269,None,None,4,0,0.3393724,,,,,,,,,,,,,,,,,,,,,,10,18,2,2024-11-14_18h09.50.012,uWM_experiment,2022.2.3,59.99674817
,,,,,,,,,,,,,,,,,,,,4,0,4,0,12,0,12,0,,,,,,,,,,,,,,,,,,,,,,,,,,,,,,,,,,,,,,,,,,,,,,,,,,,,,,,,,,,,,,,,,,,,,,0.005,,,,,,,,,,,,,,,,,,,,,,,,,,,,right,0,10,-30,-20,1,1360.511498,1360.511498,1360.511498,None,None,4,0,0.309057,,,,,,,,,,,,,,,,,,,,,,10,18,2,2024-11-14_18h09.50.012,uWM_experiment,2022.2.3,59.99674817
,,,,,,,,,,,,,,,,,,,,4,0,4,0,13,0,13,0,,,,,,,,,,,,,,,,,,,,,,,,,,,,,,,,,,,,,,,,,,,,,,,,,,,,,,,,,,,,,,,,,,,,,,0.005,,,,,,,,,,,,,,,,,,,,,,,,,,,,right,1,100,30,130,1,1366.311744,1366.311744,1366.311744,None,None,4,0,0.2606844,,,,,,,,,,,,,,,,,,,,,,10,18,2,2024-11-14_18h09.50.012,uWM_experiment,2022.2.3,59.99674817
,,,,,,,,,,,,,,,,,,,,4,0,4,0,14,0,14,0,,,,,,,,,,,,,,,,,,,,,,,,,,,,,,,,,,,,,,,,,,,,,,,,,,,,,,,,,,,,,,,,,,,,,,0.005,,,,,,,,,,,,,,,,,,,,,,,,,,,,left,0,10,30,40,1,1372.612003,1372.612003,1372.612003,None,None,4,0,0.3363507,,,,,,,,,,,,,,,,,,,,,,10,18,2,2024-11-14_18h09.50.012,uWM_experiment,2022.2.3,59.99674817
,,,,,,,,,,,,,,,,,,,,4,0,4,0,15,0,15,0,,,,,,,,,,,,,,,,,,,,,,,,,,,,,,,,,,,,,,,,,,,,,,,,,,,,,,,,,,,,,,,,,,,,,,0.005,,,,,,,,,,,,,,,,,,,,,,,,,,,,left,0,40,30,70,1,1380.178948,1380.178948,1380.178948,None,None,4,0,0.3053692,,,,,,,,,,,,,,,,,,,,,,10,18,2,2024-11-14_18h09.50.012,uWM_experiment,2022.2.3,59.99674817
,,,,,,,,,,,,,,,,,,,,4,0,4,0,16,0,16,0,,,,,,,,,,,,,,,,,,,,,,,,,,,,,,,,,,,,,,,,,,,,,,,,,,,,,,,,,,,,,,,,,,,,,,0.005,,,,,,,,,,,,,,,,,,,,,,,,,,,,right,0,130,-30,100,1,1386.16253,1386.16253,1386.16253,None,None,4,0,0.2898541,,,,,,,,,,,,,,,,,,,,,,10,18,2,2024-11-14_18h09.50.012,uWM_experiment,2022.2.3,59.99674817
,,,,,,,,,,,,,,,,,,,,4,0,4,0,17,0,17,0,,,,,,,,,,,,,,,,,,,,,,,,,,,,,,,,,,,,,,,,,,,,,,,,,,,,,,,,,,,,,,,,,,,,,,0.005,,,,,,,,,,,,,,,,,,,,,,,,,,,,right,1,130,30,160,1,1392.329425,1392.329425,1392.329425,None,None,4,0,0.4188629,,,,,,,,,,,,,,,,,,,,,,10,18,2,2024-11-14_18h09.50.012,uWM_experiment,2022.2.3,59.99674817
,,,,,,,,,,,,,,,,,,,,4,0,4,0,18,0,18,0,,,,,,,,,,,,,,,,,,,,,,,,,,,,,,,,,,,,,,,,,,,,,,,,,,,,,,,,,,,,,,,,,,,,,,0,,,,,,,,,,,,,,,,,,,,,,,,,,,,left,0,160,30,190,0,1398.612995,1398.612995,1398.612995,None,None,4,0,0.2872831,,,,,,,,,,,,,,,,,,,,,,10,18,2,2024-11-14_18h09.50.012,uWM_experiment,2022.2.3,59.99674817
,,,,,,,,,,,,,,,,,,,,4,0,4,0,19,0,19,0,,,,,,,,,,,,,,,,,,,,,,,,,,,,,,,,,,,,,,,,,,,,,,,,,,,,,,,,,,,,,,,,,,,,,,0.005,,,,,,,,,,,,,,,,,,,,,,,,,,,,left,1,40,-30,10,1,1404.596559,1404.596559,1404.596559,None,None,4,0,0.3036609,,,,,,,,,,,,,,,,,,,,,,10,18,2,2024-11-14_18h09.50.012,uWM_experiment,2022.2.3,59.99674817
,,,,,,,,,,,,,,,,,,,,4,0,4,0,20,0,20,0,,,,,,,,,,,,,,,,,,,,,,,,,,,,,,,,,,,,,,,,,,,,,,,,,,,,,,,,,,,,,,,,,,,,,,0.005,,,,,,,,,,,,,,,,,,,,,,,,,,,,right,0,130,-30,100,1,1410.613462,1410.613462,1410.613462,None,None,4,0,0.2948892,,,,,,,,,,,,,,,,,,,,,,10,18,2,2024-11-14_18h09.50.012,uWM_experiment,2022.2.3,59.99674817
,,,,,,,,,,,,,,,,,,,,4,0,4,0,21,0,21,0,,,,,,,,,,,,,,,,,,,,,,,,,,,,,,,,,,,,,,,,,,,,,,,,,,,,,,,,,,,,,,,,,,,,,,0.005,,,,,,,,,,,,,,,,,,,,,,,,,,,,left,1,70,-30,40,1,1416.580365,1416.580365,1416.580365,None,None,4,0,0.41596,,,,,,,,,,,,,,,,,,,,,,10,18,2,2024-11-14_18h09.50.012,uWM_experiment,2022.2.3,59.99674817
,,,,,,,,,,,,,,,,,,,,4,0,4,0,22,0,22,0,,,,,,,,,,,,,,,,,,,,,,,,,,,,,,,,,,,,,,,,,,,,,,,,,,,,,,,,,,,,,,,,,,,,,,0.005,,,,,,,,,,,,,,,,,,,,,,,,,,,,left,0,40,30,70,1,1423.630647,1423.630647,1423.630647,None,None,4,0,0.3576274,,,,,,,,,,,,,,,,,,,,,,10,18,2,2024-11-14_18h09.50.012,uWM_experiment,2022.2.3,59.99674817
,,,,,,,,,,,,,,,,,,,,4,0,4,0,23,0,23,0,,,,,,,,,,,,,,,,,,,,,,,,,,,,,,,,,,,,,,,,,,,,,,,,,,,,,,,,,,,,,,,,,,,,,,0.005,,,,,,,,,,,,,,,,,,,,,,,,,,,,right,0,160,-30,130,1,1429.747582,1429.747582,1429.747582,None,None,4,0,0.3524707,,,,,,,,,,,,,,,,,,,,,,10,18,2,2024-11-14_18h09.50.012,uWM_experiment,2022.2.3,59.99674817
,,,,,,,,,,,,,,,,,,,,4,0,4,0,,,,,0,0,0,0,,,,,,,,,,,,,,,,,,,,,,,,,,,,,,,,,,,,,,,,,,,,,,,,,,,,,,,,,,,,,,,,,,,,,,,,,,,,,,,,,,,,,,,,,,,,,,,,,,,,,,,,,,,,1430.130875,1430.130875,space,32.7692704,None,None,,,,,,,,,,,,,,,,10,18,2,2024-11-14_18h09.50.012,uWM_experiment,2022.2.3,59.99674817
,,,,,,,,,,,,,,,,,,,,4,0,4,0,,,,,1,0,1,0,,,,,,,,,,,,,,,,,,,,,,,,,,,,,,,,,,,,,,,,,,,,,,,,,,,,,,,,,,,,,,,,,,,,,,,,,,,,,,,,,,,,,,,,,,,,,,,,,,,,,,,,,,,,,,,,,,,,,,,,,,,,,,,,,10,18,2,2024-11-14_18h09.50.012,uWM_experiment,2022.2.3,59.99674817
,,,,,,,,,,,,,,,,,,,,4,0,4,0,,,,,2,0,2,0,,,,,,,,,,,,,,,,,,,,,,,,,,,,,,,,,,,,,,,,,,,,,,,,,,,,,,,,,,,,,,,,,,,,,,,,,,,,,,,,,,,,,,,,,,,,,,,,,,,,,,,,,,,,,,,,,,,,,,,,,,,,,,,,,10,18,2,2024-11-14_18h09.50.012,uWM_experiment,2022.2.3,59.99674817
,,,,,,,,,,,,,,,,,,,,5,0,5,0,0,0,0,0,,,,,,,,,,,,,,,,,,,,,,,,,,,,,,,,,,,,,,,,,,,,,,,,,,,,,,,,,,,,,,,,,,,,,,0.1,,,,,,,,,,,,,,,,,,,,1462.932146,1463.63218,1463.932193,1464.632324,1464.93228,1465.632257,1465.632257,1465.948945,left,0,40,30,70,2,1471.015815,1471.015815,1471.015815,None,None,4,0,0.4600915,,,,,,,None,,,,,,,,,,,,,,,10,18,2,2024-11-14_18h09.50.012,uWM_experiment,2022.2.3,59.99674817
,,,,,,,,,,,,,,,,,,,,5,0,5,0,1,0,1,0,,,,,,,,,,,,,,,,,,,,,,,,,,,,,,,,,,,,,,,,,,,,,,,,,,,,,,,,,,,,,,,,,,,,,,0.005,,,,,,,,,,,,,,,,,,,,,,,,,,,,right,0,160,-30,130,1,1477.099377,1477.099377,1477.099377,None,None,4,0,0.3684371,,,,,,,,,,,,,,,,,,,,,,10,18,2,2024-11-14_18h09.50.012,uWM_experiment,2022.2.3,59.99674817
,,,,,,,,,,,,,,,,,,,,5,0,5,0,2,0,2,0,,,,,,,,,,,,,,,,,,,,,,,,,,,,,,,,,,,,,,,,,,,,,,,,,,,,,,,,,,,,,,,,,,,,,,0.005,,,,,,,,,,,,,,,,,,,,,,,,,,,,right,1,70,30,100,1,1483.432974,1483.432974,1483.432974,None,None,4,0,0.3469948,,,,,,,,,,,,,,,,,,,,,,10,18,2,2024-11-14_18h09.50.012,uWM_experiment,2022.2.3,59.99674817
,,,,,,,,,,,,,,,,,,,,5,0,5,0,3,0,3,0,,,,,,,,,,,,,,,,,,,,,,,,,,,,,,,,,,,,,,,,,,,,,,,,,,,,,,,,,,,,,,,,,,,,,,0.005,,,,,,,,,,,,,,,,,,,,,,,,,,,,right,1,100,30,130,1,1489.46654,1489.46654,1489.46654,None,None,4,0,0.3293022,,,,,,,,,,,,,,,,,,,,,,10,18,2,2024-11-14_18h09.50.012,uWM_experiment,2022.2.3,59.99674817
,,,,,,,,,,,,,,,,,,,,5,0,5,0,4,0,4,0,,,,,,,,,,,,,,,,,,,,,,,,,,,,,,,,,,,,,,,,,,,,,,,,,,,,,,,,,,,,,,,,,,,,,,0.005,,,,,,,,,,,,,,,,,,,,,,,,,,,,right,1,70,30,100,1,1495.366754,1495.366754,1495.366754,None,None,4,0,0.3010233,,,,,,,,,,,,,,,,,,,,,,10,18,2,2024-11-14_18h09.50.012,uWM_experiment,2022.2.3,59.99674817
,,,,,,,,,,,,,,,,,,,,5,0,5,0,5,0,5,0,,,,,,,,,,,,,,,,,,,,,,,,,,,,,,,,,,,,,,,,,,,,,,,,,,,,,,,,,,,,,,,,,,,,,,0.005,,,,,,,,,,,,,,,,,,,,,,,,,,,,left,0,160,30,190,1,1501.800319,1501.800319,1501.800319,None,None,4,0,0.3873607,,,,,,,,,,,,,,,,,,,,,,10,18,2,2024-11-14_18h09.50.012,uWM_experiment,2022.2.3,59.99674817
,,,,,,,,,,,,,,,,,,,,5,0,5,0,6,0,6,0,,,,,,,,,,,,,,,,,,,,,,,,,,,,,,,,,,,,,,,,,,,,,,,,,,,,,,,,,,,,,,,,,,,,,,0,,,,,,,,,,,,,,,,,,,,,,,,,,,,left,0,160,30,190,0,1507.783886,1507.783886,1507.783886,None,None,4,0,0.4037739,,,,,,,,,,,,,,,,,,,,,,10,18,2,2024-11-14_18h09.50.012,uWM_experiment,2022.2.3,59.99674817
,,,,,,,,,,,,,,,,,,,,5,0,5,0,7,0,7,0,,,,,,,,,,,,,,,,,,,,,,,,,,,,,,,,,,,,,,,,,,,,,,,,,,,,,,,,,,,,,,,,,,,,,,0.005,,,,,,,,,,,,,,,,,,,,,,,,,,,,right,1,70,30,100,1,1513.7508,1513.7508,1513.7508,None,None,4,0,0.2849193,,,,,,,,,,,,,,,,,,,,,,10,18,2,2024-11-14_18h09.50.012,uWM_experiment,2022.2.3,59.99674817
,,,,,,,,,,,,,,,,,,,,5,0,5,0,8,0,8,0,,,,,,,,,,,,,,,,,,,,,,,,,,,,,,,,,,,,,,,,,,,,,,,,,,,,,,,,,,,,,,,,,,,,,,0.005,,,,,,,,,,,,,,,,,,,,,,,,,,,,right,0,160,-30,130,1,1519.717708,1519.717708,1519.717708,None,None,4,0,0.373963,,,,,,,,,,,,,,,,,,,,,,10,18,2,2024-11-14_18h09.50.012,uWM_experiment,2022.2.3,59.99674817
,,,,,,,,,,,,,,,,,,,,5,0,5,0,9,0,9,0,,,,,,,,,,,,,,,,,,,,,,,,,,,,,,,,,,,,,,,,,,,,,,,,,,,,,,,,,,,,,,,,,,,,,,0.005,,,,,,,,,,,,,,,,,,,,,,,,,,,,left,1,40,-30,10,1,1525.651274,1525.651274,1525.651274,None,None,4,0,0.2722962,,,,,,,,,,,,,,,,,,,,,,10,18,2,2024-11-14_18h09.50.012,uWM_experiment,2022.2.3,59.99674817
,,,,,,,,,,,,,,,,,,,,5,0,5,0,10,0,10,0,,,,,,,,,,,,,,,,,,,,,,,,,,,,,,,,,,,,,,,,,,,,,,,,,,,,,,,,,,,,,,,,,,,,,,0.005,,,,,,,,,,,,,,,,,,,,,,,,,,,,left,0,160,30,190,1,1532.201512,1532.201512,1532.201512,None,None,4,0,0.4102488,,,,,,,,,,,,,,,,,,,,,,10,18,2,2024-11-14_18h09.50.012,uWM_experiment,2022.2.3,59.99674817
,,,,,,,,,,,,,,,,,,,,5,0,5,0,11,0,11,0,,,,,,,,,,,,,,,,,,,,,,,,,,,,,,,,,,,,,,,,,,,,,,,,,,,,,,,,,,,,,,,,,,,,,,0.005,,,,,,,,,,,,,,,,,,,,,,,,,,,,right,0,160,-30,130,1,1538.235095,1538.235095,1538.235095,None,None,4,0,0.384456,,,,,,,,,,,,,,,,,,,,,,10,18,2,2024-11-14_18h09.50.012,uWM_experiment,2022.2.3,59.99674817
,,,,,,,,,,,,,,,,,,,,5,0,5,0,12,0,12,0,,,,,,,,,,,,,,,,,,,,,,,,,,,,,,,,,,,,,,,,,,,,,,,,,,,,,,,,,,,,,,,,,,,,,,0.005,,,,,,,,,,,,,,,,,,,,,,,,,,,,right,1,70,30,100,1,1544.301983,1544.301983,1544.301983,None,None,4,0,0.3336107,,,,,,,,,,,,,,,,,,,,,,10,18,2,2024-11-14_18h09.50.012,uWM_experiment,2022.2.3,59.99674817
,,,,,,,,,,,,,,,,,,,,5,0,5,0,13,0,13,0,,,,,,,,,,,,,,,,,,,,,,,,,,,,,,,,,,,,,,,,,,,,,,,,,,,,,,,,,,,,,,,,,,,,,,0.005,,,,,,,,,,,,,,,,,,,,,,,,,,,,left,1,70,-30,40,1,1550.152213,1550.152213,1550.152213,None,None,4,0,0.2835232,,,,,,,,,,,,,,,,,,,,,,10,18,2,2024-11-14_18h09.50.012,uWM_experiment,2022.2.3,59.99674817
,,,,,,,,,,,,,,,,,,,,5,0,5,0,14,0,14,0,,,,,,,,,,,,,,,,,,,,,,,,,,,,,,,,,,,,,,,,,,,,,,,,,,,,,,,,,,,,,,,,,,,,,,0.005,,,,,,,,,,,,,,,,,,,,,,,,,,,,left,1,40,-30,10,1,1556.035771,1556.035771,1556.035771,None,None,4,0,0.2957287,,,,,,,,,,,,,,,,,,,,,,10,18,2,2024-11-14_18h09.50.012,uWM_experiment,2022.2.3,59.99674817
,,,,,,,,,,,,,,,,,,,,5,0,5,0,15,0,15,0,,,,,,,,,,,,,,,,,,,,,,,,,,,,,,,,,,,,,,,,,,,,,,,,,,,,,,,,,,,,,,,,,,,,,,0,,,,,,,,,,,,,,,,,,,,,,,,,,,,left,1,40,-30,10,0,1562.569386,1562.569386,1562.569386,None,None,4,0,0.3780156,,,,,,,,,,,,,,,,,,,,,,10,18,2,2024-11-14_18h09.50.012,uWM_experiment,2022.2.3,59.99674817
,,,,,,,,,,,,,,,,,,,,5,0,5,0,16,0,16,0,,,,,,,,,,,,,,,,,,,,,,,,,,,,,,,,,,,,,,,,,,,,,,,,,,,,,,,,,,,,,,,,,,,,,,0,,,,,,,,,,,,,,,,,,,,,,,,,,,,right,0,130,-30,100,0,1568.502929,1568.502929,1568.502929,None,None,4,0,0.2926157,,,,,,,,,,,,,,,,,,,,,,10,18,2,2024-11-14_18h09.50.012,uWM_experiment,2022.2.3,59.99674817
,,,,,,,,,,,,,,,,,,,,5,0,5,0,17,0,17,0,,,,,,,,,,,,,,,,,,,,,,,,,,,,,,,,,,,,,,,,,,,,,,,,,,,,,,,,,,,,,,,,,,,,,,0,,,,,,,,,,,,,,,,,,,,,,,,,,,,right,0,130,-30,100,0,1574.336503,1574.336503,1574.336503,None,None,4,0,0.2829861,,,,,,,,,,,,,,,,,,,,,,10,18,2,2024-11-14_18h09.50.012,uWM_experiment,2022.2.3,59.99674817
,,,,,,,,,,,,,,,,,,,,5,0,5,0,18,0,18,0,,,,,,,,,,,,,,,,,,,,,,,,,,,,,,,,,,,,,,,,,,,,,,,,,,,,,,,,,,,,,,,,,,,,,,0,,,,,,,,,,,,,,,,,,,,,,,,,,,,right,1,100,30,130,0,1580.253378,1580.253378,1580.253378,None,None,4,0,0.3261008,,,,,,,,,,,,,,,,,,,,,,10,18,2,2024-11-14_18h09.50.012,uWM_experiment,2022.2.3,59.99674817
,,,,,,,,,,,,,,,,,,,,5,0,5,0,19,0,19,0,,,,,,,,,,,,,,,,,,,,,,,,,,,,,,,,,,,,,,,,,,,,,,,,,,,,,,,,,,,,,,,,,,,,,,0.005,,,,,,,,,,,,,,,,,,,,,,,,,,,,right,0,160,-30,130,1,1586.203596,1586.203596,1586.203596,None,None,4,0,0.303698,,,,,,,,,,,,,,,,,,,,,,10,18,2,2024-11-14_18h09.50.012,uWM_experiment,2022.2.3,59.99674817
,,,,,,,,,,,,,,,,,,,,5,0,5,0,20,0,20,0,,,,,,,,,,,,,,,,,,,,,,,,,,,,,,,,,,,,,,,,,,,,,,,,,,,,,,,,,,,,,,,,,,,,,,0.1,,,,,,,,,,,,,,,,,,,,,,,,,,,,left,1,40,-30,10,2,1592.370499,1592.370499,1592.370499,None,None,4,0,0.3128897,,,,,,,,,,,,,,,,,,,,,,10,18,2,2024-11-14_18h09.50.012,uWM_experiment,2022.2.3,59.99674817
,,,,,,,,,,,,,,,,,,,,5,0,5,0,21,0,21,0,,,,,,,,,,,,,,,,,,,,,,,,,,,,,,,,,,,,,,,,,,,,,,,,,,,,,,,,,,,,,,,,,,,,,,0,,,,,,,,,,,,,,,,,,,,,,,,,,,,right,0,160,-30,130,0,1598.320746,1598.320746,1598.320746,None,None,4,0,0.3066435,,,,,,,,,,,,,,,,,,,,,,10,18,2,2024-11-14_18h09.50.012,uWM_experiment,2022.2.3,59.99674817
,,,,,,,,,,,,,,,,,,,,5,0,5,0,22,0,22,0,,,,,,,,,,,,,,,,,,,,,,,,,,,,,,,,,,,,,,,,,,,,,,,,,,,,,,,,,,,,,,,,,,,,,,0.005,,,,,,,,,,,,,,,,,,,,,,,,,,,,right,1,130,30,160,1,1604.454334,1604.454334,1604.454334,None,None,4,0,0.381038,,,,,,,,,,,,,,,,,,,,,,10,18,2,2024-11-14_18h09.50.012,uWM_experiment,2022.2.3,59.99674817
,,,,,,,,,,,,,,,,,,,,5,0,5,0,23,0,23,0,,,,,,,,,,,,,,,,,,,,,,,,,,,,,,,,,,,,,,,,,,,,,,,,,,,,,,,,,,,,,,,,,,,,,,0.005,,,,,,,,,,,,,,,,,,,,,,,,,,,,left,1,100,-30,70,1,1610.637916,1610.637916,1610.637916,None,None,4,0,0.341403,,,,,,,,,,,,,,,,,,,,,,10,18,2,2024-11-14_18h09.50.012,uWM_experiment,2022.2.3,59.99674817
,,,,,,,,,,,,,,,,,,,,5,0,5,0,,,,,0,0,0,0,,,,,,,,,,,,,,,,,,,,,,,,,,,,,,,,,,,,,,,,,,,,,,,,,,,,,,,,,,,,,,,,,,,,,,,,,,,,,,,,,,,,,,,,,,,,,,,,,,,,,,,,,,,,1611.004555,1611.004555,space,31.5825897,space,None,,1642.605793,1642.605793,1.8053975,,,,,,,,,,,,10,18,2,2024-11-14_18h09.50.012,uWM_experiment,2022.2.3,59.99674817
,,,,,,,,,,,,,,,,,,,,5,0,5,0,,,,,1,0,1,0,,,,,,,,,,,,,,,,,,,,,,,,,,,,,,,,,,,,,,,,,,,,,,,,,,,,,,,,,,,,,,,,,,,,,,,,,,,,,,,,,,,,,,,,,,,,,,,,,,,,,,,,,,,,,,,,,,,,,,,,,,,,,,,,,10,18,2,2024-11-14_18h09.50.012,uWM_experiment,2022.2.3,59.99674817
,,,,,,,,,,,,,,,,,,,,5,0,5,0,,,,,2,0,2,0,,,,,,,,,,,,,,,,,,,,,,,,,,,,,,,,,,,,,,,,,,,,,,,,,,,,,,,,,,,,,,,,,,,,,,,,,,,,,,,,,,,,,,,,,,,,,,,,,,,,,,,,,,,,,,,,,,,,,,,,,,,,,,,,,10,18,2,2024-11-14_18h09.50.012,uWM_experiment,2022.2.3,59.99674817
,,,,,,,,,,,,,,,,,,,,6,0,6,0,0,0,0,0,,,,,,,,,,,,,,,,,,,,,,,,,,,,,,,,,,,,,,,,,,,,,,,,,,,,,,,,,,,,,,,,,,,,,,0.005,,,,,,,,,,,,,,,,,,,,1644.439191,1645.139221,1645.439232,1646.139259,1646.439271,1647.139299,1647.139299,1647.455985,left,0,10,30,40,1,1652.272838,1652.272838,1652.272838,None,None,4,0,0.4181216,,,,,,,None,,,,,,,,,,,,,,,10,18,2,2024-11-14_18h09.50.012,uWM_experiment,2022.2.3,59.99674817
,,,,,,,,,,,,,,,,,,,,6,0,6,0,1,0,1,0,,,,,,,,,,,,,,,,,,,,,,,,,,,,,,,,,,,,,,,,,,,,,,,,,,,,,,,,,,,,,,,,,,,,,,0.005,,,,,,,,,,,,,,,,,,,,,,,,,,,,left,0,10,30,40,1,1658.256402,1658.256402,1658.256402,None,None,4,0,0.3306837,,,,,,,,,,,,,,,,,,,,,,10,18,2,2024-11-14_18h09.50.012,uWM_experiment,2022.2.3,59.99674817
,,,,,,,,,,,,,,,,,,,,6,0,6,0,2,0,2,0,,,,,,,,,,,,,,,,,,,,,,,,,,,,,,,,,,,,,,,,,,,,,,,,,,,,,,,,,,,,,,,,,,,,,,0.005,,,,,,,,,,,,,,,,,,,,,,,,,,,,right,0,160,-30,130,1,1664.189983,1664.189983,1664.189983,None,None,4,0,0.277017,,,,,,,,,,,,,,,,,,,,,,10,18,2,2024-11-14_18h09.50.012,uWM_experiment,2022.2.3,59.99674817
,,,,,,,,,,,,,,,,,,,,6,0,6,0,3,0,3,0,,,,,,,,,,,,,,,,,,,,,,,,,,,,,,,,,,,,,,,,,,,,,,,,,,,,,,,,,,,,,,,,,,,,,,0.005,,,,,,,,,,,,,,,,,,,,,,,,,,,,left,1,100,-30,70,1,1670.290248,1670.290248,1670.290248,None,None,4,0,0.312673,,,,,,,,,,,,,,,,,,,,,,10,18,2,2024-11-14_18h09.50.012,uWM_experiment,2022.2.3,59.99674817
,,,,,,,,,,,,,,,,,,,,6,0,6,0,4,0,4,0,,,,,,,,,,,,,,,,,,,,,,,,,,,,,,,,,,,,,,,,,,,,,,,,,,,,,,,,,,,,,,,,,,,,,,0.005,,,,,,,,,,,,,,,,,,,,,,,,,,,,left,0,160,30,190,1,1676.373761,1676.373761,1676.373761,None,None,4,0,0.4131901,,,,,,,,,,,,,,,,,,,,,,10,18,2,2024-11-14_18h09.50.012,uWM_experiment,2022.2.3,59.99674817
,,,,,,,,,,,,,,,,,,,,6,0,6,0,5,0,5,0,,,,,,,,,,,,,,,,,,,,,,,,,,,,,,,,,,,,,,,,,,,,,,,,,,,,,,,,,,,,,,,,,,,,,,0.005,,,,,,,,,,,,,,,,,,,,,,,,,,,,right,1,70,30,100,1,1682.357328,1682.357328,1682.357328,None,None,4,0,0.301479,,,,,,,,,,,,,,,,,,,,,,10,18,2,2024-11-14_18h09.50.012,uWM_experiment,2022.2.3,59.99674817
,,,,,,,,,,,,,,,,,,,,6,0,6,0,6,0,6,0,,,,,,,,,,,,,,,,,,,,,,,,,,,,,,,,,,,,,,,,,,,,,,,,,,,,,,,,,,,,,,,,,,,,,,0.005,,,,,,,,,,,,,,,,,,,,,,,,,,,,right,0,100,-30,70,1,1688.557573,1688.557573,1688.557573,None,None,4,0,0.3413283,,,,,,,,,,,,,,,,,,,,,,10,18,2,2024-11-14_18h09.50.012,uWM_experiment,2022.2.3,59.99674817
,,,,,,,,,,,,,,,,,,,,6,0,6,0,7,0,7,0,,,,,,,,,,,,,,,,,,,,,,,,,,,,,,,,,,,,,,,,,,,,,,,,,,,,,,,,,,,,,,,,,,,,,,0.005,,,,,,,,,,,,,,,,,,,,,,,,,,,,right,0,40,-30,10,1,1694.624473,1694.624473,1694.624473,None,None,4,0,0.2982827,,,,,,,,,,,,,,,,,,,,,,10,18,2,2024-11-14_18h09.50.012,uWM_experiment,2022.2.3,59.99674817
,,,,,,,,,,,,,,,,,,,,6,0,6,0,8,0,8,0,,,,,,,,,,,,,,,,,,,,,,,,,,,,,,,,,,,,,,,,,,,,,,,,,,,,,,,,,,,,,,,,,,,,,,0.1,,,,,,,,,,,,,,,,,,,,,,,,,,,,right,0,10,-30,-20,2,1700.641381,1700.641381,1700.641381,None,None,4,0,0.5213154,,,,,,,,,,,,,,,,,,,,,,10,18,2,2024-11-14_18h09.50.012,uWM_experiment,2022.2.3,59.99674817
,,,,,,,,,,,,,,,,,,,,6,0,6,0,9,0,9,0,,,,,,,,,,,,,,,,,,,,,,,,,,,,,,,,,,,,,,,,,,,,,,,,,,,,,,,,,,,,,,,,,,,,,,0.005,,,,,,,,,,,,,,,,,,,,,,,,,,,,left,0,70,30,100,1,1706.658277,1706.658277,1706.658277,None,None,4,0,0.4085037,,,,,,,,,,,,,,,,,,,,,,10,18,2,2024-11-14_18h09.50.012,uWM_experiment,2022.2.3,59.99674817
,,,,,,,,,,,,,,,,,,,,6,0,6,0,10,0,10,0,,,,,,,,,,,,,,,,,,,,,,,,,,,,,,,,,,,,,,,,,,,,,,,,,,,,,,,,,,,,,,,,,,,,,,0.005,,,,,,,,,,,,,,,,,,,,,,,,,,,,left,1,10,-30,-20,1,1712.658508,1712.658508,1712.658508,None,None,4,0,0.536151,,,,,,,,,,,,,,,,,,,,,,10,18,2,2024-11-14_18h09.50.012,uWM_experiment,2022.2.3,59.99674817
,,,,,,,,,,,,,,,,,,,,6,0,6,0,11,0,11,0,,,,,,,,,,,,,,,,,,,,,,,,,,,,,,,,,,,,,,,,,,,,,,,,,,,,,,,,,,,,,,,,,,,,,,0,,,,,,,,,,,,,,,,,,,,,,,,,,,,left,1,40,-30,10,0,1718.725408,1718.725408,1718.725408,None,None,4,0,0.3813602,,,,,,,,,,,,,,,,,,,,,,10,18,2,2024-11-14_18h09.50.012,uWM_experiment,2022.2.3,59.99674817
,,,,,,,,,,,,,,,,,,,,6,0,6,0,12,0,12,0,,,,,,,,,,,,,,,,,,,,,,,,,,,,,,,,,,,,,,,,,,,,,,,,,,,,,,,,,,,,,,,,,,,,,,0.005,,,,,,,,,,,,,,,,,,,,,,,,,,,,left,0,10,30,40,1,1724.842352,1724.842352,1724.842352,None,None,4,0,0.4402623,,,,,,,,,,,,,,,,,,,,,,10,18,2,2024-11-14_18h09.50.012,uWM_experiment,2022.2.3,59.99674817
,,,,,,,,,,,,,,,,,,,,6,0,6,0,13,0,13,0,,,,,,,,,,,,,,,,,,,,,,,,,,,,,,,,,,,,,,,,,,,,,,,,,,,,,,,,,,,,,,,,,,,,,,0,,,,,,,,,,,,,,,,,,,,,,,,,,,,left,0,160,30,190,0,1730.809199,1730.809199,1730.809199,None,None,4,0,0.377501,,,,,,,,,,,,,,,,,,,,,,10,18,2,2024-11-14_18h09.50.012,uWM_experiment,2022.2.3,59.99674817
,,,,,,,,,,,,,,,,,,,,6,0,6,0,14,0,14,0,,,,,,,,,,,,,,,,,,,,,,,,,,,,,,,,,,,,,,,,,,,,,,,,,,,,,,,,,,,,,,,,,,,,,,0.005,,,,,,,,,,,,,,,,,,,,,,,,,,,,left,1,70,-30,40,1,1736.726129,1736.726129,1736.726129,None,None,4,0,0.3804946,,,,,,,,,,,,,,,,,,,,,,10,18,2,2024-11-14_18h09.50.012,uWM_experiment,2022.2.3,59.99674817
,,,,,,,,,,,,,,,,,,,,6,0,6,0,15,0,15,0,,,,,,,,,,,,,,,,,,,,,,,,,,,,,,,,,,,,,,,,,,,,,,,,,,,,,,,,,,,,,,,,,,,,,,0.005,,,,,,,,,,,,,,,,,,,,,,,,,,,,right,1,130,30,160,1,1742.926369,1742.926369,1742.926369,None,None,4,0,0.3322652,,,,,,,,,,,,,,,,,,,,,,10,18,2,2024-11-14_18h09.50.012,uWM_experiment,2022.2.3,59.99674817
,,,,,,,,,,,,,,,,,,,,6,0,6,0,16,0,16,0,,,,,,,,,,,,,,,,,,,,,,,,,,,,,,,,,,,,,,,,,,,,,,,,,,,,,,,,,,,,,,,,,,,,,,0,,,,,,,,,,,,,,,,,,,,,,,,,,,,right,1,100,30,130,0,1748.859919,1748.859919,1748.859919,None,None,4,0,0.2946331,,,,,,,,,,,,,,,,,,,,,,10,18,2,2024-11-14_18h09.50.012,uWM_experiment,2022.2.3,59.99674817
,,,,,,,,,,,,,,,,,,,,6,0,6,0,17,0,17,0,,,,,,,,,,,,,,,,,,,,,,,,,,,,,,,,,,,,,,,,,,,,,,,,,,,,,,,,,,,,,,,,,,,,,,0.005,,,,,,,,,,,,,,,,,,,,,,,,,,,,right,0,160,-30,130,1,1754.760163,1754.760163,1754.760163,None,None,4,0,0.282404,,,,,,,,,,,,,,,,,,,,,,10,18,2,2024-11-14_18h09.50.012,uWM_experiment,2022.2.3,59.99674817
,,,,,,,,,,,,,,,,,,,,6,0,6,0,18,0,18,0,,,,,,,,,,,,,,,,,,,,,,,,,,,,,,,,,,,,,,,,,,,,,,,,,,,,,,,,,,,,,,,,,,,,,,0,,,,,,,,,,,,,,,,,,,,,,,,,,,,right,1,130,30,160,0,1760.560376,1760.560376,1760.560376,None,None,4,0,0.2660607,,,,,,,,,,,,,,,,,,,,,,10,18,2,2024-11-14_18h09.50.012,uWM_experiment,2022.2.3,59.99674817
,,,,,,,,,,,,,,,,,,,,6,0,6,0,19,0,19,0,,,,,,,,,,,,,,,,,,,,,,,,,,,,,,,,,,,,,,,,,,,,,,,,,,,,,,,,,,,,,,,,,,,,,,0,,,,,,,,,,,,,,,,,,,,,,,,,,,,left,0,10,30,40,0,1767.027274,1767.027274,1767.027274,None,None,4,0,0.3591138,,,,,,,,,,,,,,,,,,,,,,10,18,2,2024-11-14_18h09.50.012,uWM_experiment,2022.2.3,59.99674817
,,,,,,,,,,,,,,,,,,,,6,0,6,0,20,0,20,0,,,,,,,,,,,,,,,,,,,,,,,,,,,,,,,,,,,,,,,,,,,,,,,,,,,,,,,,,,,,,,,,,,,,,,0.005,,,,,,,,,,,,,,,,,,,,,,,,,,,,right,1,70,30,100,1,1773.67753,1773.67753,1773.67753,None,None,4,0,0.4847972,,,,,,,,,,,,,,,,,,,,,,10,18,2,2024-11-14_18h09.50.012,uWM_experiment,2022.2.3,59.99674817
,,,,,,,,,,,,,,,,,,,,6,0,6,0,21,0,21,0,,,,,,,,,,,,,,,,,,,,,,,,,,,,,,,,,,,,,,,,,,,,,,,,,,,,,,,,,,,,,,,,,,,,,,0,,,,,,,,,,,,,,,,,,,,,,,,,,,,right,0,10,-30,-20,0,1779.611114,1779.611114,1779.611114,None,None,4,0,0.351181,,,,,,,,,,,,,,,,,,,,,,10,18,2,2024-11-14_18h09.50.012,uWM_experiment,2022.2.3,59.99674817
,,,,,,,,,,,,,,,,,,,,6,0,6,0,22,0,22,0,,,,,,,,,,,,,,,,,,,,,,,,,,,,,,,,,,,,,,,,,,,,,,,,,,,,,,,,,,,,,,,,,,,,,,0.005,,,,,,,,,,,,,,,,,,,,,,,,,,,,right,0,10,-30,-20,1,1786.094699,1786.094699,1786.094699,None,None,4,0,0.2996524,,,,,,,,,,,,,,,,,,,,,,10,18,2,2024-11-14_18h09.50.012,uWM_experiment,2022.2.3,59.99674817
,,,,,,,,,,,,,,,,,,,,6,0,6,0,23,0,23,0,,,,,,,,,,,,,,,,,,,,,,,,,,,,,,,,,,,,,,,,,,,,,,,,,,,,,,,,,,,,,,,,,,,,,,0.005,,,,,,,,,,,,,,,,,,,,,,,,,,,,right,0,10,-30,-20,1,1792.24494,1792.24494,1792.24494,None,None,4,0,0.4052798,,,,,,,,,,,,,,,,,,,,,,10,18,2,2024-11-14_18h09.50.012,uWM_experiment,2022.2.3,59.99674817
,,,,,,,,,,,,,,,,,,,,6,0,6,0,,,,,0,0,0,0,,,,,,,,,,,,,,,,,,,,,,,,,,,,,,,,,,,,,,,,,,,,,,,,,,,,,,,,,,,,,,,,,,,,,,,,,,,,,,,,,,,,,,,,,,,,,,,,,,,,,,,,,,,,1792.678277,1792.678277,space,14.6841248,None,space,,,,,1807.395507,1807.395507,0.8548348,,,,,,,,,10,18,2,2024-11-14_18h09.50.012,uWM_experiment,2022.2.3,59.99674817
,,,,,,,,,,,,,,,,,,,,6,0,6,0,,,,,1,0,1,0,,,,,,,,,,,,,,,,,,,,,,,,,,,,,,,,,,,,,,,,,,,,,,,,,,,,,,,,,,,,,,,,,,,,,,,,,,,,,,,,,,,,,,,,,,,,,,,,,,,,,,,,,,,,,,,,,,,,,,,,,,,,,,,,,10,18,2,2024-11-14_18h09.50.012,uWM_experiment,2022.2.3,59.99674817
,,,,,,,,,,,,,,,,,,,,6,0,6,0,,,,,2,0,2,0,,,,,,,,,,,,,,,,,,,,,,,,,,,,,,,,,,,,,,,,,,,,,,,,,,,,,,,,,,,,,,,,,,,,,,,,,,,,,,,,,,,,,,,,,,,,,,,,,,,,,,,,,,,,,,,,,,,,,,,,,,,,,,,,,10,18,2,2024-11-14_18h09.50.012,uWM_experiment,2022.2.3,59.99674817
,,,,,,,,,,,,,,,,,,,,7,0,7,0,0,0,0,0,,,,,,,,,,,,,,,,,,,,,,,,,,,,,,,,,,,,,,,,,,,,,,,,,,,,,,,,,,,,,,,,,,,,,,0,,,,,,,,,,,,,,,,,,,,1843.230253,1843.930281,1844.213624,1844.913651,1845.213663,1845.913688,1845.913688,1846.230381,left,0,40,30,70,0,1850.997273,1850.997273,1850.997273,None,None,4,0,0.7166714,,,,,,,space,,,,,,,1827.929675,1827.929675,15.2804922,,,,,,10,18,2,2024-11-14_18h09.50.012,uWM_experiment,2022.2.3,59.99674817
,,,,,,,,,,,,,,,,,,,,7,0,7,0,1,0,1,0,,,,,,,,,,,,,,,,,,,,,,,,,,,,,,,,,,,,,,,,,,,,,,,,,,,,,,,,,,,,,,,,,,,,,,0.005,,,,,,,,,,,,,,,,,,,,,,,,,,,,left,0,160,30,190,1,1857.680823,1857.680823,1857.680823,None,None,4,0,0.2731246,,,,,,,,,,,,,,,,,,,,,,10,18,2,2024-11-14_18h09.50.012,uWM_experiment,2022.2.3,59.99674817
,,,,,,,,,,,,,,,,,,,,7,0,7,0,2,0,2,0,,,,,,,,,,,,,,,,,,,,,,,,,,,,,,,,,,,,,,,,,,,,,,,,,,,,,,,,,,,,,,,,,,,,,,0.005,,,,,,,,,,,,,,,,,,,,,,,,,,,,left,0,10,30,40,1,1863.564413,1863.564413,1863.564413,None,None,4,0,0.3494668,,,,,,,,,,,,,,,,,,,,,,10,18,2,2024-11-14_18h09.50.012,uWM_experiment,2022.2.3,59.99674817
,,,,,,,,,,,,,,,,,,,,7,0,7,0,3,0,3,0,,,,,,,,,,,,,,,,,,,,,,,,,,,,,,,,,,,,,,,,,,,,,,,,,,,,,,,,,,,,,,,,,,,,,,0,,,,,,,,,,,,,,,,,,,,,,,,,,,,left,1,160,-30,130,0,1869.481314,1869.481314,1869.481314,None,None,4,0,0.7045069,,,,,,,,,,,,,,,,,,,,,,10,18,2,2024-11-14_18h09.50.012,uWM_experiment,2022.2.3,59.99674817
,,,,,,,,,,,,,,,,,,,,7,0,7,0,4,0,4,0,,,,,,,,,,,,,,,,,,,,,,,,,,,,,,,,,,,,,,,,,,,,,,,,,,,,,,,,,,,,,,,,,,,,,,0.005,,,,,,,,,,,,,,,,,,,,,,,,,,,,right,1,70,30,100,1,1875.581515,1875.581515,1875.581515,None,None,4,0,0.2523471,,,,,,,,,,,,,,,,,,,,,,10,18,2,2024-11-14_18h09.50.012,uWM_experiment,2022.2.3,59.99674817
,,,,,,,,,,,,,,,,,,,,7,0,7,0,5,0,5,0,,,,,,,,,,,,,,,,,,,,,,,,,,,,,,,,,,,,,,,,,,,,,,,,,,,,,,,,,,,,,,,,,,,,,,0.005,,,,,,,,,,,,,,,,,,,,,,,,,,,,left,1,130,-30,100,1,1881.365074,1881.365074,1881.365074,None,None,4,0,0.2608346,,,,,,,,,,,,,,,,,,,,,,10,18,2,2024-11-14_18h09.50.012,uWM_experiment,2022.2.3,59.99674817
,,,,,,,,,,,,,,,,,,,,7,0,7,0,6,0,6,0,,,,,,,,,,,,,,,,,,,,,,,,,,,,,,,,,,,,,,,,,,,,,,,,,,,,,,,,,,,,,,,,,,,,,,0.005,,,,,,,,,,,,,,,,,,,,,,,,,,,,left,1,100,-30,70,1,1887.098651,1887.098651,1887.098651,None,None,4,0,0.2632028,,,,,,,,,,,,,,,,,,,,,,10,18,2,2024-11-14_18h09.50.012,uWM_experiment,2022.2.3,59.99674817
,,,,,,,,,,,,,,,,,,,,7,0,7,0,7,0,7,0,,,,,,,,,,,,,,,,,,,,,,,,,,,,,,,,,,,,,,,,,,,,,,,,,,,,,,,,,,,,,,,,,,,,,,0.005,,,,,,,,,,,,,,,,,,,,,,,,,,,,left,1,160,-30,130,1,1892.73218,1892.73218,1892.73218,None,None,4,0,0.325682,,,,,,,,,,,,,,,,,,,,,,10,18,2,2024-11-14_18h09.50.012,uWM_experiment,2022.2.3,59.99674817
,,,,,,,,,,,,,,,,,,,,7,0,7,0,8,0,8,0,,,,,,,,,,,,,,,,,,,,,,,,,,,,,,,,,,,,,,,,,,,,,,,,,,,,,,,,,,,,,,,,,,,,,,0.005,,,,,,,,,,,,,,,,,,,,,,,,,,,,left,1,130,-30,100,1,1898.332415,1898.332415,1898.332415,None,None,4,0,0.2933258,,,,,,,,,,,,,,,,,,,,,,10,18,2,2024-11-14_18h09.50.012,uWM_experiment,2022.2.3,59.99674817
,,,,,,,,,,,,,,,,,,,,7,0,7,0,9,0,9,0,,,,,,,,,,,,,,,,,,,,,,,,,,,,,,,,,,,,,,,,,,,,,,,,,,,,,,,,,,,,,,,,,,,,,,0,,,,,,,,,,,,,,,,,,,,,,,,,,,,left,1,70,-30,40,0,1904.082623,1904.082623,1904.082623,None,None,4,0,0.3190356,,,,,,,,,,,,,,,,,,,,,,10,18,2,2024-11-14_18h09.50.012,uWM_experiment,2022.2.3,59.99674817
,,,,,,,,,,,,,,,,,,,,7,0,7,0,10,0,10,0,,,,,,,,,,,,,,,,,,,,,,,,,,,,,,,,,,,,,,,,,,,,,,,,,,,,,,,,,,,,,,,,,,,,,,0.005,,,,,,,,,,,,,,,,,,,,,,,,,,,,left,0,70,30,100,1,1909.866205,1909.866205,1909.866205,None,None,4,0,0.3514731,,,,,,,,,,,,,,,,,,,,,,10,18,2,2024-11-14_18h09.50.012,uWM_experiment,2022.2.3,59.99674817
,,,,,,,,,,,,,,,,,,,,7,0,7,0,11,0,11,0,,,,,,,,,,,,,,,,,,,,,,,,,,,,,,,,,,,,,,,,,,,,,,,,,,,,,,,,,,,,,,,,,,,,,,0.005,,,,,,,,,,,,,,,,,,,,,,,,,,,,left,0,160,30,190,1,1915.683089,1915.683089,1915.683089,None,None,4,0,0.2224486,,,,,,,,,,,,,,,,,,,,,,10,18,2,2024-11-14_18h09.50.012,uWM_experiment,2022.2.3,59.99674817
,,,,,,,,,,,,,,,,,,,,7,0,7,0,12,0,12,0,,,,,,,,,,,,,,,,,,,,,,,,,,,,,,,,,,,,,,,,,,,,,,,,,,,,,,,,,,,,,,,,,,,,,,0.1,,,,,,,,,,,,,,,,,,,,,,,,,,,,left,0,10,30,40,2,1921.68333,1921.68333,1921.68333,None,None,4,0,0.2463731,,,,,,,,,,,,,,,,,,,,,,10,18,2,2024-11-14_18h09.50.012,uWM_experiment,2022.2.3,59.99674817
,,,,,,,,,,,,,,,,,,,,7,0,7,0,13,0,13,0,,,,,,,,,,,,,,,,,,,,,,,,,,,,,,,,,,,,,,,,,,,,,,,,,,,,,,,,,,,,,,,,,,,,,,0.005,,,,,,,,,,,,,,,,,,,,,,,,,,,,left,0,130,30,160,1,1927.433533,1927.433533,1927.433533,None,None,4,0,0.2801149,,,,,,,,,,,,,,,,,,,,,,10,18,2,2024-11-14_18h09.50.012,uWM_experiment,2022.2.3,59.99674817
,,,,,,,,,,,,,,,,,,,,7,0,7,0,14,0,14,0,,,,,,,,,,,,,,,,,,,,,,,,,,,,,,,,,,,,,,,,,,,,,,,,,,,,,,,,,,,,,,,,,,,,,,0.005,,,,,,,,,,,,,,,,,,,,,,,,,,,,left,0,70,30,100,1,1933.2171,1933.2171,1933.2171,None,None,4,0,0.2163868,,,,,,,,,,,,,,,,,,,,,,10,18,2,2024-11-14_18h09.50.012,uWM_experiment,2022.2.3,59.99674817
,,,,,,,,,,,,,,,,,,,,7,0,7,0,15,0,15,0,,,,,,,,,,,,,,,,,,,,,,,,,,,,,,,,,,,,,,,,,,,,,,,,,,,,,,,,,,,,,,,,,,,,,,0.005,,,,,,,,,,,,,,,,,,,,,,,,,,,,left,1,10,-30,-20,1,1939.134037,1939.134037,1939.134037,None,None,4,0,0.2994867,,,,,,,,,,,,,,,,,,,,,,10,18,2,2024-11-14_18h09.50.012,uWM_experiment,2022.2.3,59.99674817
,,,,,,,,,,,,,,,,,,,,7,0,7,0,16,0,16,0,,,,,,,,,,,,,,,,,,,,,,,,,,,,,,,,,,,,,,,,,,,,,,,,,,,,,,,,,,,,,,,,,,,,,,0.005,,,,,,,,,,,,,,,,,,,,,,,,,,,,right,1,130,30,160,1,1945.167558,1945.167558,1945.167558,None,None,4,0,0.3139291,,,,,,,,,,,,,,,,,,,,,,10,18,2,2024-11-14_18h09.50.012,uWM_experiment,2022.2.3,59.99674817
,,,,,,,,,,,,,,,,,,,,7,0,7,0,17,0,17,0,,,,,,,,,,,,,,,,,,,,,,,,,,,,,,,,,,,,,,,,,,,,,,,,,,,,,,,,,,,,,,,,,,,,,,0,,,,,,,,,,,,,,,,,,,,,,,,,,,,right,1,100,30,130,0,1951.517788,1951.517788,1951.517788,None,None,4,0,0.3716212,,,,,,,,,,,,,,,,,,,,,,10,18,2,2024-11-14_18h09.50.012,uWM_experiment,2022.2.3,59.99674817
,,,,,,,,,,,,,,,,,,,,7,0,7,0,18,0,18,0,,,,,,,,,,,,,,,,,,,,,,,,,,,,,,,,,,,,,,,,,,,,,,,,,,,,,,,,,,,,,,,,,,,,,,0,,,,,,,,,,,,,,,,,,,,,,,,,,,,right,0,130,-30,100,0,1957.318006,1957.318006,1957.318006,None,None,4,0,0.2754284,,,,,,,,,,,,,,,,,,,,,,10,18,2,2024-11-14_18h09.50.012,uWM_experiment,2022.2.3,59.99674817
,,,,,,,,,,,,,,,,,,,,7,0,7,0,19,0,19,0,,,,,,,,,,,,,,,,,,,,,,,,,,,,,,,,,,,,,,,,,,,,,,,,,,,,,,,,,,,,,,,,,,,,,,0.005,,,,,,,,,,,,,,,,,,,,,,,,,,,,right,0,70,-30,40,1,1963.118253,1963.118253,1963.118253,None,None,4,0,0.3312409,,,,,,,,,,,,,,,,,,,,,,10,18,2,2024-11-14_18h09.50.012,uWM_experiment,2022.2.3,59.99674817
,,,,,,,,,,,,,,,,,,,,7,0,7,0,20,0,20,0,,,,,,,,,,,,,,,,,,,,,,,,,,,,,,,,,,,,,,,,,,,,,,,,,,,,,,,,,,,,,,,,,,,,,,0.005,,,,,,,,,,,,,,,,,,,,,,,,,,,,right,0,100,-30,70,1,1968.818491,1968.818491,1968.818491,None,None,4,0,0.2628688,,,,,,,,,,,,,,,,,,,,,,10,18,2,2024-11-14_18h09.50.012,uWM_experiment,2022.2.3,59.99674817
,,,,,,,,,,,,,,,,,,,,7,0,7,0,21,0,21,0,,,,,,,,,,,,,,,,,,,,,,,,,,,,,,,,,,,,,,,,,,,,,,,,,,,,,,,,,,,,,,,,,,,,,,0.005,,,,,,,,,,,,,,,,,,,,,,,,,,,,left,1,100,-30,70,1,1974.50208,1974.50208,1974.50208,None,None,4,0,0.2192088,,,,,,,,,,,,,,,,,,,,,,10,18,2,2024-11-14_18h09.50.012,uWM_experiment,2022.2.3,59.99674817
,,,,,,,,,,,,,,,,,,,,7,0,7,0,22,0,22,0,,,,,,,,,,,,,,,,,,,,,,,,,,,,,,,,,,,,,,,,,,,,,,,,,,,,,,,,,,,,,,,,,,,,,,0.005,,,,,,,,,,,,,,,,,,,,,,,,,,,,right,0,130,-30,100,1,1980.568917,1980.568917,1980.568917,None,None,4,0,0.2883514,,,,,,,,,,,,,,,,,,,,,,10,18,2,2024-11-14_18h09.50.012,uWM_experiment,2022.2.3,59.99674817
,,,,,,,,,,,,,,,,,,,,7,0,7,0,23,0,23,0,,,,,,,,,,,,,,,,,,,,,,,,,,,,,,,,,,,,,,,,,,,,,,,,,,,,,,,,,,,,,,,,,,,,,,0.005,,,,,,,,,,,,,,,,,,,,,,,,,,,,right,0,100,-30,70,1,1986.285816,1986.285816,1986.285816,None,None,4,0,0.2434566,,,,,,,,,,,,,,,,,,,,,,10,18,2,2024-11-14_18h09.50.012,uWM_experiment,2022.2.3,59.99674817
,,,,,,,,,,,,,,,,,,,,7,0,7,0,,,,,0,0,0,0,,,,,,,,,,,,,,,,,,,,,,,,,,,,,,,,,,,,,,,,,,,,,,,,,,,,,,,,,,,,,,,,,,,,,,,,,,,,,,,,,,,,,,,,,,,,,,,,,,,,,,,,,,,,1986.55248,1986.55248,space,14.4408619,None,None,,,,,,,,,,,,,,,,10,18,2,2024-11-14_18h09.50.012,uWM_experiment,2022.2.3,59.99674817
,,,,,,,,,,,,,,,,,,,,7,0,7,0,,,,,1,0,1,0,,,,,,,,,,,,,,,,,,,,,,,,,,,,,,,,,,,,,,,,,,,,,,,,,,,,,,,,,,,,,,,,,,,,,,,,,,,,,,,,,,,,,,,,,,,,,,,,,,,,,,,,,,,,,,,,,,,,,,,,,,,,,,,,,10,18,2,2024-11-14_18h09.50.012,uWM_experiment,2022.2.3,59.99674817
,,,,,,,,,,,,,,,,,,,,7,0,7,0,,,,,2,0,2,0,,,,,,,,,,,,,,,,,,,,,,,,,,,,,,,,,,,,,,,,,,,,,,,,,,,,,,,,,,,,,,,,,,,,,,,,,,,,,,,,,,,,,,,,,,,,,,,,,,,,,,,,,,,,,,,,,,,,,,,,,,,,,,,,,10,18,2,2024-11-14_18h09.50.012,uWM_experiment,2022.2.3,59.99674817
,,,,,,,,,,,,,,,,,,,,8,0,8,0,0,0,0,0,,,,,,,,,,,,,,,,,,,,,,,,,,,,,,,,,,,,,,,,,,,,,,,,,,,,,,,,,,,,,,,,,,,,,,0.005,,,,,,,,,,,,,,,,,,,,2001.019722,2001.719827,2002.019764,2002.719782,2003.01979,2003.719823,2003.719823,2004.036513,right,0,100,-30,70,1,2008.836695,2008.836695,2008.836695,None,None,4,0,0.3005078,,,,,,,None,,,,,,,,,,,,,,,10,18,2,2024-11-14_18h09.50.012,uWM_experiment,2022.2.3,59.99674817
,,,,,,,,,,,,,,,,,,,,8,0,8,0,1,0,1,0,,,,,,,,,,,,,,,,,,,,,,,,,,,,,,,,,,,,,,,,,,,,,,,,,,,,,,,,,,,,,,,,,,,,,,0.005,,,,,,,,,,,,,,,,,,,,,,,,,,,,right,0,70,-30,40,1,2014.803586,2014.803586,2014.803586,None,None,4,0,0.2855388,,,,,,,,,,,,,,,,,,,,,,10,18,2,2024-11-14_18h09.50.012,uWM_experiment,2022.2.3,59.99674817
,,,,,,,,,,,,,,,,,,,,8,0,8,0,2,0,2,0,,,,,,,,,,,,,,,,,,,,,,,,,,,,,,,,,,,,,,,,,,,,,,,,,,,,,,,,,,,,,,,,,,,,,,0,,,,,,,,,,,,,,,,,,,,,,,,,,,,left,0,10,30,40,0,2020.453807,2020.453807,2020.453807,None,None,4,0,0.2272484,,,,,,,,,,,,,,,,,,,,,,10,18,2,2024-11-14_18h09.50.012,uWM_experiment,2022.2.3,59.99674817
,,,,,,,,,,,,,,,,,,,,8,0,8,0,3,0,3,0,,,,,,,,,,,,,,,,,,,,,,,,,,,,,,,,,,,,,,,,,,,,,,,,,,,,,,,,,,,,,,,,,,,,,,0.005,,,,,,,,,,,,,,,,,,,,,,,,,,,,right,1,100,30,130,1,2026.304039,2026.304039,2026.304039,None,None,4,0,0.2491158,,,,,,,,,,,,,,,,,,,,,,10,18,2,2024-11-14_18h09.50.012,uWM_experiment,2022.2.3,59.99674817
,,,,,,,,,,,,,,,,,,,,8,0,8,0,4,0,4,0,,,,,,,,,,,,,,,,,,,,,,,,,,,,,,,,,,,,,,,,,,,,,,,,,,,,,,,,,,,,,,,,,,,,,,0.005,,,,,,,,,,,,,,,,,,,,,,,,,,,,left,1,100,-30,70,1,2032.004274,2032.004274,2032.004274,None,None,4,0,0.212711,,,,,,,,,,,,,,,,,,,,,,10,18,2,2024-11-14_18h09.50.012,uWM_experiment,2022.2.3,59.99674817
,,,,,,,,,,,,,,,,,,,,8,0,8,0,5,0,5,0,,,,,,,,,,,,,,,,,,,,,,,,,,,,,,,,,,,,,,,,,,,,,,,,,,,,,,,,,,,,,,,,,,,,,,0.005,,,,,,,,,,,,,,,,,,,,,,,,,,,,left,1,160,-30,130,1,2037.587837,2037.587837,2037.587837,None,None,4,0,0.2291624,,,,,,,,,,,,,,,,,,,,,,10,18,2,2024-11-14_18h09.50.012,uWM_experiment,2022.2.3,59.99674817
,,,,,,,,,,,,,,,,,,,,8,0,8,0,6,0,6,0,,,,,,,,,,,,,,,,,,,,,,,,,,,,,,,,,,,,,,,,,,,,,,,,,,,,,,,,,,,,,,,,,,,,,,0.005,,,,,,,,,,,,,,,,,,,,,,,,,,,,left,0,100,30,130,1,2043.338044,2043.338044,2043.338044,None,None,4,0,0.2309413,,,,,,,,,,,,,,,,,,,,,,10,18,2,2024-11-14_18h09.50.012,uWM_experiment,2022.2.3,59.99674817
,,,,,,,,,,,,,,,,,,,,8,0,8,0,7,0,7,0,,,,,,,,,,,,,,,,,,,,,,,,,,,,,,,,,,,,,,,,,,,,,,,,,,,,,,,,,,,,,,,,,,,,,,0.005,,,,,,,,,,,,,,,,,,,,,,,,,,,,right,0,100,-30,70,1,2049.221619,2049.221619,2049.221619,None,None,4,0,0.4512701,,,,,,,,,,,,,,,,,,,,,,10,18,2,2024-11-14_18h09.50.012,uWM_experiment,2022.2.3,59.99674817
,,,,,,,,,,,,,,,,,,,,8,0,8,0,8,0,8,0,,,,,,,,,,,,,,,,,,,,,,,,,,,,,,,,,,,,,,,,,,,,,,,,,,,,,,,,,,,,,,,,,,,,,,0.005,,,,,,,,,,,,,,,,,,,,,,,,,,,,right,1,130,30,160,1,2055.205164,2055.205164,2055.205164,None,None,4,0,0.2516764,,,,,,,,,,,,,,,,,,,,,,10,18,2,2024-11-14_18h09.50.012,uWM_experiment,2022.2.3,59.99674817
,,,,,,,,,,,,,,,,,,,,8,0,8,0,9,0,9,0,,,,,,,,,,,,,,,,,,,,,,,,,,,,,,,,,,,,,,,,,,,,,,,,,,,,,,,,,,,,,,,,,,,,,,0,,,,,,,,,,,,,,,,,,,,,,,,,,,,right,0,10,-30,-20,0,2061.23873,2061.23873,2061.23873,None,None,4,0,0.2822127,,,,,,,,,,,,,,,,,,,,,,10,18,2,2024-11-14_18h09.50.012,uWM_experiment,2022.2.3,59.99674817
,,,,,,,,,,,,,,,,,,,,8,0,8,0,10,0,10,0,,,,,,,,,,,,,,,,,,,,,,,,,,,,,,,,,,,,,,,,,,,,,,,,,,,,,,,,,,,,,,,,,,,,,,0,,,,,,,,,,,,,,,,,,,,,,,,,,,,right,1,100,30,130,0,2067.038949,2067.038949,2067.038949,None,None,4,0,0.2258803,,,,,,,,,,,,,,,,,,,,,,10,18,2,2024-11-14_18h09.50.012,uWM_experiment,2022.2.3,59.99674817
,,,,,,,,,,,,,,,,,,,,8,0,8,0,11,0,11,0,,,,,,,,,,,,,,,,,,,,,,,,,,,,,,,,,,,,,,,,,,,,,,,,,,,,,,,,,,,,,,,,,,,,,,0.005,,,,,,,,,,,,,,,,,,,,,,,,,,,,left,0,40,30,70,1,2074.089223,2074.089223,2074.089223,None,None,4,0,0.6076977,,,,,,,,,,,,,,,,,,,,,,10,18,2,2024-11-14_18h09.50.012,uWM_experiment,2022.2.3,59.99674817
,,,,,,,,,,,,,,,,,,,,8,0,8,0,12,0,12,0,,,,,,,,,,,,,,,,,,,,,,,,,,,,,,,,,,,,,,,,,,,,,,,,,,,,,,,,,,,,,,,,,,,,,,0.005,,,,,,,,,,,,,,,,,,,,,,,,,,,,right,1,130,30,160,1,2080.372812,2080.372812,2080.372812,None,None,4,0,0.2999229,,,,,,,,,,,,,,,,,,,,,,10,18,2,2024-11-14_18h09.50.012,uWM_experiment,2022.2.3,59.99674817
,,,,,,,,,,,,,,,,,,,,8,0,8,0,13,0,13,0,,,,,,,,,,,,,,,,,,,,,,,,,,,,,,,,,,,,,,,,,,,,,,,,,,,,,,,,,,,,,,,,,,,,,,0.005,,,,,,,,,,,,,,,,,,,,,,,,,,,,right,1,100,30,130,1,2086.056359,2086.056359,2086.056359,None,None,4,0,0.2483814,,,,,,,,,,,,,,,,,,,,,,10,18,2,2024-11-14_18h09.50.012,uWM_experiment,2022.2.3,59.99674817
,,,,,,,,,,,,,,,,,,,,8,0,8,0,14,0,14,0,,,,,,,,,,,,,,,,,,,,,,,,,,,,,,,,,,,,,,,,,,,,,,,,,,,,,,,,,,,,,,,,,,,,,,0.005,,,,,,,,,,,,,,,,,,,,,,,,,,,,left,0,160,30,190,1,2091.623229,2091.623229,2091.623229,None,None,4,0,0.3534592,,,,,,,,,,,,,,,,,,,,,,10,18,2,2024-11-14_18h09.50.012,uWM_experiment,2022.2.3,59.99674817
,,,,,,,,,,,,,,,,,,,,8,0,8,0,15,0,15,0,,,,,,,,,,,,,,,,,,,,,,,,,,,,,,,,,,,,,,,,,,,,,,,,,,,,,,,,,,,,,,,,,,,,,,0,,,,,,,,,,,,,,,,,,,,,,,,,,,,right,0,10,-30,-20,0,2097.556813,2097.556813,2097.556813,None,None,4,0,0.2358094,,,,,,,,,,,,,,,,,,,,,,10,18,2,2024-11-14_18h09.50.012,uWM_experiment,2022.2.3,59.99674817
,,,,,,,,,,,,,,,,,,,,8,0,8,0,16,0,16,0,,,,,,,,,,,,,,,,,,,,,,,,,,,,,,,,,,,,,,,,,,,,,,,,,,,,,,,,,,,,,,,,,,,,,,0,,,,,,,,,,,,,,,,,,,,,,,,,,,,right,0,160,-30,130,0,2103.157021,2103.157021,2103.157021,None,None,4,0,0.331569,,,,,,,,,,,,,,,,,,,,,,10,18,2,2024-11-14_18h09.50.012,uWM_experiment,2022.2.3,59.99674817
,,,,,,,,,,,,,,,,,,,,8,0,8,0,17,0,17,0,,,,,,,,,,,,,,,,,,,,,,,,,,,,,,,,,,,,,,,,,,,,,,,,,,,,,,,,,,,,,,,,,,,,,,0.005,,,,,,,,,,,,,,,,,,,,,,,,,,,,right,1,70,30,100,1,2108.957245,2108.957245,2108.957245,None,None,4,0,0.3075484,,,,,,,,,,,,,,,,,,,,,,10,18,2,2024-11-14_18h09.50.012,uWM_experiment,2022.2.3,59.99674817
,,,,,,,,,,,,,,,,,,,,8,0,8,0,18,0,18,0,,,,,,,,,,,,,,,,,,,,,,,,,,,,,,,,,,,,,,,,,,,,,,,,,,,,,,,,,,,,,,,,,,,,,,0.005,,,,,,,,,,,,,,,,,,,,,,,,,,,,left,1,70,-30,40,1,2114.5908,2114.5908,2114.5908,None,None,4,0,0.2418365,,,,,,,,,,,,,,,,,,,,,,10,18,2,2024-11-14_18h09.50.012,uWM_experiment,2022.2.3,59.99674817
,,,,,,,,,,,,,,,,,,,,8,0,8,0,19,0,19,0,,,,,,,,,,,,,,,,,,,,,,,,,,,,,,,,,,,,,,,,,,,,,,,,,,,,,,,,,,,,,,,,,,,,,,0.005,,,,,,,,,,,,,,,,,,,,,,,,,,,,right,0,130,-30,100,1,2120.141035,2120.141035,2120.141035,None,None,4,0,0.2515357,,,,,,,,,,,,,,,,,,,,,,10,18,2,2024-11-14_18h09.50.012,uWM_experiment,2022.2.3,59.99674817
,,,,,,,,,,,,,,,,,,,,8,0,8,0,20,0,20,0,,,,,,,,,,,,,,,,,,,,,,,,,,,,,,,,,,,,,,,,,,,,,,,,,,,,,,,,,,,,,,,,,,,,,,0.005,,,,,,,,,,,,,,,,,,,,,,,,,,,,right,1,70,30,100,1,2125.841235,2125.841235,2125.841235,None,None,4,0,0.1994093,,,,,,,,,,,,,,,,,,,,,,10,18,2,2024-11-14_18h09.50.012,uWM_experiment,2022.2.3,59.99674817
,,,,,,,,,,,,,,,,,,,,8,0,8,0,21,0,21,0,,,,,,,,,,,,,,,,,,,,,,,,,,,,,,,,,,,,,,,,,,,,,,,,,,,,,,,,,,,,,,,,,,,,,,0.005,,,,,,,,,,,,,,,,,,,,,,,,,,,,left,1,10,-30,-20,1,2131.358117,2131.358117,2131.358117,None,None,4,0,0.234303,,,,,,,,,,,,,,,,,,,,,,10,18,2,2024-11-14_18h09.50.012,uWM_experiment,2022.2.3,59.99674817
,,,,,,,,,,,,,,,,,,,,8,0,8,0,22,0,22,0,,,,,,,,,,,,,,,,,,,,,,,,,,,,,,,,,,,,,,,,,,,,,,,,,,,,,,,,,,,,,,,,,,,,,,0.005,,,,,,,,,,,,,,,,,,,,,,,,,,,,left,0,70,30,100,1,2136.925015,2136.925015,2136.925015,None,None,4,0,0.251444,,,,,,,,,,,,,,,,,,,,,,10,18,2,2024-11-14_18h09.50.012,uWM_experiment,2022.2.3,59.99674817
,,,,,,,,,,,,,,,,,,,,8,0,8,0,23,0,23,0,,,,,,,,,,,,,,,,,,,,,,,,,,,,,,,,,,,,,,,,,,,,,,,,,,,,,,,,,,,,,,,,,,,,,,0.005,,,,,,,,,,,,,,,,,,,,,,,,,,,,left,0,160,30,190,1,2142.44188,2142.44188,2142.44188,None,None,4,0,0.2065916,,,,,,,,,,,,,,,,,,,,,,10,18,2,2024-11-14_18h09.50.012,uWM_experiment,2022.2.3,59.99674817
,,,,,,,,,,,,,,,,,,,,8,0,8,0,,,,,0,0,0,0,,,,,,,,,,,,,,,,,,,,,,,,,,,,,,,,,,,,,,,,,,,,,,,,,,,,,,,,,,,,,,,,,,,,,,,,,,,,,,,,,,,,,,,,,,,,,,,,,,,,,,,,,,,,2142.675205,2142.675205,space,17.5172801,space,None,,2160.209226,2160.209226,0.9912768,,,,,,,,,,,,10,18,2,2024-11-14_18h09.50.012,uWM_experiment,2022.2.3,59.99674817
,,,,,,,,,,,,,,,,,,,,8,0,8,0,,,,,1,0,1,0,,,,,,,,,,,,,,,,,,,,,,,,,,,,,,,,,,,,,,,,,,,,,,,,,,,,,,,,,,,,,,,,,,,,,,,,,,,,,,,,,,,,,,,,,,,,,,,,,,,,,,,,,,,,,,,,,,,,,,,,,,,,,,,,,10,18,2,2024-11-14_18h09.50.012,uWM_experiment,2022.2.3,59.99674817
,,,,,,,,,,,,,,,,,,,,8,0,8,0,,,,,2,0,2,0,,,,,,,,,,,,,,,,,,,,,,,,,,,,,,,,,,,,,,,,,,,,,,,,,,,,,,,,,,,,,,,,,,,,,,,,,,,,,,,,,,,,,,,,,,,,,,,,,,,,,,,,,,,,,,,,,,,,,,,,,,,,,,,,,10,18,2,2024-11-14_18h09.50.012,uWM_experiment,2022.2.3,59.99674817
,,,,,,,,,,,,,,,,,,,,9,0,9,0,0,0,0,0,,,,,,,,,,,,,,,,,,,,,,,,,,,,,,,,,,,,,,,,,,,,,,,,,,,,,,,,,,,,,,,,,,,,,,0.005,,,,,,,,,,,,,,,,,,,,2161.225931,2161.925961,2162.225972,2162.926017,2163.226025,2163.926038,2163.926038,2164.242726,left,0,40,30,70,1,2173.826425,2173.826425,2173.826425,None,None,4,0,1.4619532,,,,,,,None,,,,,,,,,,,,,,,10,18,2,2024-11-14_18h09.50.012,uWM_experiment,2022.2.3,59.99674817
,,,,,,,,,,,,,,,,,,,,9,0,9,0,1,0,1,0,,,,,,,,,,,,,,,,,,,,,,,,,,,,,,,,,,,,,,,,,,,,,,,,,,,,,,,,,,,,,,,,,,,,,,0.005,,,,,,,,,,,,,,,,,,,,,,,,,,,,left,0,40,30,70,1,2182.126763,2182.126763,2182.126763,None,None,4,0,0.6496634,,,,,,,,,,,,,,,,,,,,,,10,18,2,2024-11-14_18h09.50.012,uWM_experiment,2022.2.3,59.99674817
,,,,,,,,,,,,,,,,,,,,9,0,9,0,2,0,2,0,,,,,,,,,,,,,,,,,,,,,,,,,,,,,,,,,,,,,,,,,,,,,,,,,,,,,,,,,,,,,,,,,,,,,,0.005,,,,,,,,,,,,,,,,,,,,,,,,,,,,left,1,40,-30,10,1,2189.227031,2189.227031,2189.227031,None,None,4,0,0.3252415,,,,,,,,,,,,,,,,,,,,,,10,18,2,2024-11-14_18h09.50.012,uWM_experiment,2022.2.3,59.99674817
,,,,,,,,,,,,,,,,,,,,9,0,9,0,3,0,3,0,,,,,,,,,,,,,,,,,,,,,,,,,,,,,,,,,,,,,,,,,,,,,,,,,,,,,,,,,,,,,,,,,,,,,,0.005,,,,,,,,,,,,,,,,,,,,,,,,,,,,left,0,100,30,130,1,2196.010613,2196.010613,2196.010613,None,None,4,0,0.3015962,,,,,,,,,,,,,,,,,,,,,,10,18,2,2024-11-14_18h09.50.012,uWM_experiment,2022.2.3,59.99674817
,,,,,,,,,,,,,,,,,,,,9,0,9,0,4,0,4,0,,,,,,,,,,,,,,,,,,,,,,,,,,,,,,,,,,,,,,,,,,,,,,,,,,,,,,,,,,,,,,,,,,,,,,0.005,,,,,,,,,,,,,,,,,,,,,,,,,,,,left,0,40,30,70,1,2201.760849,2201.760849,2201.760849,None,None,4,0,0.2074789,,,,,,,,,,,,,,,,,,,,,,10,18,2,2024-11-14_18h09.50.012,uWM_experiment,2022.2.3,59.99674817
,,,,,,,,,,,,,,,,,,,,9,0,9,0,5,0,5,0,,,,,,,,,,,,,,,,,,,,,,,,,,,,,,,,,,,,,,,,,,,,,,,,,,,,,,,,,,,,,,,,,,,,,,0,,,,,,,,,,,,,,,,,,,,,,,,,,,,left,1,40,-30,10,0,2207.211054,2207.211054,2207.211054,None,None,4,0,0.2130744,,,,,,,,,,,,,,,,,,,,,,10,18,2,2024-11-14_18h09.50.012,uWM_experiment,2022.2.3,59.99674817
,,,,,,,,,,,,,,,,,,,,9,0,9,0,6,0,6,0,,,,,,,,,,,,,,,,,,,,,,,,,,,,,,,,,,,,,,,,,,,,,,,,,,,,,,,,,,,,,,,,,,,,,,0.005,,,,,,,,,,,,,,,,,,,,,,,,,,,,left,0,100,30,130,1,2212.727921,2212.727921,2212.727921,None,None,4,0,0.2881481,,,,,,,,,,,,,,,,,,,,,,10,18,2,2024-11-14_18h09.50.012,uWM_experiment,2022.2.3,59.99674817
,,,,,,,,,,,,,,,,,,,,9,0,9,0,7,0,7,0,,,,,,,,,,,,,,,,,,,,,,,,,,,,,,,,,,,,,,,,,,,,,,,,,,,,,,,,,,,,,,,,,,,,,,0.005,,,,,,,,,,,,,,,,,,,,,,,,,,,,left,1,160,-30,130,1,2218.394827,2218.394827,2218.394827,None,None,4,0,0.2533614,,,,,,,,,,,,,,,,,,,,,,10,18,2,2024-11-14_18h09.50.012,uWM_experiment,2022.2.3,59.99674817
,,,,,,,,,,,,,,,,,,,,9,0,9,0,8,0,8,0,,,,,,,,,,,,,,,,,,,,,,,,,,,,,,,,,,,,,,,,,,,,,,,,,,,,,,,,,,,,,,,,,,,,,,0,,,,,,,,,,,,,,,,,,,,,,,,,,,,left,1,10,-30,-20,0,2224.111728,2224.111728,2224.111728,None,None,4,0,0.256331,,,,,,,,,,,,,,,,,,,,,,10,18,2,2024-11-14_18h09.50.012,uWM_experiment,2022.2.3,59.99674817
,,,,,,,,,,,,,,,,,,,,9,0,9,0,9,0,9,0,,,,,,,,,,,,,,,,,,,,,,,,,,,,,,,,,,,,,,,,,,,,,,,,,,,,,,,,,,,,,,,,,,,,,,0.005,,,,,,,,,,,,,,,,,,,,,,,,,,,,right,1,160,30,190,1,2230.111992,2230.111992,2230.111992,None,None,4,0,0.4800653,,,,,,,,,,,,,,,,,,,,,,10,18,2,2024-11-14_18h09.50.012,uWM_experiment,2022.2.3,59.99674817
,,,,,,,,,,,,,,,,,,,,9,0,9,0,10,0,10,0,,,,,,,,,,,,,,,,,,,,,,,,,,,,,,,,,,,,,,,,,,,,,,,,,,,,,,,,,,,,,,,,,,,,,,0.005,,,,,,,,,,,,,,,,,,,,,,,,,,,,left,1,130,-30,100,1,2235.695494,2235.695494,2235.695494,None,None,4,0,0.3846188,,,,,,,,,,,,,,,,,,,,,,10,18,2,2024-11-14_18h09.50.012,uWM_experiment,2022.2.3,59.99674817
,,,,,,,,,,,,,,,,,,,,9,0,9,0,11,0,11,0,,,,,,,,,,,,,,,,,,,,,,,,,,,,,,,,,,,,,,,,,,,,,,,,,,,,,,,,,,,,,,,,,,,,,,0,,,,,,,,,,,,,,,,,,,,,,,,,,,,left,1,10,-30,-20,0,2241.3624,2241.3624,2241.3624,None,None,4,0,0.2854861,,,,,,,,,,,,,,,,,,,,,,10,18,2,2024-11-14_18h09.50.012,uWM_experiment,2022.2.3,59.99674817
,,,,,,,,,,,,,,,,,,,,9,0,9,0,12,0,12,0,,,,,,,,,,,,,,,,,,,,,,,,,,,,,,,,,,,,,,,,,,,,,,,,,,,,,,,,,,,,,,,,,,,,,,0.005,,,,,,,,,,,,,,,,,,,,,,,,,,,,left,1,130,-30,100,1,2247.012603,2247.012603,2247.012603,None,None,4,0,0.2753561,,,,,,,,,,,,,,,,,,,,,,10,18,2,2024-11-14_18h09.50.012,uWM_experiment,2022.2.3,59.99674817
,,,,,,,,,,,,,,,,,,,,9,0,9,0,13,0,13,0,,,,,,,,,,,,,,,,,,,,,,,,,,,,,,,,,,,,,,,,,,,,,,,,,,,,,,,,,,,,,,,,,,,,,,0,,,,,,,,,,,,,,,,,,,,,,,,,,,,left,1,160,-30,130,0,2252.612827,2252.612827,2252.612827,None,None,4,0,0.2509837,,,,,,,,,,,,,,,,,,,,,,10,18,2,2024-11-14_18h09.50.012,uWM_experiment,2022.2.3,59.99674817
,,,,,,,,,,,,,,,,,,,,9,0,9,0,14,0,14,0,,,,,,,,,,,,,,,,,,,,,,,,,,,,,,,,,,,,,,,,,,,,,,,,,,,,,,,,,,,,,,,,,,,,,,0.005,,,,,,,,,,,,,,,,,,,,,,,,,,,,left,1,10,-30,-20,1,2258.263059,2258.263059,2258.263059,None,None,4,0,0.2727944,,,,,,,,,,,,,,,,,,,,,,10,18,2,2024-11-14_18h09.50.012,uWM_experiment,2022.2.3,59.99674817
,,,,,,,,,,,,,,,,,,,,9,0,9,0,15,0,15,0,,,,,,,,,,,,,,,,,,,,,,,,,,,,,,,,,,,,,,,,,,,,,,,,,,,,,,,,,,,,,,,,,,,,,,0,,,,,,,,,,,,,,,,,,,,,,,,,,,,left,1,130,-30,100,0,2263.929928,2263.929928,2263.929928,None,None,4,0,0.2459685,,,,,,,,,,,,,,,,,,,,,,10,18,2,2024-11-14_18h09.50.012,uWM_experiment,2022.2.3,59.99674817
,,,,,,,,,,,,,,,,,,,,9,0,9,0,16,0,16,0,,,,,,,,,,,,,,,,,,,,,,,,,,,,,,,,,,,,,,,,,,,,,,,,,,,,,,,,,,,,,,,,,,,,,,0,,,,,,,,,,,,,,,,,,,,,,,,,,,,left,1,70,-30,40,0,2269.463484,2269.463484,2269.463484,None,None,4,0,0.4244629,,,,,,,,,,,,,,,,,,,,,,10,18,2,2024-11-14_18h09.50.012,uWM_experiment,2022.2.3,59.99674817
,,,,,,,,,,,,,,,,,,,,9,0,9,0,17,0,17,0,,,,,,,,,,,,,,,,,,,,,,,,,,,,,,,,,,,,,,,,,,,,,,,,,,,,,,,,,,,,,,,,,,,,,,0,,,,,,,,,,,,,,,,,,,,,,,,,,,,left,1,160,-30,130,0,2275.230346,2275.230346,2275.230346,None,None,4,0,0.2013908,,,,,,,,,,,,,,,,,,,,,,10,18,2,2024-11-14_18h09.50.012,uWM_experiment,2022.2.3,59.99674817
,,,,,,,,,,,,,,,,,,,,9,0,9,0,18,0,18,0,,,,,,,,,,,,,,,,,,,,,,,,,,,,,,,,,,,,,,,,,,,,,,,,,,,,,,,,,,,,,,,,,,,,,,0.005,,,,,,,,,,,,,,,,,,,,,,,,,,,,left,1,70,-30,40,1,2280.813919,2280.813919,2280.813919,None,None,4,0,0.2579327,,,,,,,,,,,,,,,,,,,,,,10,18,2,2024-11-14_18h09.50.012,uWM_experiment,2022.2.3,59.99674817
,,,,,,,,,,,,,,,,,,,,9,0,9,0,19,0,19,0,,,,,,,,,,,,,,,,,,,,,,,,,,,,,,,,,,,,,,,,,,,,,,,,,,,,,,,,,,,,,,,,,,,,,,0,,,,,,,,,,,,,,,,,,,,,,,,,,,,left,1,40,-30,10,0,2286.430799,2286.430799,2286.430799,None,None,4,0,0.2409374,,,,,,,,,,,,,,,,,,,,,,10,18,2,2024-11-14_18h09.50.012,uWM_experiment,2022.2.3,59.99674817
,,,,,,,,,,,,,,,,,,,,9,0,9,0,20,0,20,0,,,,,,,,,,,,,,,,,,,,,,,,,,,,,,,,,,,,,,,,,,,,,,,,,,,,,,,,,,,,,,,,,,,,,,0.005,,,,,,,,,,,,,,,,,,,,,,,,,,,,left,1,10,-30,-20,1,2292.031014,2292.031014,2292.031014,None,None,4,0,0.2247938,,,,,,,,,,,,,,,,,,,,,,10,18,2,2024-11-14_18h09.50.012,uWM_experiment,2022.2.3,59.99674817
,,,,,,,,,,,,,,,,,,,,9,0,9,0,21,0,21,0,,,,,,,,,,,,,,,,,,,,,,,,,,,,,,,,,,,,,,,,,,,,,,,,,,,,,,,,,,,,,,,,,,,,,,0,,,,,,,,,,,,,,,,,,,,,,,,,,,,left,0,70,30,100,0,2297.581238,2297.581238,2297.581238,None,None,4,0,0.218391,,,,,,,,,,,,,,,,,,,,,,10,18,2,2024-11-14_18h09.50.012,uWM_experiment,2022.2.3,59.99674817
,,,,,,,,,,,,,,,,,,,,9,0,9,0,22,0,22,0,,,,,,,,,,,,,,,,,,,,,,,,,,,,,,,,,,,,,,,,,,,,,,,,,,,,,,,,,,,,,,,,,,,,,,0,,,,,,,,,,,,,,,,,,,,,,,,,,,,left,1,70,-30,40,0,2303.13142,2303.13142,2303.13142,None,None,4,0,0.2283507,,,,,,,,,,,,,,,,,,,,,,10,18,2,2024-11-14_18h09.50.012,uWM_experiment,2022.2.3,59.99674817
,,,,,,,,,,,,,,,,,,,,9,0,9,0,23,0,23,0,,,,,,,,,,,,,,,,,,,,,,,,,,,,,,,,,,,,,,,,,,,,,,,,,,,,,,,,,,,,,,,,,,,,,,0.005,,,,,,,,,,,,,,,,,,,,,,,,,,,,left,1,10,-30,-20,1,2308.681659,2308.681659,2308.681659,None,None,4,0,0.285945,,,,,,,,,,,,,,,,,,,,,,10,18,2,2024-11-14_18h09.50.012,uWM_experiment,2022.2.3,59.99674817
,,,,,,,,,,,,,,,,,,,,9,0,9,0,,,,,0,0,0,0,,,,,,,,,,,,,,,,,,,,,,,,,,,,,,,,,,,,,,,,,,,,,,,,,,,,,,,,,,,,,,,,,,,,,,,,,,,,,,,,,,,,,,,,,,,,,,,,,,,,,,,,,,,,2308.99834,2308.99834,space,12.0092273,None,None,,,,,,,,,,,,,,,,10,18,2,2024-11-14_18h09.50.012,uWM_experiment,2022.2.3,59.99674817
,,,,,,,,,,,,,,,,,,,,9,0,9,0,,,,,1,0,1,0,,,,,,,,,,,,,,,,,,,,,,,,,,,,,,,,,,,,,,,,,,,,,,,,,,,,,,,,,,,,,,,,,,,,,,,,,,,,,,,,,,,,,,,,,,,,,,,,,,,,,,,,,,,,,,,,,,,,,,,,,,,,,,,,,10,18,2,2024-11-14_18h09.50.012,uWM_experiment,2022.2.3,59.99674817
,,,,,,,,,,,,,,,,,,,,9,0,9,0,,,,,2,0,2,0,,,,,,,,,,,,,,,,,,,,,,,,,,,,,,,,,,,,,,,,,,,,,,,,,,,,,,,,,,,,,,,,,,,,,,,,,,,,,,,,,,,,,,,,,,,,,,,,,,,,,,,,,,,,,,,,,,,,,,,,,,,,,,,,,10,18,2,2024-11-14_18h09.50.012,uWM_experiment,2022.2.3,59.99674817
,,,,,,,,,,,,,,,,,,,,10,0,10,0,0,0,0,0,,,,,,,,,,,,,,,,,,,,,,,,,,,,,,,,,,,,,,,,,,,,,,,,,,,,,,,,,,,,,,,,,,,,,,0.005,,,,,,,,,,,,,,,,,,,,2321.032115,2321.732156,2322.032171,2322.732189,2323.032204,2323.732234,2323.732234,2324.048923,left,0,10,30,40,1,2328.499111,2328.499111,2328.499111,None,None,4,0,0.252451,,,,,,,None,,,,,,,,,,,,,,,10,18,2,2024-11-14_18h09.50.012,uWM_experiment,2022.2.3,59.99674817
,,,,,,,,,,,,,,,,,,,,10,0,10,0,1,0,1,0,,,,,,,,,,,,,,,,,,,,,,,,,,,,,,,,,,,,,,,,,,,,,,,,,,,,,,,,,,,,,,,,,,,,,,0,,,,,,,,,,,,,,,,,,,,,,,,,,,,left,1,70,-30,40,0,2334.032641,2334.032641,2334.032641,None,None,4,0,0.2230073,,,,,,,,,,,,,,,,,,,,,,10,18,2,2024-11-14_18h09.50.012,uWM_experiment,2022.2.3,59.99674817
,,,,,,,,,,,,,,,,,,,,10,0,10,0,2,0,2,0,,,,,,,,,,,,,,,,,,,,,,,,,,,,,,,,,,,,,,,,,,,,,,,,,,,,,,,,,,,,,,,,,,,,,,0.005,,,,,,,,,,,,,,,,,,,,,,,,,,,,left,0,130,30,160,1,2339.5162,2339.5162,2339.5162,None,None,4,0,0.2193306,,,,,,,,,,,,,,,,,,,,,,10,18,2,2024-11-14_18h09.50.012,uWM_experiment,2022.2.3,59.99674817
,,,,,,,,,,,,,,,,,,,,10,0,10,0,3,0,3,0,,,,,,,,,,,,,,,,,,,,,,,,,,,,,,,,,,,,,,,,,,,,,,,,,,,,,,,,,,,,,,,,,,,,,,0.005,,,,,,,,,,,,,,,,,,,,,,,,,,,,left,0,70,30,100,1,2344.999727,2344.999727,2344.999727,None,None,4,0,0.2076665,,,,,,,,,,,,,,,,,,,,,,10,18,2,2024-11-14_18h09.50.012,uWM_experiment,2022.2.3,59.99674817
,,,,,,,,,,,,,,,,,,,,10,0,10,0,4,0,4,0,,,,,,,,,,,,,,,,,,,,,,,,,,,,,,,,,,,,,,,,,,,,,,,,,,,,,,,,,,,,,,,,,,,,,,0.005,,,,,,,,,,,,,,,,,,,,,,,,,,,,left,0,10,30,40,1,2350.533257,2350.533257,2350.533257,None,None,4,0,0.2182603,,,,,,,,,,,,,,,,,,,,,,10,18,2,2024-11-14_18h09.50.012,uWM_experiment,2022.2.3,59.99674817
,,,,,,,,,,,,,,,,,,,,10,0,10,0,5,0,5,0,,,,,,,,,,,,,,,,,,,,,,,,,,,,,,,,,,,,,,,,,,,,,,,,,,,,,,,,,,,,,,,,,,,,,,0.005,,,,,,,,,,,,,,,,,,,,,,,,,,,,left,1,130,-30,100,1,2356.066823,2356.066823,2356.066823,None,None,4,0,0.2446139,,,,,,,,,,,,,,,,,,,,,,10,18,2,2024-11-14_18h09.50.012,uWM_experiment,2022.2.3,59.99674817
,,,,,,,,,,,,,,,,,,,,10,0,10,0,6,0,6,0,,,,,,,,,,,,,,,,,,,,,,,,,,,,,,,,,,,,,,,,,,,,,,,,,,,,,,,,,,,,,,,,,,,,,,0.005,,,,,,,,,,,,,,,,,,,,,,,,,,,,left,0,10,30,40,1,2361.567059,2361.567059,2361.567059,None,None,4,0,0.216293,,,,,,,,,,,,,,,,,,,,,,10,18,2,2024-11-14_18h09.50.012,uWM_experiment,2022.2.3,59.99674817
,,,,,,,,,,,,,,,,,,,,10,0,10,0,7,0,7,0,,,,,,,,,,,,,,,,,,,,,,,,,,,,,,,,,,,,,,,,,,,,,,,,,,,,,,,,,,,,,,,,,,,,,,0.005,,,,,,,,,,,,,,,,,,,,,,,,,,,,left,0,70,30,100,1,2367.033909,2367.033909,2367.033909,None,None,4,0,0.2213137,,,,,,,,,,,,,,,,,,,,,,10,18,2,2024-11-14_18h09.50.012,uWM_experiment,2022.2.3,59.99674817
,,,,,,,,,,,,,,,,,,,,10,0,10,0,8,0,8,0,,,,,,,,,,,,,,,,,,,,,,,,,,,,,,,,,,,,,,,,,,,,,,,,,,,,,,,,,,,,,,,,,,,,,,0.1,,,,,,,,,,,,,,,,,,,,,,,,,,,,left,1,10,-30,-20,2,2372.950825,2372.950825,2372.950825,None,None,4,0,0.3844232,,,,,,,,,,,,,,,,,,,,,,10,18,2,2024-11-14_18h09.50.012,uWM_experiment,2022.2.3,59.99674817
,,,,,,,,,,,,,,,,,,,,10,0,10,0,9,0,9,0,,,,,,,,,,,,,,,,,,,,,,,,,,,,,,,,,,,,,,,,,,,,,,,,,,,,,,,,,,,,,,,,,,,,,,0.005,,,,,,,,,,,,,,,,,,,,,,,,,,,,left,0,130,30,160,1,2378.651029,2378.651029,2378.651029,None,None,4,0,0.2762815,,,,,,,,,,,,,,,,,,,,,,10,18,2,2024-11-14_18h09.50.012,uWM_experiment,2022.2.3,59.99674817
,,,,,,,,,,,,,,,,,,,,10,0,10,0,10,0,10,0,,,,,,,,,,,,,,,,,,,,,,,,,,,,,,,,,,,,,,,,,,,,,,,,,,,,,,,,,,,,,,,,,,,,,,0.005,,,,,,,,,,,,,,,,,,,,,,,,,,,,left,1,130,-30,100,1,2384.134612,2384.134612,2384.134612,None,None,4,0,0.2326897,,,,,,,,,,,,,,,,,,,,,,10,18,2,2024-11-14_18h09.50.012,uWM_experiment,2022.2.3,59.99674817
