PreTrainingPAS4_loop.thisRepN,PreTrainingPAS4_loop.thisTrialN,PreTrainingPAS4_loop.thisN,PreTrainingPAS4_loop.thisIndex,PreTrainingPAS1_loop.thisRepN,PreTrainingPAS1_loop.thisTrialN,PreTrainingPAS1_loop.thisN,PreTrainingPAS1_loop.thisIndex,RepeatCV_loop.thisRepN,RepeatCV_loop.thisTrialN,RepeatCV_loop.thisN,RepeatCV_loop.thisIndex,TrainingCV_loop.thisRepN,TrainingCV_loop.thisTrialN,TrainingCV_loop.thisN,TrainingCV_loop.thisIndex,TrainingCAL_loop.thisRepN,TrainingCAL_loop.thisTrialN,TrainingCAL_loop.thisN,TrainingCAL_loop.thisIndex,blocks_loop.thisRepN,blocks_loop.thisTrialN,blocks_loop.thisN,blocks_loop.thisIndex,trials_loop.thisRepN,trials_loop.thisTrialN,trials_loop.thisN,trials_loop.thisIndex,TrainingPAS1_loop.thisRepN,TrainingPAS1_loop.thisTrialN,TrainingPAS1_loop.thisN,TrainingPAS1_loop.thisIndex,spacebarWelcome0.started,spacebarWelcome0.keys,spacebarWelcome0.rt,spacebarWelcome1.started,gaborWelcome1.started,maskWelcome1.started,textMaskWelcome1.started,spacebarWelcome1.keys,spacebarWelcome1.rt,spacebarWelcome2.started,spacebarWelcome2.keys,spacebarWelcome2.rt,textInst_PreTrainingPAS4.started,spacebarPreTrainingPAS4.started,spacebarPreTrainingPAS4.keys,spacebarPreTrainingPAS4.rt,textPreTrainingPAS1.started,spacebarPreTrainingPAS1.started,spacebarPreTrainingPAS1.keys,spacebarPreTrainingPAS1.rt,textQUEST0.started,spacebarQUEST0.started,spacebarQUEST0.keys,spacebarQUEST0.rt,spacebar0.started,spacebar0.keys,spacebar0.rt,spacebar1.started,spacebar1.keys,spacebar1.rt,textInstructions2.started,spacebar2.started,Gabor1Inst2.started,Gabor2Inst2.started,Gabor3Inst2.started,Gabor4Inst2.started,spacebar2.keys,spacebar2.rt,textInstructionsPAS.started,spacebarInstPAS.started,spacebarInstPAS.keys,spacebarInstPAS.rt,textInstructions3.started,spacebar3.started,spacebar3.keys,spacebar3.rt,WMresp_CV,WMresp_CV_acc,oriMemo_CV,gyre_CV,oriTest_CV,feedbackText.started,feedbackText.stopped,sliderCV.started,PAStextCV.started,PASkeyCV.started,sliderCV.response,sliderCV.rt,PASkeyCV.keys,PASkeyCV.corr,PASkeyCV.rt,TextInstructionsCAL.started,spacebarCAL.started,spacebarCAL.keys,spacebarCAL.rt,contrast,WMresp_CAL,WMresp_CAL_acc,oriMemo_CAL,gyre_CAL,oriTest_CAL,cue_CAL,sliderCAL.started,PAStextCAL.started,PASkeyCAL.started,sliderCAL.response,sliderCAL.rt,PASkeyCAL.keys,PASkeyCAL.corr,PASkeyCAL.rt,propUnseen_CAL,textStart.started,spacebar4.started,spacebar4.keys,spacebar4.rt,three.started,three.stopped,two.started,two.stopped,one.started,one.stopped,blank_countdown.started,blank_countdown.stopped,WMresp,WMresp_acc,oriMemo,gyre,oriTest,cue,slider.started,textPAS_firstGabor.started,PASkey.started,slider.response,slider.rt,PASkey.keys,PASkey.corr,PASkey.rt,spacebarContinue.started,textBreak.started,spacebarContinue.keys,spacebarContinue.rt,spacebar_reminder.keys,spacebar_TrainingPAS1.keys,spacebar_endpractice.keys,spacebar_reminder.started,textReminder.started,spacebar_reminder.rt,textInst_TrainingPAS1.started,spacebar_TrainingPAS1.started,spacebar_TrainingPAS1.rt,textend_practicePAS1.started,spacebar_endpractice.started,spacebar_endpractice.rt,textThanks.started,textThanks.stopped,laboratory,participant,session,date,expName,psychopyVersion,frameRate
,,,,,,,,,,,,,,,,,,,,,,,,,,,,,,,,458.4747251,space,2.841964,,,,,,,,,,,,,,,,,,,,,,,,,,,,,,,,,,,,,,,,,,,,,,,,,,,,,,,,,,,,,,,,,,,,,,,,,,,,,,,,,,,,,,,,,,,,,,,,,,,,,,,,,,,,,,,,,,,,,,,,,,,10,18,1,2024-11-04_18h03.39.425,uWM_experiment,2022.2.3,60.00103202
,,,,,,,,,,,,,,,,,,,,,,,,,,,,,,,,,,,461.3580159,461.3580159,461.3580159,461.3580159,space,20.782653,,,,,,,,,,,,,,,,,,,,,,,,,,,,,,,,,,,,,,,,,,,,,,,,,,,,,,,,,,,,,,,,,,,,,,,,,,,,,,,,,,,,,,,,,,,,,,,,,,,,,,,,,,,,,,,,,,,,,10,18,1,2024-11-04_18h03.39.425,uWM_experiment,2022.2.3,60.00103202
,,,,,,,,,,,,,,,,,,,,,,,,,,,,,,,,,,,,,,,,,482.1588037,space,24.3896278,,,,,,,,,,,,,,,,,,,,,,,,,,,,,,,,,,,,,,,,,,,,,,,,,,,,,,,,,,,,,,,,,,,,,,,,,,,,,,,,,,,,,,,,,,,,,,,,,,,,,,,,,,,,,,,,,,10,18,1,2024-11-04_18h03.39.425,uWM_experiment,2022.2.3,60.00103202
,,,,,,,,,,,,,,,,,,,,,,,,,,,,,,,,,,,,,,,,,,,,506.576453,506.576453,space,16.3480389,,,,,,,,,,,,,,,,,,,,,,,,,,,,,,,,,,,,,,,,,,,,,,,,,,,,,,,,,,,,,,,,,,,,,,,,,,,,,,,,,,,,,,,,,,,,,,,,,,,,,,,,,,,,,,10,18,1,2024-11-04_18h03.39.425,uWM_experiment,2022.2.3,60.00103202
0,0,0,0,,,,,,,,,,,,,,,,,,,,,,,,,,,,,,,,,,,,,,,,,,,,,,,,,,,,,,,,,,,,,,,,,,,,,,,,,,,,,,,,,,,,,,,,,,,,,,,,,,,,,,,,,,,,,,,,,,,,,,,,,,,,,,,,,,,,,,,,,,,,,,,,,,,,,,,,,,10,18,1,2024-11-04_18h03.39.425,uWM_experiment,2022.2.3,60.00103202
1,0,1,0,,,,,,,,,,,,,,,,,,,,,,,,,,,,,,,,,,,,,,,,,,,,,,,,,,,,,,,,,,,,,,,,,,,,,,,,,,,,,,,,,,,,,,,,,,,,,,,,,,,,,,,,,,,,,,,,,,,,,,,,,,,,,,,,,,,,,,,,,,,,,,,,,,,,,,,,,,10,18,1,2024-11-04_18h03.39.425,uWM_experiment,2022.2.3,60.00103202
2,0,2,0,,,,,,,,,,,,,,,,,,,,,,,,,,,,,,,,,,,,,,,,,,,,,,,,,,,,,,,,,,,,,,,,,,,,,,,,,,,,,,,,,,,,,,,,,,,,,,,,,,,,,,,,,,,,,,,,,,,,,,,,,,,,,,,,,,,,,,,,,,,,,,,,,,,,,,,,,,10,18,1,2024-11-04_18h03.39.425,uWM_experiment,2022.2.3,60.00103202
,,,,,,,,,,,,,,,,,,,,,,,,,,,,,,,,,,,,,,,,,,,,,,,,531.5941444,531.5941444,space,20.1222392,,,,,,,,,,,,,,,,,,,,,,,,,,,,,,,,,,,,,,,,,,,,,,,,,,,,,,,,,,,,,,,,,,,,,,,,,,,,,,,,,,,,,,,,,,,,,,,,,,,,,,,,,,10,18,1,2024-11-04_18h03.39.425,uWM_experiment,2022.2.3,60.00103202
,,,,0,0,0,0,,,,,,,,,,,,,,,,,,,,,,,,,,,,,,,,,,,,,,,,,,,,,,,,,,,,,,,,,,,,,,,,,,,,,,,,,,,,,,,,,,,,,,,,,,,,,,,,,,,,,,,,,,,,,,,,,,,,,,,,,,,,,,,,,,,,,,,,,,,,,,,,,,,,,,10,18,1,2024-11-04_18h03.39.425,uWM_experiment,2022.2.3,60.00103202
,,,,1,0,1,0,,,,,,,,,,,,,,,,,,,,,,,,,,,,,,,,,,,,,,,,,,,,,,,,,,,,,,,,,,,,,,,,,,,,,,,,,,,,,,,,,,,,,,,,,,,,,,,,,,,,,,,,,,,,,,,,,,,,,,,,,,,,,,,,,,,,,,,,,,,,,,,,,,,,,,10,18,1,2024-11-04_18h03.39.425,uWM_experiment,2022.2.3,60.00103202
,,,,2,0,2,0,,,,,,,,,,,,,,,,,,,,,,,,,,,,,,,,,,,,,,,,,,,,,,,,,,,,,,,,,,,,,,,,,,,,,,,,,,,,,,,,,,,,,,,,,,,,,,,,,,,,,,,,,,,,,,,,,,,,,,,,,,,,,,,,,,,,,,,,,,,,,,,,,,,,,,10,18,1,2024-11-04_18h03.39.425,uWM_experiment,2022.2.3,60.00103202
,,,,,,,,,,,,,,,,,,,,,,,,,,,,,,,,,,,,,,,,,,,,,,,,,,,,559.5619553,559.5619553,space,18.9943998,,,,,,,,,,,,,,,,,,,,,,,,,,,,,,,,,,,,,,,,,,,,,,,,,,,,,,,,,,,,,,,,,,,,,,,,,,,,,,,,,,,,,,,,,,,,,,,,,,,,,,10,18,1,2024-11-04_18h03.39.425,uWM_experiment,2022.2.3,60.00103202
,,,,,,,,,,,,,,,,,,,,,,,,,,,,,,,,,,,,,,,,,,,,,,,,,,,,,,,,708.001371,space,65.4023052,,,,,,,,,,,,,,,,,,,,,,,,,,,,,,,,,,,,,,,,,,,,,,,,,,,,,,,,,,,,,,,,,,,,,,,,,,,,,,,,,,,,,,,,,,,,,,,,,,,10,18,1,2024-11-04_18h03.39.425,uWM_experiment,2022.2.3,60.00103202
,,,,,,,,,,,,,,,,,,,,,,,,,,,,,,,,,,,,,,,,,,,,,,,,,,,,,,,,,,,773.4206856,space,41.5269204,,,,,,,,,,,,,,,,,,,,,,,,,,,,,,,,,,,,,,,,,,,,,,,,,,,,,,,,,,,,,,,,,,,,,,,,,,,,,,,,,,,,,,,,,,,,,,,,10,18,1,2024-11-04_18h03.39.425,uWM_experiment,2022.2.3,60.00103202
,,,,,,,,,,,,,,,,,,,,,,,,,,,,,,,,,,,,,,,,,,,,,,,,,,,,,,,,,,,,,,814.9724116,814.9724116,814.9724116,814.9724116,814.9724116,814.9724116,space,32.1990559,,,,,,,,,,,,,,,,,,,,,,,,,,,,,,,,,,,,,,,,,,,,,,,,,,,,,,,,,,,,,,,,,,,,,,,,,,,,,,,,,,,,,,,,10,18,1,2024-11-04_18h03.39.425,uWM_experiment,2022.2.3,60.00103202
,,,,,,,,,,,,,,,,,,,,,,,,,,,,,,,,,,,,,,,,,,,,,,,,,,,,,,,,,,,,,,,,,,,,,,847.190397,847.190397,space,12.8290225,,,,,,,,,,,,,,,,,,,,,,,,,,,,,,,,,,,,,,,,,,,,,,,,,,,,,,,,,,,,,,,,,,,,,,,,,,,,,,,,,,,,10,18,1,2024-11-04_18h03.39.425,uWM_experiment,2022.2.3,60.00103202
,,,,,,,,,,,,,,,,,,,,,,,,,,,,,,,,,,,,,,,,,,,,,,,,,,,,,,,,,,,,,,,,,,,,,,,,,,860.0409297,860.0409297,space,16.1384143,,,,,,,,,,,,,,,,,,,,,,,,,,,,,,,,,,,,,,,,,,,,,,,,,,,,,,,,,,,,,,,,,,,,,,,,,,,,,,,,10,18,1,2024-11-04_18h03.39.425,uWM_experiment,2022.2.3,60.00103202
,,,,,,,,0,0,0,0,0,0,0,0,,,,,,,,,,,,,,,,,,,,,,,,,,,,,,,,,,,,,,,,,,,,,,,,,,,,,,,,,,,,,,,left,1,100,-30,70,882.7085417,883.7085631,883.7085631,883.7085631,883.7085631,None,None,4,0,3.7667788,,,,,,,,,,,,,,,,,,,,,,,,,,,,,,,,,,,,,,,,,,,,,,,,,,,,,,,,,,,,,,,,,10,18,1,2024-11-04_18h03.39.425,uWM_experiment,2022.2.3,60.00103202
,,,,,,,,0,0,0,0,1,0,1,0,,,,,,,,,,,,,,,,,,,,,,,,,,,,,,,,,,,,,,,,,,,,,,,,,,,,,,,,,,,,,,,right,1,130,30,160,894.7423781,895.7424369,895.7424369,895.7424369,895.7424369,None,None,4,0,1.8289571,,,,,,,,,,,,,,,,,,,,,,,,,,,,,,,,,,,,,,,,,,,,,,,,,,,,,,,,,,,,,,,,,10,18,1,2024-11-04_18h03.39.425,uWM_experiment,2022.2.3,60.00103202
,,,,,,,,0,0,0,0,2,0,2,0,,,,,,,,,,,,,,,,,,,,,,,,,,,,,,,,,,,,,,,,,,,,,,,,,,,,,,,,,,,,,,,right,0,70,-30,40,904.2760867,905.2761224,905.2761224,905.2761224,905.2761224,None,None,2,0,1.6710557,,,,,,,,,,,,,,,,,,,,,,,,,,,,,,,,,,,,,,,,,,,,,,,,,,,,,,,,,,,,,,,,,10,18,1,2024-11-04_18h03.39.425,uWM_experiment,2022.2.3,60.00103202
,,,,,,,,0,0,0,0,3,0,3,0,,,,,,,,,,,,,,,,,,,,,,,,,,,,,,,,,,,,,,,,,,,,,,,,,,,,,,,,,,,,,,,left,0,70,30,100,913.3097992,914.309827,914.309827,914.309827,914.309827,None,None,4,0,1.9013,,,,,,,,,,,,,,,,,,,,,,,,,,,,,,,,,,,,,,,,,,,,,,,,,,,,,,,,,,,,,,,,,10,18,1,2024-11-04_18h03.39.425,uWM_experiment,2022.2.3,60.00103202
,,,,,,,,0,0,0,0,4,0,4,0,,,,,,,,,,,,,,,,,,,,,,,,,,,,,,,,,,,,,,,,,,,,,,,,,,,,,,,,,,,,,,,right,0,10,-30,-20,923.143528,924.1435843,924.1435843,924.1435843,924.1435843,None,None,3,0,15.1076023,,,,,,,,,,,,,,,,,,,,,,,,,,,,,,,,,,,,,,,,,,,,,,,,,,,,,,,,,,,,,,,,,10,18,1,2024-11-04_18h03.39.425,uWM_experiment,2022.2.3,60.00103202
,,,,,,,,0,0,0,0,5,0,5,0,,,,,,,,,,,,,,,,,,,,,,,,,,,,,,,,,,,,,,,,,,,,,,,,,,,,,,,,,,,,,,,right,1,100,30,130,944.8277465,945.827784,945.827784,945.827784,945.827784,None,None,4,0,1.3192483,,,,,,,,,,,,,,,,,,,,,,,,,,,,,,,,,,,,,,,,,,,,,,,,,,,,,,,,,,,,,,,,,10,18,1,2024-11-04_18h03.39.425,uWM_experiment,2022.2.3,60.00103202
,,,,,,,,0,0,0,0,6,0,6,0,,,,,,,,,,,,,,,,,,,,,,,,,,,,,,,,,,,,,,,,,,,,,,,,,,,,,,,,,,,,,,,right,1,100,30,130,953.2614225,,954.2614624,954.2614624,954.2614624,None,None,4,0,0.1737067,,,,,,,,,,,,,,,,,,,,,,,,,,,,,,,,,,,,,,,,,,,,,,,,,,,,,,,,,,,,,,,,,10,18,1,2024-11-04_18h03.39.425,uWM_experiment,2022.2.3,60.00103202
,,,,,,,,0,0,0,0,7,0,7,0,,,,,,,,,,,,,,,,,,,,,,,,,,,,,,,,,,,,,,,,,,,,,,,,,,,,,,,,,,,,,,,left,1,40,-30,10,960.2950584,961.2950827,961.2950827,961.2950827,961.2950827,None,None,4,0,0.5240492,,,,,,,,,,,,,,,,,,,,,,,,,,,,,,,,,,,,,,,,,,,,,,,,,,,,,,,,,,,,,,,,,10,18,1,2024-11-04_18h03.39.425,uWM_experiment,2022.2.3,60.00103202
,,,,,,,,0,0,0,0,8,0,8,0,,,,,,,,,,,,,,,,,,,,,,,,,,,,,,,,,,,,,,,,,,,,,,,,,,,,,,,,,,,,,,,left,1,130,-30,100,967.8286796,,968.8287298,968.8287298,968.8287298,None,None,4,0,0.3822682,,,,,,,,,,,,,,,,,,,,,,,,,,,,,,,,,,,,,,,,,,,,,,,,,,,,,,,,,,,,,,,,,10,18,1,2024-11-04_18h03.39.425,uWM_experiment,2022.2.3,60.00103202
,,,,,,,,0,0,0,0,9,0,9,0,,,,,,,,,,,,,,,,,,,,,,,,,,,,,,,,,,,,,,,,,,,,,,,,,,,,,,,,,,,,,,,right,1,160,30,190,974.9290051,975.9290239,975.9290239,975.9290239,975.9290239,None,None,4,0,0.3379408,,,,,,,,,,,,,,,,,,,,,,,,,,,,,,,,,,,,,,,,,,,,,,,,,,,,,,,,,,,,,,,,,10,18,1,2024-11-04_18h03.39.425,uWM_experiment,2022.2.3,60.00103202
,,,,,,,,0,0,0,0,10,0,10,0,,,,,,,,,,,,,,,,,,,,,,,,,,,,,,,,,,,,,,,,,,,,,,,,,,,,,,,,,,,,,,,left,0,40,30,70,982.1459509,983.1459884,983.1459884,983.1459884,983.1459884,None,None,4,0,0.033106,,,,,,,,,,,,,,,,,,,,,,,,,,,,,,,,,,,,,,,,,,,,,,,,,,,,,,,,,,,,,,,,,10,18,1,2024-11-04_18h03.39.425,uWM_experiment,2022.2.3,60.00103202
,,,,,,,,0,0,0,0,11,0,11,0,,,,,,,,,,,,,,,,,,,,,,,,,,,,,,,,,,,,,,,,,,,,,,,,,,,,,,,,,,,,,,,left,1,10,-30,-20,989.096251,990.0962741,990.0962741,990.0962741,990.0962741,None,None,4,0,0.3386209,,,,,,,,,,,,,,,,,,,,,,,,,,,,,,,,,,,,,,,,,,,,,,,,,,,,,,,,,,,,,,,,,10,18,1,2024-11-04_18h03.39.425,uWM_experiment,2022.2.3,60.00103202
,,,,,,,,0,0,0,0,,,,,,,,,,,,,,,,,,,,,,,,,,,,,,,,,,,,,,,,,,,,,,,,,,,,,,,,,,,,,,,,,,,,,,,,,,,,,,,,,,,,,,,,,,,,,,,,,,,,,,,,,,,,,,,,,,,,,,,,,,,,,,,,,,,,,,,,,,,,,,,,,,10,18,1,2024-11-04_18h03.39.425,uWM_experiment,2022.2.3,60.00103202
,,,,,,,,,,,,,,,,,,,,,,,,,,,,,,,,,,,,,,,,,,,,,,,,,,,,,,,,,,,,,,,,,,,,,,,,,,,,,,,,,,,,,,,,,,,,,1002.113457,1002.113457,space,25.2174713,,,,,,,,,,,,,,,,,,,,,,,,,,,,,,,,,,,,,,,,,,,,,,,,,,,,,,,,,,,,,10,18,1,2024-11-04_18h03.39.425,uWM_experiment,2022.2.3,60.00103202
,,,,,,,,,,,,,,,,0,0,0,0,,,,,,,,,,,,,,,,,,,,,,,,,,,,,,,,,,,,,,,,,,,,,,,,,,,,,,,,,,,,,,,,,,,,,,,,,,,,,,0.005,left,0,10,30,40,1,1033.231397,1033.231397,1033.231397,None,None,2,0,1.5793959,,,,,,,,,,,,,,,,,,,,,,,,,,,,,,,,,,,,,,,,,,,,,,10,18,1,2024-11-04_18h03.39.425,uWM_experiment,2022.2.3,60.00103202
,,,,,,,,,,,,,,,,1,0,1,0,,,,,,,,,,,,,,,,,,,,,,,,,,,,,,,,,,,,,,,,,,,,,,,,,,,,,,,,,,,,,,,,,,,,,,,,,,,,,,0.1,left,1,130,-30,100,2,1040.831716,1040.831716,1040.831716,None,None,3,0,1.1791611,0,,,,,,,,,,,,,,,,,,,,,,,,,,,,,,,,,,,,,,,,,,,,,10,18,1,2024-11-04_18h03.39.425,uWM_experiment,2022.2.3,60.00103202
,,,,,,,,,,,,,,,,2,0,2,0,,,,,,,,,,,,,,,,,,,,,,,,,,,,,,,,,,,,,,,,,,,,,,,,,,,,,,,,,,,,,,,,,,,,,,,,,,,,,,0.1,left,0,70,30,100,2,1048.098675,1048.098675,1048.098675,None,None,3,0,0.9360464,0,,,,,,,,,,,,,,,,,,,,,,,,,,,,,,,,,,,,,,,,,,,,,10,18,1,2024-11-04_18h03.39.425,uWM_experiment,2022.2.3,60.00103202
,,,,,,,,,,,,,,,,3,0,3,0,,,,,,,,,,,,,,,,,,,,,,,,,,,,,,,,,,,,,,,,,,,,,,,,,,,,,,,,,,,,,,,,,,,,,,,,,,,,,,0.005,left,0,40,30,70,1,1056.065654,1056.065654,1056.065654,None,None,4,0,2.3370182,0,,,,,,,,,,,,,,,,,,,,,,,,,,,,,,,,,,,,,,,,,,,,,10,18,1,2024-11-04_18h03.39.425,uWM_experiment,2022.2.3,60.00103202
,,,,,,,,,,,,,,,,4,0,4,0,,,,,,,,,,,,,,,,,,,,,,,,,,,,,,,,,,,,,,,,,,,,,,,,,,,,,,,,,,,,,,,,,,,,,,,,,,,,,,0.005,left,1,100,-30,70,1,1065.749401,1065.749401,1065.749401,None,None,2,0,1.7733878,0,,,,,,,,,,,,,,,,,,,,,,,,,,,,,,,,,,,,,,,,,,,,,10,18,1,2024-11-04_18h03.39.425,uWM_experiment,2022.2.3,60.00103202
,,,,,,,,,,,,,,,,5,0,5,0,,,,,,,,,,,,,,,,,,,,,,,,,,,,,,,,,,,,,,,,,,,,,,,,,,,,,,,,,,,,,,,,,,,,,,,,,,,,,,0.005,left,1,40,-30,10,1,1073.666408,1073.666408,1073.666408,None,None,3,0,1.8323187,0,,,,,,,,,,,,,,,,,,,,,,,,,,,,,,,,,,,,,,,,,,,,,10,18,1,2024-11-04_18h03.39.425,uWM_experiment,2022.2.3,60.00103202
,,,,,,,,,,,,,,,,6,0,6,0,,,,,,,,,,,,,,,,,,,,,,,,,,,,,,,,,,,,,,,,,,,,,,,,,,,,,,,,,,,,,,,,,,,,,,,,,,,,,,0.1,left,1,70,-30,40,2,1083.500135,1083.500135,1083.500135,None,None,2,0,1.7184757,0,,,,,,,,,,,,,,,,,,,,,,,,,,,,,,,,,,,,,,,,,,,,,10,18,1,2024-11-04_18h03.39.425,uWM_experiment,2022.2.3,60.00103202
,,,,,,,,,,,,,,,,7,0,7,0,,,,,,,,,,,,,,,,,,,,,,,,,,,,,,,,,,,,,,,,,,,,,,,,,,,,,,,,,,,,,,,,,,,,,,,,,,,,,,0.005,left,1,130,-30,100,1,1094.567265,1094.567265,1094.567265,None,None,4,0,1.8914082,0,,,,,,,,,,,,,,,,,,,,,,,,,,,,,,,,,,,,,,,,,,,,,10,18,1,2024-11-04_18h03.39.425,uWM_experiment,2022.2.3,60.00103202
,,,,,,,,,,,,,,,,8,0,8,0,,,,,,,,,,,,,,,,,,,,,,,,,,,,,,,,,,,,,,,,,,,,,,,,,,,,,,,,,,,,,,,,,,,,,,,,,,,,,,0.005,left,1,160,-30,130,1,1102.434248,1102.434248,1102.434248,None,None,4,0,1.7603394,0,,,,,,,,,,,,,,,,,,,,,,,,,,,,,,,,,,,,,,,,,,,,,10,18,1,2024-11-04_18h03.39.425,uWM_experiment,2022.2.3,60.00103202
,,,,,,,,,,,,,,,,9,0,9,0,,,,,,,,,,,,,,,,,,,,,,,,,,,,,,,,,,,,,,,,,,,,,,,,,,,,,,,,,,,,,,,,,,,,,,,,,,,,,,0.1,right,1,160,30,190,2,1110.034538,1110.034538,1110.034538,None,None,3,0,3.0879826,0,,,,,,,,,,,,,,,,,,,,,,,,,,,,,,,,,,,,,,,,,,,,,10,18,1,2024-11-04_18h03.39.425,uWM_experiment,2022.2.3,60.00103202
,,,,,,,,,,,,,,,,10,0,10,0,,,,,,,,,,,,,,,,,,,,,,,,,,,,,,,,,,,,,,,,,,,,,,,,,,,,,,,,,,,,,,,,,,,,,,,,,,,,,,0.1,right,0,100,-30,70,2,1119.151592,1119.151592,1119.151592,None,None,3,0,1.8508787,0,,,,,,,,,,,,,,,,,,,,,,,,,,,,,,,,,,,,,,,,,,,,,10,18,1,2024-11-04_18h03.39.425,uWM_experiment,2022.2.3,60.00103202
,,,,,,,,,,,,,,,,11,0,11,0,,,,,,,,,,,,,,,,,,,,,,,,,,,,,,,,,,,,,,,,,,,,,,,,,,,,,,,,,,,,,,,,,,,,,,,,,,,,,,0.005,right,0,70,-30,40,1,1128.901964,1128.901964,1128.901964,None,None,2,0,2.8845278,0,,,,,,,,,,,,,,,,,,,,,,,,,,,,,,,,,,,,,,,,,,,,,10,18,1,2024-11-04_18h03.39.425,uWM_experiment,2022.2.3,60.00103202
,,,,,,,,,,,,,,,,12,0,12,0,,,,,,,,,,,,,,,,,,,,,,,,,,,,,,,,,,,,,,,,,,,,,,,,,,,,,,,,,,,,,,,,,,,,,,,,,,,,,,0.1,left,0,40,30,70,2,1138.452372,1138.452372,1138.452372,None,None,4,0,3.1340658,0,,,,,,,,,,,,,,,,,,,,,,,,,,,,,,,,,,,,,,,,,,,,,10,18,1,2024-11-04_18h03.39.425,uWM_experiment,2022.2.3,60.00103202
,,,,,,,,,,,,,,,,13,0,13,0,,,,,,,,,,,,,,,,,,,,,,,,,,,,,,,,,,,,,,,,,,,,,,,,,,,,,,,,,,,,,,,,,,,,,,,,,,,,,,0.1,left,0,70,30,100,2,1147.536101,1147.536101,1147.536101,None,None,3,0,0.6263452,0,,,,,,,,,,,,,,,,,,,,,,,,,,,,,,,,,,,,,,,,,,,,,10,18,1,2024-11-04_18h03.39.425,uWM_experiment,2022.2.3,60.00103202
,,,,,,,,,,,,,,,,14,0,14,0,,,,,,,,,,,,,,,,,,,,,,,,,,,,,,,,,,,,,,,,,,,,,,,,,,,,,,,,,,,,,,,,,,,,,,,,,,,,,,0.005,left,0,100,30,130,1,1154.286363,1154.286363,1154.286363,None,None,3,0,0.700188,0,,,,,,,,,,,,,,,,,,,,,,,,,,,,,,,,,,,,,,,,,,,,,10,18,1,2024-11-04_18h03.39.425,uWM_experiment,2022.2.3,60.00103202
,,,,,,,,,,,,,,,,15,0,15,0,,,,,,,,,,,,,,,,,,,,,,,,,,,,,,,,,,,,,,,,,,,,,,,,,,,,,,,,,,,,,,,,,,,,,,,,,,,,,,0.005,right,1,10,30,40,1,1161.303326,1161.303326,1161.303326,None,None,3,0,0.6991868,0,,,,,,,,,,,,,,,,,,,,,,,,,,,,,,,,,,,,,,,,,,,,,10,18,1,2024-11-04_18h03.39.425,uWM_experiment,2022.2.3,60.00103202
,,,,,,,,,,,,,,,,16,0,16,0,,,,,,,,,,,,,,,,,,,,,,,,,,,,,,,,,,,,,,,,,,,,,,,,,,,,,,,,,,,,,,,,,,,,,,,,,,,,,,0.005,left,0,100,30,130,1,1167.820267,1167.820267,1167.820267,None,None,3,0,0.7661108,0,,,,,,,,,,,,,,,,,,,,,,,,,,,,,,,,,,,,,,,,,,,,,10,18,1,2024-11-04_18h03.39.425,uWM_experiment,2022.2.3,60.00103202
,,,,,,,,,,,,,,,,17,0,17,0,,,,,,,,,,,,,,,,,,,,,,,,,,,,,,,,,,,,,,,,,,,,,,,,,,,,,,,,,,,,,,,,,,,,,,,,,,,,,,0.1,left,1,130,-30,100,2,1176.40395,1176.40395,1176.40395,None,None,3,0,2.1904256,0,,,,,,,,,,,,,,,,,,,,,,,,,,,,,,,,,,,,,,,,,,,,,10,18,1,2024-11-04_18h03.39.425,uWM_experiment,2022.2.3,60.00103202
,,,,,,,,,,,,,,,,18,0,18,0,,,,,,,,,,,,,,,,,,,,,,,,,,,,,,,,,,,,,,,,,,,,,,,,,,,,,,,,,,,,,,,,,,,,,,,,,,,,,,0.005,left,0,160,30,190,1,1184.254259,1184.254259,1184.254259,None,None,2,0,0.7000868,0,,,,,,,,,,,,,,,,,,,,,,,,,,,,,,,,,,,,,,,,,,,,,10,18,1,2024-11-04_18h03.39.425,uWM_experiment,2022.2.3,60.00103202
,,,,,,,,,,,,,,,,19,0,19,0,,,,,,,,,,,,,,,,,,,,,,,,,,,,,,,,,,,,,,,,,,,,,,,,,,,,,,,,,,,,,,,,,,,,,,,,,,,,,,0.1,left,0,10,30,40,2,1190.437849,1190.437849,1190.437849,None,None,2,0,0.7485449,0,,,,,,,,,,,,,,,,,,,,,,,,,,,,,,,,,,,,,,,,,,,,,10,18,1,2024-11-04_18h03.39.425,uWM_experiment,2022.2.3,60.00103202
,,,,,,,,,,,,,,,,20,0,20,0,,,,,,,,,,,,,,,,,,,,,,,,,,,,,,,,,,,,,,,,,,,,,,,,,,,,,,,,,,,,,,,,,,,,,,,,,,,,,,0.1,left,1,40,-30,10,2,1197.054794,1197.054794,1197.054794,None,None,2,0,0.731513,0,,,,,,,,,,,,,,,,,,,,,,,,,,,,,,,,,,,,,,,,,,,,,10,18,1,2024-11-04_18h03.39.425,uWM_experiment,2022.2.3,60.00103202
,,,,,,,,,,,,,,,,21,0,21,0,,,,,,,,,,,,,,,,,,,,,,,,,,,,,,,,,,,,,,,,,,,,,,,,,,,,,,,,,,,,,,,,,,,,,,,,,,,,,,0.1,left,1,10,-30,-20,2,1203.288387,1203.288387,1203.288387,None,None,3,0,2.425921,0,,,,,,,,,,,,,,,,,,,,,,,,,,,,,,,,,,,,,,,,,,,,,10,18,1,2024-11-04_18h03.39.425,uWM_experiment,2022.2.3,60.00103202
,,,,,,,,,,,,,,,,22,0,22,0,,,,,,,,,,,,,,,,,,,,,,,,,,,,,,,,,,,,,,,,,,,,,,,,,,,,,,,,,,,,,,,,,,,,,,,,,,,,,,0.005,left,0,160,30,190,1,1211.68874,1211.68874,1211.68874,None,None,2,0,0.5534868,0,,,,,,,,,,,,,,,,,,,,,,,,,,,,,,,,,,,,,,,,,,,,,10,18,1,2024-11-04_18h03.39.425,uWM_experiment,2022.2.3,60.00103202
,,,,,,,,,,,,,,,,23,0,23,0,,,,,,,,,,,,,,,,,,,,,,,,,,,,,,,,,,,,,,,,,,,,,,,,,,,,,,,,,,,,,,,,,,,,,,,,,,,,,,0.1,left,1,130,-30,100,2,1218.288993,1218.288993,1218.288993,None,None,2,0,0.513337,0,,,,,,,,,,,,,,,,,,,,,,,,,,,,,,,,,,,,,,,,,,,,,10,18,1,2024-11-04_18h03.39.425,uWM_experiment,2022.2.3,60.00103202
,,,,,,,,,,,,,,,,,,,,,,,,,,,,,,,,,,,,,,,,,,,,,,,,,,,,,,,,,,,,,,,,,,,,,,,,,,,,,,,,,,,,,,,,,,,,,,,,,,,,,,,,,,,,,,,,,1218.822318,1219.822384,space,221.6593149,,,,,,,,,,,,,,,,,,,,,,,,,,,,,,,,,,,,,,,,,10,18,1,2024-11-04_18h03.39.425,uWM_experiment,2022.2.3,60.00103202
,,,,,,,,,,,,,,,,,,,,0,0,0,0,0,0,0,0,,,,,,,,,,,,,,,,,,,,,,,,,,,,,,,,,,,,,,,,,,,,,,,,,,,,,,,,,,,,,,,,,,,,,,0.005,,,,,,,,,,,,,,,,,,,,1441.514795,1442.214846,1442.498196,1443.198207,1443.498224,1444.198254,1444.198254,1444.548272,left,0,70,30,100,1,1449.781815,1449.781815,1449.781815,None,None,4,0,1.4917705,,,,,,,,,,,,,,,,,,,10,18,1,2024-11-04_18h03.39.425,uWM_experiment,2022.2.3,60.00103202
,,,,,,,,,,,,,,,,,,,,0,0,0,0,1,0,1,0,,,,,,,,,,,,,,,,,,,,,,,,,,,,,,,,,,,,,,,,,,,,,,,,,,,,,,,,,,,,,,,,,,,,,,0.005,,,,,,,,,,,,,,,,,,,,,,,,,,,,right,1,40,30,70,1,1458.332164,1458.332164,1458.332164,None,None,2,0,1.3253316,,,,,,,,,,,,,,,,,,,10,18,1,2024-11-04_18h03.39.425,uWM_experiment,2022.2.3,60.00103202
,,,,,,,,,,,,,,,,,,,,0,0,0,0,2,0,2,0,,,,,,,,,,,,,,,,,,,,,,,,,,,,,,,,,,,,,,,,,,,,,,,,,,,,,,,,,,,,,,,,,,,,,,0.005,,,,,,,,,,,,,,,,,,,,,,,,,,,,right,0,70,-30,40,1,1467.432565,1467.432565,1467.432565,None,None,2,0,1.3048742,,,,,,,,,,,,,,,,,,,10,18,1,2024-11-04_18h03.39.425,uWM_experiment,2022.2.3,60.00103202
,,,,,,,,,,,,,,,,,,,,0,0,0,0,3,0,3,0,,,,,,,,,,,,,,,,,,,,,,,,,,,,,,,,,,,,,,,,,,,,,,,,,,,,,,,,,,,,,,,,,,,,,,0.005,,,,,,,,,,,,,,,,,,,,,,,,,,,,left,0,160,30,190,1,1474.549513,1474.549513,1474.549513,None,None,2,0,1.3559459,,,,,,,,,,,,,,,,,,,10,18,1,2024-11-04_18h03.39.425,uWM_experiment,2022.2.3,60.00103202
,,,,,,,,,,,,,,,,,,,,0,0,0,0,4,0,4,0,,,,,,,,,,,,,,,,,,,,,,,,,,,,,,,,,,,,,,,,,,,,,,,,,,,,,,,,,,,,,,,,,,,,,,0,,,,,,,,,,,,,,,,,,,,,,,,,,,,left,0,70,30,100,0,1481.849795,1481.849795,1481.849795,None,None,2,0,0.871571,,,,,,,,,,,,,,,,,,,10,18,1,2024-11-04_18h03.39.425,uWM_experiment,2022.2.3,60.00103202
,,,,,,,,,,,,,,,,,,,,0,0,0,0,5,0,5,0,,,,,,,,,,,,,,,,,,,,,,,,,,,,,,,,,,,,,,,,,,,,,,,,,,,,,,,,,,,,,,,,,,,,,,0.005,,,,,,,,,,,,,,,,,,,,,,,,,,,,left,0,160,30,190,1,1488.500091,1488.500091,1488.500091,None,None,3,0,1.3892431,,,,,,,,,,,,,,,,,,,10,18,1,2024-11-04_18h03.39.425,uWM_experiment,2022.2.3,60.00103202
,,,,,,,,,,,,,,,,,,,,0,0,0,0,6,0,6,0,,,,,,,,,,,,,,,,,,,,,,,,,,,,,,,,,,,,,,,,,,,,,,,,,,,,,,,,,,,,,,,,,,,,,,0.005,,,,,,,,,,,,,,,,,,,,,,,,,,,,left,1,100,-30,70,1,1495.483698,1495.483698,1495.483698,None,None,2,0,1.0696351,,,,,,,,,,,,,,,,,,,10,18,1,2024-11-04_18h03.39.425,uWM_experiment,2022.2.3,60.00103202
,,,,,,,,,,,,,,,,,,,,0,0,0,0,7,0,7,0,,,,,,,,,,,,,,,,,,,,,,,,,,,,,,,,,,,,,,,,,,,,,,,,,,,,,,,,,,,,,,,,,,,,,,0,,,,,,,,,,,,,,,,,,,,,,,,,,,,right,1,10,30,40,0,1502.750652,1502.750652,1502.750652,None,None,3,0,1.2667527,,,,,,,,,,,,,,,,,,,10,18,1,2024-11-04_18h03.39.425,uWM_experiment,2022.2.3,60.00103202
,,,,,,,,,,,,,,,,,,,,0,0,0,0,8,0,8,0,,,,,,,,,,,,,,,,,,,,,,,,,,,,,,,,,,,,,,,,,,,,,,,,,,,,,,,,,,,,,,,,,,,,,,0.005,,,,,,,,,,,,,,,,,,,,,,,,,,,,left,0,130,30,160,1,1510.0843,1510.0843,1510.0843,None,None,2,0,0.573018,,,,,,,,,,,,,,,,,,,10,18,1,2024-11-04_18h03.39.425,uWM_experiment,2022.2.3,60.00103202
,,,,,,,,,,,,,,,,,,,,0,0,0,0,9,0,9,0,,,,,,,,,,,,,,,,,,,,,,,,,,,,,,,,,,,,,,,,,,,,,,,,,,,,,,,,,,,,,,,,,,,,,,0,,,,,,,,,,,,,,,,,,,,,,,,,,,,right,1,10,30,40,0,1516.717889,1516.717889,1516.717889,None,None,2,0,0.9074915,,,,,,,,,,,,,,,,,,,10,18,1,2024-11-04_18h03.39.425,uWM_experiment,2022.2.3,60.00103202
,,,,,,,,,,,,,,,,,,,,0,0,0,0,10,0,10,0,,,,,,,,,,,,,,,,,,,,,,,,,,,,,,,,,,,,,,,,,,,,,,,,,,,,,,,,,,,,,,,,,,,,,,0.005,,,,,,,,,,,,,,,,,,,,,,,,,,,,left,1,10,-30,-20,1,1523.851559,1523.851559,1523.851559,None,None,2,0,1.189723,,,,,,,,,,,,,,,,,,,10,18,1,2024-11-04_18h03.39.425,uWM_experiment,2022.2.3,60.00103202
,,,,,,,,,,,,,,,,,,,,0,0,0,0,11,0,11,0,,,,,,,,,,,,,,,,,,,,,,,,,,,,,,,,,,,,,,,,,,,,,,,,,,,,,,,,,,,,,,,,,,,,,,0.005,,,,,,,,,,,,,,,,,,,,,,,,,,,,right,1,10,30,40,1,1530.885142,1530.885142,1530.885142,None,None,3,0,0.9720263,,,,,,,,,,,,,,,,,,,10,18,1,2024-11-04_18h03.39.425,uWM_experiment,2022.2.3,60.00103202
,,,,,,,,,,,,,,,,,,,,0,0,0,0,12,0,12,0,,,,,,,,,,,,,,,,,,,,,,,,,,,,,,,,,,,,,,,,,,,,,,,,,,,,,,,,,,,,,,,,,,,,,,0.005,,,,,,,,,,,,,,,,,,,,,,,,,,,,right,1,10,30,40,1,1537.852099,1537.852099,1537.852099,None,None,3,0,1.0450563,,,,,,,,,,,,,,,,,,,10,18,1,2024-11-04_18h03.39.425,uWM_experiment,2022.2.3,60.00103202
,,,,,,,,,,,,,,,,,,,,0,0,0,0,13,0,13,0,,,,,,,,,,,,,,,,,,,,,,,,,,,,,,,,,,,,,,,,,,,,,,,,,,,,,,,,,,,,,,,,,,,,,,0.005,,,,,,,,,,,,,,,,,,,,,,,,,,,,left,1,130,-30,100,1,1544.685711,1544.685711,1544.685711,None,None,2,0,0.6274743,,,,,,,,,,,,,,,,,,,10,18,1,2024-11-04_18h03.39.425,uWM_experiment,2022.2.3,60.00103202
,,,,,,,,,,,,,,,,,,,,0,0,0,0,14,0,14,0,,,,,,,,,,,,,,,,,,,,,,,,,,,,,,,,,,,,,,,,,,,,,,,,,,,,,,,,,,,,,,,,,,,,,,0.005,,,,,,,,,,,,,,,,,,,,,,,,,,,,right,1,10,30,40,1,1551.202652,1551.202652,1551.202652,None,None,2,0,0.7105599,,,,,,,,,,,,,,,,,,,10,18,1,2024-11-04_18h03.39.425,uWM_experiment,2022.2.3,60.00103202
,,,,,,,,,,,,,,,,,,,,0,0,0,0,15,0,15,0,,,,,,,,,,,,,,,,,,,,,,,,,,,,,,,,,,,,,,,,,,,,,,,,,,,,,,,,,,,,,,,,,,,,,,0.1,,,,,,,,,,,,,,,,,,,,,,,,,,,,right,1,40,30,70,2,1558.852982,1558.852982,1558.852982,None,None,2,0,0.6681433,,,,,,,,,,,,,,,,,,,10,18,1,2024-11-04_18h03.39.425,uWM_experiment,2022.2.3,60.00103202
,,,,,,,,,,,,,,,,,,,,0,0,0,0,16,0,16,0,,,,,,,,,,,,,,,,,,,,,,,,,,,,,,,,,,,,,,,,,,,,,,,,,,,,,,,,,,,,,,,,,,,,,,0.005,,,,,,,,,,,,,,,,,,,,,,,,,,,,left,1,40,-30,10,1,1565.28657,1565.28657,1565.28657,None,None,2,0,0.922607,,,,,,,,,,,,,,,,,,,10,18,1,2024-11-04_18h03.39.425,uWM_experiment,2022.2.3,60.00103202
,,,,,,,,,,,,,,,,,,,,0,0,0,0,17,0,17,0,,,,,,,,,,,,,,,,,,,,,,,,,,,,,,,,,,,,,,,,,,,,,,,,,,,,,,,,,,,,,,,,,,,,,,0.005,,,,,,,,,,,,,,,,,,,,,,,,,,,,left,1,160,-30,130,1,1571.886813,1571.886813,1571.886813,None,None,3,0,1.5062741,,,,,,,,,,,,,,,,,,,10,18,1,2024-11-04_18h03.39.425,uWM_experiment,2022.2.3,60.00103202
,,,,,,,,,,,,,,,,,,,,0,0,0,0,18,0,18,0,,,,,,,,,,,,,,,,,,,,,,,,,,,,,,,,,,,,,,,,,,,,,,,,,,,,,,,,,,,,,,,,,,,,,,0.005,,,,,,,,,,,,,,,,,,,,,,,,,,,,left,0,40,30,70,1,1578.937129,1578.937129,1578.937129,None,None,2,0,0.6879235,,,,,,,,,,,,,,,,,,,10,18,1,2024-11-04_18h03.39.425,uWM_experiment,2022.2.3,60.00103202
,,,,,,,,,,,,,,,,,,,,0,0,0,0,19,0,19,0,,,,,,,,,,,,,,,,,,,,,,,,,,,,,,,,,,,,,,,,,,,,,,,,,,,,,,,,,,,,,,,,,,,,,,0.005,,,,,,,,,,,,,,,,,,,,,,,,,,,,left,1,100,-30,70,1,1585.220701,1585.220701,1585.220701,None,None,2,0,0.5644283,,,,,,,,,,,,,,,,,,,10,18,1,2024-11-04_18h03.39.425,uWM_experiment,2022.2.3,60.00103202
,,,,,,,,,,,,,,,,,,,,0,0,0,0,20,0,20,0,,,,,,,,,,,,,,,,,,,,,,,,,,,,,,,,,,,,,,,,,,,,,,,,,,,,,,,,,,,,,,,,,,,,,,0.005,,,,,,,,,,,,,,,,,,,,,,,,,,,,left,0,70,30,100,1,1591.187632,1591.187632,1591.187632,None,None,2,0,0.5338857,,,,,,,,,,,,,,,,,,,10,18,1,2024-11-04_18h03.39.425,uWM_experiment,2022.2.3,60.00103202
,,,,,,,,,,,,,,,,,,,,0,0,0,0,21,0,21,0,,,,,,,,,,,,,,,,,,,,,,,,,,,,,,,,,,,,,,,,,,,,,,,,,,,,,,,,,,,,,,,,,,,,,,0.005,,,,,,,,,,,,,,,,,,,,,,,,,,,,left,0,160,30,190,1,1597.271241,1597.271241,1597.271241,None,None,3,0,1.4340182,,,,,,,,,,,,,,,,,,,10,18,1,2024-11-04_18h03.39.425,uWM_experiment,2022.2.3,60.00103202
,,,,,,,,,,,,,,,,,,,,0,0,0,0,22,0,22,0,,,,,,,,,,,,,,,,,,,,,,,,,,,,,,,,,,,,,,,,,,,,,,,,,,,,,,,,,,,,,,,,,,,,,,0.005,,,,,,,,,,,,,,,,,,,,,,,,,,,,left,1,70,-30,40,1,1604.321485,1604.321485,1604.321485,None,None,3,0,1.1755481,,,,,,,,,,,,,,,,,,,10,18,1,2024-11-04_18h03.39.425,uWM_experiment,2022.2.3,60.00103202
,,,,,,,,,,,,,,,,,,,,0,0,0,0,23,0,23,0,,,,,,,,,,,,,,,,,,,,,,,,,,,,,,,,,,,,,,,,,,,,,,,,,,,,,,,,,,,,,,,,,,,,,,0,,,,,,,,,,,,,,,,,,,,,,,,,,,,left,1,160,-30,130,0,1611.155091,1611.155091,1611.155091,None,None,3,0,1.22993,,,,,,,,,,,,,,,,,,,10,18,1,2024-11-04_18h03.39.425,uWM_experiment,2022.2.3,60.00103202
,,,,,,,,,,,,,,,,,,,,0,0,0,0,,,,,0,0,0,0,,,,,,,,,,,,,,,,,,,,,,,,,,,,,,,,,,,,,,,,,,,,,,,,,,,,,,,,,,,,,,,,,,,,,,,,,,,,,,,,,,,,,,,,,,,,,,,,,,,,,,,,,,,,1612.405149,1612.405149,space,40.123698,None,None,,,,,,,,,,,,,10,18,1,2024-11-04_18h03.39.425,uWM_experiment,2022.2.3,60.00103202
,,,,,,,,,,,,,,,,,,,,0,0,0,0,,,,,1,0,1,0,,,,,,,,,,,,,,,,,,,,,,,,,,,,,,,,,,,,,,,,,,,,,,,,,,,,,,,,,,,,,,,,,,,,,,,,,,,,,,,,,,,,,,,,,,,,,,,,,,,,,,,,,,,,,,,,,,,,,,,,,,,,,,10,18,1,2024-11-04_18h03.39.425,uWM_experiment,2022.2.3,60.00103202
,,,,,,,,,,,,,,,,,,,,0,0,0,0,,,,,2,0,2,0,,,,,,,,,,,,,,,,,,,,,,,,,,,,,,,,,,,,,,,,,,,,,,,,,,,,,,,,,,,,,,,,,,,,,,,,,,,,,,,,,,,,,,,,,,,,,,,,,,,,,,,,,,,,,,,,,,,,,,,,,,,,,,10,18,1,2024-11-04_18h03.39.425,uWM_experiment,2022.2.3,60.00103202
,,,,,,,,,,,,,,,,,,,,1,0,1,0,0,0,0,0,,,,,,,,,,,,,,,,,,,,,,,,,,,,,,,,,,,,,,,,,,,,,,,,,,,,,,,,,,,,,,,,,,,,,,0,,,,,,,,,,,,,,,,,,,,1652.55679,1653.256839,1653.556834,1654.256843,1654.556867,1655.256902,1655.256902,1655.573585,left,0,40,30,70,0,1660.507115,1660.507115,1660.507115,None,None,4,0,1.9657911,,,,,,,None,,,,,,,,,,,,10,18,1,2024-11-04_18h03.39.425,uWM_experiment,2022.2.3,60.00103202
,,,,,,,,,,,,,,,,,,,,1,0,1,0,1,0,1,0,,,,,,,,,,,,,,,,,,,,,,,,,,,,,,,,,,,,,,,,,,,,,,,,,,,,,,,,,,,,,,,,,,,,,,0.1,,,,,,,,,,,,,,,,,,,,,,,,,,,,right,0,40,-30,10,2,1670.707544,1670.707544,1670.707544,None,None,4,0,3.0372315,,,,,,,,,,,,,,,,,,,10,18,1,2024-11-04_18h03.39.425,uWM_experiment,2022.2.3,60.00103202
,,,,,,,,,,,,,,,,,,,,1,0,1,0,2,0,2,0,,,,,,,,,,,,,,,,,,,,,,,,,,,,,,,,,,,,,,,,,,,,,,,,,,,,,,,,,,,,,,,,,,,,,,0.005,,,,,,,,,,,,,,,,,,,,,,,,,,,,right,0,100,-30,70,1,1679.641247,1679.641247,1679.641247,None,None,4,0,2.471421,,,,,,,,,,,,,,,,,,,10,18,1,2024-11-04_18h03.39.425,uWM_experiment,2022.2.3,60.00103202
,,,,,,,,,,,,,,,,,,,,1,0,1,0,3,0,3,0,,,,,,,,,,,,,,,,,,,,,,,,,,,,,,,,,,,,,,,,,,,,,,,,,,,,,,,,,,,,,,,,,,,,,,0,,,,,,,,,,,,,,,,,,,,,,,,,,,,right,0,40,-30,10,0,1687.908264,1687.908264,1687.908264,None,None,4,0,0.7485169,,,,,,,,,,,,,,,,,,,10,18,1,2024-11-04_18h03.39.425,uWM_experiment,2022.2.3,60.00103202
,,,,,,,,,,,,,,,,,,,,1,0,1,0,4,0,4,0,,,,,,,,,,,,,,,,,,,,,,,,,,,,,,,,,,,,,,,,,,,,,,,,,,,,,,,,,,,,,,,,,,,,,,0.005,,,,,,,,,,,,,,,,,,,,,,,,,,,,left,0,100,30,130,1,1694.47518,1694.47518,1694.47518,None,None,4,0,1.4694988,,,,,,,,,,,,,,,,,,,10,18,1,2024-11-04_18h03.39.425,uWM_experiment,2022.2.3,60.00103202
,,,,,,,,,,,,,,,,,,,,1,0,1,0,5,0,5,0,,,,,,,,,,,,,,,,,,,,,,,,,,,,,,,,,,,,,,,,,,,,,,,,,,,,,,,,,,,,,,,,,,,,,,0.005,,,,,,,,,,,,,,,,,,,,,,,,,,,,left,0,70,30,100,1,1701.792161,1701.792161,1701.792161,None,None,4,0,1.1605735,,,,,,,,,,,,,,,,,,,10,18,1,2024-11-04_18h03.39.425,uWM_experiment,2022.2.3,60.00103202
,,,,,,,,,,,,,,,,,,,,1,0,1,0,6,0,6,0,,,,,,,,,,,,,,,,,,,,,,,,,,,,,,,,,,,,,,,,,,,,,,,,,,,,,,,,,,,,,,,,,,,,,,0.005,,,,,,,,,,,,,,,,,,,,,,,,,,,,right,1,10,30,40,1,1708.825765,1708.825765,1708.825765,None,None,4,0,1.0229548,,,,,,,,,,,,,,,,,,,10,18,1,2024-11-04_18h03.39.425,uWM_experiment,2022.2.3,60.00103202
,,,,,,,,,,,,,,,,,,,,1,0,1,0,7,0,7,0,,,,,,,,,,,,,,,,,,,,,,,,,,,,,,,,,,,,,,,,,,,,,,,,,,,,,,,,,,,,,,,,,,,,,,0.005,,,,,,,,,,,,,,,,,,,,,,,,,,,,right,1,40,30,70,1,1715.559436,1715.559436,1715.559436,None,None,4,0,0.6732712,,,,,,,,,,,,,,,,,,,10,18,1,2024-11-04_18h03.39.425,uWM_experiment,2022.2.3,60.00103202
,,,,,,,,,,,,,,,,,,,,1,0,1,0,8,0,8,0,,,,,,,,,,,,,,,,,,,,,,,,,,,,,,,,,,,,,,,,,,,,,,,,,,,,,,,,,,,,,,,,,,,,,,0.005,,,,,,,,,,,,,,,,,,,,,,,,,,,,left,1,160,-30,130,1,1722.042997,1722.042997,1722.042997,None,None,2,0,0.5896297,,,,,,,,,,,,,,,,,,,10,18,1,2024-11-04_18h03.39.425,uWM_experiment,2022.2.3,60.00103202
,,,,,,,,,,,,,,,,,,,,1,0,1,0,9,0,9,0,,,,,,,,,,,,,,,,,,,,,,,,,,,,,,,,,,,,,,,,,,,,,,,,,,,,,,,,,,,,,,,,,,,,,,0.005,,,,,,,,,,,,,,,,,,,,,,,,,,,,left,1,130,-30,100,1,1728.476576,1728.476576,1728.476576,None,None,2,0,1.2359614,,,,,,,,,,,,,,,,,,,10,18,1,2024-11-04_18h03.39.425,uWM_experiment,2022.2.3,60.00103202
,,,,,,,,,,,,,,,,,,,,1,0,1,0,10,0,10,0,,,,,,,,,,,,,,,,,,,,,,,,,,,,,,,,,,,,,,,,,,,,,,,,,,,,,,,,,,,,,,,,,,,,,,0,,,,,,,,,,,,,,,,,,,,,,,,,,,,right,0,40,-30,10,0,1735.476866,1735.476866,1735.476866,None,None,2,0,1.3477558,,,,,,,,,,,,,,,,,,,10,18,1,2024-11-04_18h03.39.425,uWM_experiment,2022.2.3,60.00103202
,,,,,,,,,,,,,,,,,,,,1,0,1,0,11,0,11,0,,,,,,,,,,,,,,,,,,,,,,,,,,,,,,,,,,,,,,,,,,,,,,,,,,,,,,,,,,,,,,,,,,,,,,0.005,,,,,,,,,,,,,,,,,,,,,,,,,,,,right,0,100,-30,70,1,1742.493846,1742.493846,1742.493846,None,None,4,0,0.7947306,,,,,,,,,,,,,,,,,,,10,18,1,2024-11-04_18h03.39.425,uWM_experiment,2022.2.3,60.00103202
,,,,,,,,,,,,,,,,,,,,1,0,1,0,12,0,12,0,,,,,,,,,,,,,,,,,,,,,,,,,,,,,,,,,,,,,,,,,,,,,,,,,,,,,,,,,,,,,,,,,,,,,,0.005,,,,,,,,,,,,,,,,,,,,,,,,,,,,right,1,40,30,70,1,1748.994127,1748.994127,1748.994127,None,None,4,0,0.702404,,,,,,,,,,,,,,,,,,,10,18,1,2024-11-04_18h03.39.425,uWM_experiment,2022.2.3,60.00103202
,,,,,,,,,,,,,,,,,,,,1,0,1,0,13,0,13,0,,,,,,,,,,,,,,,,,,,,,,,,,,,,,,,,,,,,,,,,,,,,,,,,,,,,,,,,,,,,,,,,,,,,,,0,,,,,,,,,,,,,,,,,,,,,,,,,,,,right,0,100,-30,70,0,1755.311004,1755.311004,1755.311004,None,None,4,0,0.6575691,,,,,,,,,,,,,,,,,,,10,18,1,2024-11-04_18h03.39.425,uWM_experiment,2022.2.3,60.00103202
,,,,,,,,,,,,,,,,,,,,1,0,1,0,14,0,14,0,,,,,,,,,,,,,,,,,,,,,,,,,,,,,,,,,,,,,,,,,,,,,,,,,,,,,,,,,,,,,,,,,,,,,,0,,,,,,,,,,,,,,,,,,,,,,,,,,,,right,0,100,-30,70,0,1761.627959,1761.627959,1761.627959,None,None,4,0,0.6926177,,,,,,,,,,,,,,,,,,,10,18,1,2024-11-04_18h03.39.425,uWM_experiment,2022.2.3,60.00103202
,,,,,,,,,,,,,,,,,,,,1,0,1,0,15,0,15,0,,,,,,,,,,,,,,,,,,,,,,,,,,,,,,,,,,,,,,,,,,,,,,,,,,,,,,,,,,,,,,,,,,,,,,0,,,,,,,,,,,,,,,,,,,,,,,,,,,,right,0,40,-30,10,0,1768.361567,1768.361567,1768.361567,None,None,2,0,0.7269477,,,,,,,,,,,,,,,,,,,10,18,1,2024-11-04_18h03.39.425,uWM_experiment,2022.2.3,60.00103202
,,,,,,,,,,,,,,,,,,,,1,0,1,0,16,0,16,0,,,,,,,,,,,,,,,,,,,,,,,,,,,,,,,,,,,,,,,,,,,,,,,,,,,,,,,,,,,,,,,,,,,,,,0,,,,,,,,,,,,,,,,,,,,,,,,,,,,right,0,70,-30,40,0,1774.828477,1774.828477,1774.828477,None,None,2,0,0.7079794,,,,,,,,,,,,,,,,,,,10,18,1,2024-11-04_18h03.39.425,uWM_experiment,2022.2.3,60.00103202
,,,,,,,,,,,,,,,,,,,,1,0,1,0,17,0,17,0,,,,,,,,,,,,,,,,,,,,,,,,,,,,,,,,,,,,,,,,,,,,,,,,,,,,,,,,,,,,,,,,,,,,,,0,,,,,,,,,,,,,,,,,,,,,,,,,,,,left,1,10,-30,-20,0,1782.112125,1782.112125,1782.112125,None,None,2,0,0.7522593,,,,,,,,,,,,,,,,,,,10,18,1,2024-11-04_18h03.39.425,uWM_experiment,2022.2.3,60.00103202
,,,,,,,,,,,,,,,,,,,,1,0,1,0,18,0,18,0,,,,,,,,,,,,,,,,,,,,,,,,,,,,,,,,,,,,,,,,,,,,,,,,,,,,,,,,,,,,,,,,,,,,,,0,,,,,,,,,,,,,,,,,,,,,,,,,,,,right,0,100,-30,70,0,1788.84578,1788.84578,1788.84578,None,None,2,0,0.506702,,,,,,,,,,,,,,,,,,,10,18,1,2024-11-04_18h03.39.425,uWM_experiment,2022.2.3,60.00103202
,,,,,,,,,,,,,,,,,,,,1,0,1,0,19,0,19,0,,,,,,,,,,,,,,,,,,,,,,,,,,,,,,,,,,,,,,,,,,,,,,,,,,,,,,,,,,,,,,,,,,,,,,0,,,,,,,,,,,,,,,,,,,,,,,,,,,,right,0,100,-30,70,0,1795.62933,1795.62933,1795.62933,None,None,4,0,0.7391661,,,,,,,,,,,,,,,,,,,10,18,1,2024-11-04_18h03.39.425,uWM_experiment,2022.2.3,60.00103202
,,,,,,,,,,,,,,,,,,,,1,0,1,0,20,0,20,0,,,,,,,,,,,,,,,,,,,,,,,,,,,,,,,,,,,,,,,,,,,,,,,,,,,,,,,,,,,,,,,,,,,,,,0,,,,,,,,,,,,,,,,,,,,,,,,,,,,right,1,70,30,100,0,1801.946285,1801.946285,1801.946285,None,None,4,0,0.4463219,,,,,,,,,,,,,,,,,,,10,18,1,2024-11-04_18h03.39.425,uWM_experiment,2022.2.3,60.00103202
,,,,,,,,,,,,,,,,,,,,1,0,1,0,21,0,21,0,,,,,,,,,,,,,,,,,,,,,,,,,,,,,,,,,,,,,,,,,,,,,,,,,,,,,,,,,,,,,,,,,,,,,,0,,,,,,,,,,,,,,,,,,,,,,,,,,,,right,0,130,-30,100,0,1807.979863,1807.979863,1807.979863,None,None,4,0,0.4925281,,,,,,,,,,,,,,,,,,,10,18,1,2024-11-04_18h03.39.425,uWM_experiment,2022.2.3,60.00103202
,,,,,,,,,,,,,,,,,,,,1,0,1,0,22,0,22,0,,,,,,,,,,,,,,,,,,,,,,,,,,,,,,,,,,,,,,,,,,,,,,,,,,,,,,,,,,,,,,,,,,,,,,0.005,,,,,,,,,,,,,,,,,,,,,,,,,,,,left,1,160,-30,130,1,1814.146738,1814.146738,1814.146738,None,None,4,0,0.5336755,,,,,,,,,,,,,,,,,,,10,18,1,2024-11-04_18h03.39.425,uWM_experiment,2022.2.3,60.00103202
,,,,,,,,,,,,,,,,,,,,1,0,1,0,23,0,23,0,,,,,,,,,,,,,,,,,,,,,,,,,,,,,,,,,,,,,,,,,,,,,,,,,,,,,,,,,,,,,,,,,,,,,,0.005,,,,,,,,,,,,,,,,,,,,,,,,,,,,left,1,160,-30,130,1,1820.547061,1820.547061,1820.547061,None,None,4,0,0.5733183,,,,,,,,,,,,,,,,,,,10,18,1,2024-11-04_18h03.39.425,uWM_experiment,2022.2.3,60.00103202
,,,,,,,,,,,,,,,,,,,,1,0,1,0,,,,,0,0,0,0,,,,,,,,,,,,,,,,,,,,,,,,,,,,,,,,,,,,,,,,,,,,,,,,,,,,,,,,,,,,,,,,,,,,,,,,,,,,,,,,,,,,,,,,,,,,,,,,,,,,,,,,,,,,1821.147066,1821.147066,space,25.661173,None,None,,,,,,,,,,,,,10,18,1,2024-11-04_18h03.39.425,uWM_experiment,2022.2.3,60.00103202
,,,,,,,,,,,,,,,,,,,,1,0,1,0,,,,,1,0,1,0,,,,,,,,,,,,,,,,,,,,,,,,,,,,,,,,,,,,,,,,,,,,,,,,,,,,,,,,,,,,,,,,,,,,,,,,,,,,,,,,,,,,,,,,,,,,,,,,,,,,,,,,,,,,,,,,,,,,,,,,,,,,,,10,18,1,2024-11-04_18h03.39.425,uWM_experiment,2022.2.3,60.00103202
,,,,,,,,,,,,,,,,,,,,1,0,1,0,,,,,2,0,2,0,,,,,,,,,,,,,,,,,,,,,,,,,,,,,,,,,,,,,,,,,,,,,,,,,,,,,,,,,,,,,,,,,,,,,,,,,,,,,,,,,,,,,,,,,,,,,,,,,,,,,,,,,,,,,,,,,,,,,,,,,,,,,,10,18,1,2024-11-04_18h03.39.425,uWM_experiment,2022.2.3,60.00103202
,,,,,,,,,,,,,,,,,,,,2,0,2,0,0,0,0,0,,,,,,,,,,,,,,,,,,,,,,,,,,,,,,,,,,,,,,,,,,,,,,,,,,,,,,,,,,,,,,,,,,,,,,0.005,,,,,,,,,,,,,,,,,,,,1846.831428,1847.531452,1847.831465,1848.531494,1848.831503,1849.531533,1849.531533,1849.848219,left,0,70,30,100,1,1854.748411,1854.748411,1854.748411,None,None,4,0,0.659799,,,,,,,None,,,,,,,,,,,,10,18,1,2024-11-04_18h03.39.425,uWM_experiment,2022.2.3,60.00103202
,,,,,,,,,,,,,,,,,,,,2,0,2,0,1,0,1,0,,,,,,,,,,,,,,,,,,,,,,,,,,,,,,,,,,,,,,,,,,,,,,,,,,,,,,,,,,,,,,,,,,,,,,0.005,,,,,,,,,,,,,,,,,,,,,,,,,,,,left,0,40,30,70,1,1861.132003,1861.132003,1861.132003,None,None,4,0,0.572142,,,,,,,,,,,,,,,,,,,10,18,1,2024-11-04_18h03.39.425,uWM_experiment,2022.2.3,60.00103202
,,,,,,,,,,,,,,,,,,,,2,0,2,0,2,0,2,0,,,,,,,,,,,,,,,,,,,,,,,,,,,,,,,,,,,,,,,,,,,,,,,,,,,,,,,,,,,,,,,,,,,,,,0.005,,,,,,,,,,,,,,,,,,,,,,,,,,,,right,0,100,-30,70,1,1867.382267,1867.382267,1867.382267,None,None,4,0,0.4738628,,,,,,,,,,,,,,,,,,,10,18,1,2024-11-04_18h03.39.425,uWM_experiment,2022.2.3,60.00103202
,,,,,,,,,,,,,,,,,,,,2,0,2,0,3,0,3,0,,,,,,,,,,,,,,,,,,,,,,,,,,,,,,,,,,,,,,,,,,,,,,,,,,,,,,,,,,,,,,,,,,,,,,0.005,,,,,,,,,,,,,,,,,,,,,,,,,,,,right,0,70,-30,40,1,1873.599197,1873.599197,1873.599197,None,None,4,0,0.4089876,,,,,,,,,,,,,,,,,,,10,18,1,2024-11-04_18h03.39.425,uWM_experiment,2022.2.3,60.00103202
,,,,,,,,,,,,,,,,,,,,2,0,2,0,4,0,4,0,,,,,,,,,,,,,,,,,,,,,,,,,,,,,,,,,,,,,,,,,,,,,,,,,,,,,,,,,,,,,,,,,,,,,,0.005,,,,,,,,,,,,,,,,,,,,,,,,,,,,right,1,10,30,40,1,1879.599447,1879.599447,1879.599447,None,None,4,0,0.328673,,,,,,,,,,,,,,,,,,,10,18,1,2024-11-04_18h03.39.425,uWM_experiment,2022.2.3,60.00103202
,,,,,,,,,,,,,,,,,,,,2,0,2,0,5,0,5,0,,,,,,,,,,,,,,,,,,,,,,,,,,,,,,,,,,,,,,,,,,,,,,,,,,,,,,,,,,,,,,,,,,,,,,0,,,,,,,,,,,,,,,,,,,,,,,,,,,,right,0,130,-30,100,0,1885.466363,1885.466363,1885.466363,None,None,4,0,0.2856923,,,,,,,,,,,,,,,,,,,10,18,1,2024-11-04_18h03.39.425,uWM_experiment,2022.2.3,60.00103202
,,,,,,,,,,,,,,,,,,,,2,0,2,0,6,0,6,0,,,,,,,,,,,,,,,,,,,,,,,,,,,,,,,,,,,,,,,,,,,,,,,,,,,,,,,,,,,,,,,,,,,,,,0.005,,,,,,,,,,,,,,,,,,,,,,,,,,,,left,1,10,-30,-20,1,1892.016631,1892.016631,1892.016631,None,None,4,0,0.4554319,,,,,,,,,,,,,,,,,,,10,18,1,2024-11-04_18h03.39.425,uWM_experiment,2022.2.3,60.00103202
,,,,,,,,,,,,,,,,,,,,2,0,2,0,7,0,7,0,,,,,,,,,,,,,,,,,,,,,,,,,,,,,,,,,,,,,,,,,,,,,,,,,,,,,,,,,,,,,,,,,,,,,,0.005,,,,,,,,,,,,,,,,,,,,,,,,,,,,right,0,70,-30,40,1,1898.516892,1898.516892,1898.516892,None,None,4,0,0.3311432,,,,,,,,,,,,,,,,,,,10,18,1,2024-11-04_18h03.39.425,uWM_experiment,2022.2.3,60.00103202
,,,,,,,,,,,,,,,,,,,,2,0,2,0,8,0,8,0,,,,,,,,,,,,,,,,,,,,,,,,,,,,,,,,,,,,,,,,,,,,,,,,,,,,,,,,,,,,,,,,,,,,,,0.005,,,,,,,,,,,,,,,,,,,,,,,,,,,,left,1,10,-30,-20,1,1904.317144,1904.317144,1904.317144,None,None,4,0,0.3309237,,,,,,,,,,,,,,,,,,,10,18,1,2024-11-04_18h03.39.425,uWM_experiment,2022.2.3,60.00103202
,,,,,,,,,,,,,,,,,,,,2,0,2,0,9,0,9,0,,,,,,,,,,,,,,,,,,,,,,,,,,,,,,,,,,,,,,,,,,,,,,,,,,,,,,,,,,,,,,,,,,,,,,0.005,,,,,,,,,,,,,,,,,,,,,,,,,,,,right,1,160,30,190,1,1910.650707,1910.650707,1910.650707,None,None,4,0,0.3093293,,,,,,,,,,,,,,,,,,,10,18,1,2024-11-04_18h03.39.425,uWM_experiment,2022.2.3,60.00103202
,,,,,,,,,,,,,,,,,,,,2,0,2,0,10,0,10,0,,,,,,,,,,,,,,,,,,,,,,,,,,,,,,,,,,,,,,,,,,,,,,,,,,,,,,,,,,,,,,,,,,,,,,0.005,,,,,,,,,,,,,,,,,,,,,,,,,,,,left,0,70,30,100,1,1916.967627,1916.967627,1916.967627,None,None,4,0,0.4724343,,,,,,,,,,,,,,,,,,,10,18,1,2024-11-04_18h03.39.425,uWM_experiment,2022.2.3,60.00103202
,,,,,,,,,,,,,,,,,,,,2,0,2,0,11,0,11,0,,,,,,,,,,,,,,,,,,,,,,,,,,,,,,,,,,,,,,,,,,,,,,,,,,,,,,,,,,,,,,,,,,,,,,0.005,,,,,,,,,,,,,,,,,,,,,,,,,,,,right,0,40,-30,10,1,1923.384579,1923.384579,1923.384579,None,None,4,0,0.3115019,,,,,,,,,,,,,,,,,,,10,18,1,2024-11-04_18h03.39.425,uWM_experiment,2022.2.3,60.00103202
,,,,,,,,,,,,,,,,,,,,2,0,2,0,12,0,12,0,,,,,,,,,,,,,,,,,,,,,,,,,,,,,,,,,,,,,,,,,,,,,,,,,,,,,,,,,,,,,,,,,,,,,,0.005,,,,,,,,,,,,,,,,,,,,,,,,,,,,left,1,130,-30,100,1,1929.718152,1929.718152,1929.718152,None,None,4,0,0.3057828,,,,,,,,,,,,,,,,,,,10,18,1,2024-11-04_18h03.39.425,uWM_experiment,2022.2.3,60.00103202
,,,,,,,,,,,,,,,,,,,,2,0,2,0,13,0,13,0,,,,,,,,,,,,,,,,,,,,,,,,,,,,,,,,,,,,,,,,,,,,,,,,,,,,,,,,,,,,,,,,,,,,,,0,,,,,,,,,,,,,,,,,,,,,,,,,,,,left,0,70,30,100,0,1935.535074,1935.535074,1935.535074,None,None,4,0,0.3048545,,,,,,,,,,,,,,,,,,,10,18,1,2024-11-04_18h03.39.425,uWM_experiment,2022.2.3,60.00103202
,,,,,,,,,,,,,,,,,,,,2,0,2,0,14,0,14,0,,,,,,,,,,,,,,,,,,,,,,,,,,,,,,,,,,,,,,,,,,,,,,,,,,,,,,,,,,,,,,,,,,,,,,0.005,,,,,,,,,,,,,,,,,,,,,,,,,,,,right,1,10,30,40,1,1941.585326,1941.585326,1941.585326,None,None,4,0,0.4226159,,,,,,,,,,,,,,,,,,,10,18,1,2024-11-04_18h03.39.425,uWM_experiment,2022.2.3,60.00103202
,,,,,,,,,,,,,,,,,,,,2,0,2,0,15,0,15,0,,,,,,,,,,,,,,,,,,,,,,,,,,,,,,,,,,,,,,,,,,,,,,,,,,,,,,,,,,,,,,,,,,,,,,0.005,,,,,,,,,,,,,,,,,,,,,,,,,,,,left,1,10,-30,-20,1,1947.935581,1947.935581,1947.935581,None,None,4,0,0.3603783,,,,,,,,,,,,,,,,,,,10,18,1,2024-11-04_18h03.39.425,uWM_experiment,2022.2.3,60.00103202
,,,,,,,,,,,,,,,,,,,,2,0,2,0,16,0,16,0,,,,,,,,,,,,,,,,,,,,,,,,,,,,,,,,,,,,,,,,,,,,,,,,,,,,,,,,,,,,,,,,,,,,,,0.005,,,,,,,,,,,,,,,,,,,,,,,,,,,,left,1,160,-30,130,1,1953.835809,1953.835809,1953.835809,None,None,4,0,0.5641551,,,,,,,,,,,,,,,,,,,10,18,1,2024-11-04_18h03.39.425,uWM_experiment,2022.2.3,60.00103202
,,,,,,,,,,,,,,,,,,,,2,0,2,0,17,0,17,0,,,,,,,,,,,,,,,,,,,,,,,,,,,,,,,,,,,,,,,,,,,,,,,,,,,,,,,,,,,,,,,,,,,,,,0.005,,,,,,,,,,,,,,,,,,,,,,,,,,,,left,0,40,30,70,1,1960.002768,1960.002768,1960.002768,None,None,4,0,0.5091982,,,,,,,,,,,,,,,,,,,10,18,1,2024-11-04_18h03.39.425,uWM_experiment,2022.2.3,60.00103202
,,,,,,,,,,,,,,,,,,,,2,0,2,0,18,0,18,0,,,,,,,,,,,,,,,,,,,,,,,,,,,,,,,,,,,,,,,,,,,,,,,,,,,,,,,,,,,,,,,,,,,,,,0,,,,,,,,,,,,,,,,,,,,,,,,,,,,left,0,130,30,160,0,1966.619664,1966.619664,1966.619664,None,None,4,0,0.46026,,,,,,,,,,,,,,,,,,,10,18,1,2024-11-04_18h03.39.425,uWM_experiment,2022.2.3,60.00103202
,,,,,,,,,,,,,,,,,,,,2,0,2,0,19,0,19,0,,,,,,,,,,,,,,,,,,,,,,,,,,,,,,,,,,,,,,,,,,,,,,,,,,,,,,,,,,,,,,,,,,,,,,0.005,,,,,,,,,,,,,,,,,,,,,,,,,,,,left,0,100,30,130,1,1972.903258,1972.903258,1972.903258,None,None,4,0,0.7126153,,,,,,,,,,,,,,,,,,,10,18,1,2024-11-04_18h03.39.425,uWM_experiment,2022.2.3,60.00103202
,,,,,,,,,,,,,,,,,,,,2,0,2,0,20,0,20,0,,,,,,,,,,,,,,,,,,,,,,,,,,,,,,,,,,,,,,,,,,,,,,,,,,,,,,,,,,,,,,,,,,,,,,0.005,,,,,,,,,,,,,,,,,,,,,,,,,,,,left,1,130,-30,100,1,1979.303521,1979.303521,1979.303521,None,None,4,0,0.7842186,,,,,,,,,,,,,,,,,,,10,18,1,2024-11-04_18h03.39.425,uWM_experiment,2022.2.3,60.00103202
,,,,,,,,,,,,,,,,,,,,2,0,2,0,21,0,21,0,,,,,,,,,,,,,,,,,,,,,,,,,,,,,,,,,,,,,,,,,,,,,,,,,,,,,,,,,,,,,,,,,,,,,,0.005,,,,,,,,,,,,,,,,,,,,,,,,,,,,right,1,10,30,40,1,1985.837119,1985.837119,1985.837119,None,None,4,0,0.562715,,,,,,,,,,,,,,,,,,,10,18,1,2024-11-04_18h03.39.425,uWM_experiment,2022.2.3,60.00103202
,,,,,,,,,,,,,,,,,,,,2,0,2,0,22,0,22,0,,,,,,,,,,,,,,,,,,,,,,,,,,,,,,,,,,,,,,,,,,,,,,,,,,,,,,,,,,,,,,,,,,,,,,0.1,,,,,,,,,,,,,,,,,,,,,,,,,,,,right,1,160,30,190,2,1992.737412,1992.737412,1992.737412,None,None,4,0,0.7503555,,,,,,,,,,,,,,,,,,,10,18,1,2024-11-04_18h03.39.425,uWM_experiment,2022.2.3,60.00103202
,,,,,,,,,,,,,,,,,,,,2,0,2,0,23,0,23,0,,,,,,,,,,,,,,,,,,,,,,,,,,,,,,,,,,,,,,,,,,,,,,,,,,,,,,,,,,,,,,,,,,,,,,0.005,,,,,,,,,,,,,,,,,,,,,,,,,,,,left,1,160,-30,130,1,1999.604346,1999.604346,1999.604346,None,None,4,0,0.587344,,,,,,,,,,,,,,,,,,,10,18,1,2024-11-04_18h03.39.425,uWM_experiment,2022.2.3,60.00103202
,,,,,,,,,,,,,,,,,,,,2,0,2,0,,,,,0,0,0,0,,,,,,,,,,,,,,,,,,,,,,,,,,,,,,,,,,,,,,,,,,,,,,,,,,,,,,,,,,,,,,,,,,,,,,,,,,,,,,,,,,,,,,,,,,,,,,,,,,,,,,,,,,,,2000.221012,2000.221012,space,20.4746624,space,None,,2020.721878,2020.721878,2.5578507,,,,,,,,,10,18,1,2024-11-04_18h03.39.425,uWM_experiment,2022.2.3,60.00103202
,,,,,,,,,,,,,,,,,,,,2,0,2,0,,,,,1,0,1,0,,,,,,,,,,,,,,,,,,,,,,,,,,,,,,,,,,,,,,,,,,,,,,,,,,,,,,,,,,,,,,,,,,,,,,,,,,,,,,,,,,,,,,,,,,,,,,,,,,,,,,,,,,,,,,,,,,,,,,,,,,,,,,10,18,1,2024-11-04_18h03.39.425,uWM_experiment,2022.2.3,60.00103202
,,,,,,,,,,,,,,,,,,,,2,0,2,0,,,,,2,0,2,0,,,,,,,,,,,,,,,,,,,,,,,,,,,,,,,,,,,,,,,,,,,,,,,,,,,,,,,,,,,,,,,,,,,,,,,,,,,,,,,,,,,,,,,,,,,,,,,,,,,,,,,,,,,,,,,,,,,,,,,,,,,,,,10,18,1,2024-11-04_18h03.39.425,uWM_experiment,2022.2.3,60.00103202
,,,,,,,,,,,,,,,,,,,,3,0,3,0,0,0,0,0,,,,,,,,,,,,,,,,,,,,,,,,,,,,,,,,,,,,,,,,,,,,,,,,,,,,,,,,,,,,,,,,,,,,,,0.005,,,,,,,,,,,,,,,,,,,,2023.305317,2024.005341,2024.305354,2025.005382,2025.305392,2026.005424,2026.005424,2026.322109,left,1,10,-30,-20,1,2031.48897,2031.48897,2031.48897,None,None,4,0,2.1427745,,,,,,,None,,,,,,,,,,,,10,18,1,2024-11-04_18h03.39.425,uWM_experiment,2022.2.3,60.00103202
,,,,,,,,,,,,,,,,,,,,3,0,3,0,1,0,1,0,,,,,,,,,,,,,,,,,,,,,,,,,,,,,,,,,,,,,,,,,,,,,,,,,,,,,,,,,,,,,,,,,,,,,,0.005,,,,,,,,,,,,,,,,,,,,,,,,,,,,left,1,160,-30,130,1,2039.189308,2039.189308,2039.189308,None,None,4,0,1.3063326,,,,,,,,,,,,,,,,,,,10,18,1,2024-11-04_18h03.39.425,uWM_experiment,2022.2.3,60.00103202
,,,,,,,,,,,,,,,,,,,,3,0,3,0,2,0,2,0,,,,,,,,,,,,,,,,,,,,,,,,,,,,,,,,,,,,,,,,,,,,,,,,,,,,,,,,,,,,,,,,,,,,,,0,,,,,,,,,,,,,,,,,,,,,,,,,,,,left,0,130,30,160,0,2045.922915,2045.922915,2045.922915,None,None,4,0,1.2447237,,,,,,,,,,,,,,,,,,,10,18,1,2024-11-04_18h03.39.425,uWM_experiment,2022.2.3,60.00103202
,,,,,,,,,,,,,,,,,,,,3,0,3,0,3,0,3,0,,,,,,,,,,,,,,,,,,,,,,,,,,,,,,,,,,,,,,,,,,,,,,,,,,,,,,,,,,,,,,,,,,,,,,0.005,,,,,,,,,,,,,,,,,,,,,,,,,,,,left,1,10,-30,-20,1,2052.606537,2052.606537,2052.606537,None,None,4,0,1.2171536,,,,,,,,,,,,,,,,,,,10,18,1,2024-11-04_18h03.39.425,uWM_experiment,2022.2.3,60.00103202
,,,,,,,,,,,,,,,,,,,,3,0,3,0,4,0,4,0,,,,,,,,,,,,,,,,,,,,,,,,,,,,,,,,,,,,,,,,,,,,,,,,,,,,,,,,,,,,,,,,,,,,,,0.005,,,,,,,,,,,,,,,,,,,,,,,,,,,,right,0,40,-30,10,1,2059.490149,2059.490149,2059.490149,None,None,4,0,0.6053168,,,,,,,,,,,,,,,,,,,10,18,1,2024-11-04_18h03.39.425,uWM_experiment,2022.2.3,60.00103202
,,,,,,,,,,,,,,,,,,,,3,0,3,0,5,0,5,0,,,,,,,,,,,,,,,,,,,,,,,,,,,,,,,,,,,,,,,,,,,,,,,,,,,,,,,,,,,,,,,,,,,,,,0.005,,,,,,,,,,,,,,,,,,,,,,,,,,,,left,1,160,-30,130,1,2066.223746,2066.223746,2066.223746,None,None,4,0,0.5357804,,,,,,,,,,,,,,,,,,,10,18,1,2024-11-04_18h03.39.425,uWM_experiment,2022.2.3,60.00103202
,,,,,,,,,,,,,,,,,,,,3,0,3,0,6,0,6,0,,,,,,,,,,,,,,,,,,,,,,,,,,,,,,,,,,,,,,,,,,,,,,,,,,,,,,,,,,,,,,,,,,,,,,0.005,,,,,,,,,,,,,,,,,,,,,,,,,,,,right,0,100,-30,70,1,2072.390663,2072.390663,2072.390663,None,None,4,0,1.7608729,,,,,,,,,,,,,,,,,,,10,18,1,2024-11-04_18h03.39.425,uWM_experiment,2022.2.3,60.00103202
,,,,,,,,,,,,,,,,,,,,3,0,3,0,7,0,7,0,,,,,,,,,,,,,,,,,,,,,,,,,,,,,,,,,,,,,,,,,,,,,,,,,,,,,,,,,,,,,,,,,,,,,,0,,,,,,,,,,,,,,,,,,,,,,,,,,,,left,0,130,30,160,0,2079.857644,2079.857644,2079.857644,None,None,4,0,1.237812,,,,,,,,,,,,,,,,,,,10,18,1,2024-11-04_18h03.39.425,uWM_experiment,2022.2.3,60.00103202
,,,,,,,,,,,,,,,,,,,,3,0,3,0,8,0,8,0,,,,,,,,,,,,,,,,,,,,,,,,,,,,,,,,,,,,,,,,,,,,,,,,,,,,,,,,,,,,,,,,,,,,,,0.005,,,,,,,,,,,,,,,,,,,,,,,,,,,,right,0,100,-30,70,1,2087.007938,2087.007938,2087.007938,None,None,4,0,0.4554605,,,,,,,,,,,,,,,,,,,10,18,1,2024-11-04_18h03.39.425,uWM_experiment,2022.2.3,60.00103202
,,,,,,,,,,,,,,,,,,,,3,0,3,0,9,0,9,0,,,,,,,,,,,,,,,,,,,,,,,,,,,,,,,,,,,,,,,,,,,,,,,,,,,,,,,,,,,,,,,,,,,,,,0.005,,,,,,,,,,,,,,,,,,,,,,,,,,,,right,1,40,30,70,1,2093.058188,2093.058188,2093.058188,None,None,4,0,1.2211922,,,,,,,,,,,,,,,,,,,10,18,1,2024-11-04_18h03.39.425,uWM_experiment,2022.2.3,60.00103202
,,,,,,,,,,,,,,,,,,,,3,0,3,0,10,0,10,0,,,,,,,,,,,,,,,,,,,,,,,,,,,,,,,,,,,,,,,,,,,,,,,,,,,,,,,,,,,,,,,,,,,,,,0.005,,,,,,,,,,,,,,,,,,,,,,,,,,,,right,1,100,30,130,1,2100.308492,2100.308492,2100.308492,None,None,4,0,1.2830012,,,,,,,,,,,,,,,,,,,10,18,1,2024-11-04_18h03.39.425,uWM_experiment,2022.2.3,60.00103202
,,,,,,,,,,,,,,,,,,,,3,0,3,0,11,0,11,0,,,,,,,,,,,,,,,,,,,,,,,,,,,,,,,,,,,,,,,,,,,,,,,,,,,,,,,,,,,,,,,,,,,,,,0.1,,,,,,,,,,,,,,,,,,,,,,,,,,,,left,0,130,30,160,2,2107.825443,2107.825443,2107.825443,None,None,4,0,0.4699039,,,,,,,,,,,,,,,,,,,10,18,1,2024-11-04_18h03.39.425,uWM_experiment,2022.2.3,60.00103202
,,,,,,,,,,,,,,,,,,,,3,0,3,0,12,0,12,0,,,,,,,,,,,,,,,,,,,,,,,,,,,,,,,,,,,,,,,,,,,,,,,,,,,,,,,,,,,,,,,,,,,,,,0.005,,,,,,,,,,,,,,,,,,,,,,,,,,,,left,0,130,30,160,1,2113.859048,2113.859048,2113.859048,None,None,4,0,0.5324479,,,,,,,,,,,,,,,,,,,10,18,1,2024-11-04_18h03.39.425,uWM_experiment,2022.2.3,60.00103202
,,,,,,,,,,,,,,,,,,,,3,0,3,0,13,0,13,0,,,,,,,,,,,,,,,,,,,,,,,,,,,,,,,,,,,,,,,,,,,,,,,,,,,,,,,,,,,,,,,,,,,,,,0.005,,,,,,,,,,,,,,,,,,,,,,,,,,,,right,0,100,-30,70,1,2119.975931,2119.975931,2119.975931,None,None,4,0,0.6475273,,,,,,,,,,,,,,,,,,,10,18,1,2024-11-04_18h03.39.425,uWM_experiment,2022.2.3,60.00103202
,,,,,,,,,,,,,,,,,,,,3,0,3,0,14,0,14,0,,,,,,,,,,,,,,,,,,,,,,,,,,,,,,,,,,,,,,,,,,,,,,,,,,,,,,,,,,,,,,,,,,,,,,0.005,,,,,,,,,,,,,,,,,,,,,,,,,,,,right,0,100,-30,70,1,2126.609553,2126.609553,2126.609553,None,None,4,0,0.5017916,,,,,,,,,,,,,,,,,,,10,18,1,2024-11-04_18h03.39.425,uWM_experiment,2022.2.3,60.00103202
,,,,,,,,,,,,,,,,,,,,3,0,3,0,15,0,15,0,,,,,,,,,,,,,,,,,,,,,,,,,,,,,,,,,,,,,,,,,,,,,,,,,,,,,,,,,,,,,,,,,,,,,,0,,,,,,,,,,,,,,,,,,,,,,,,,,,,right,1,70,30,100,0,2133.276487,2133.276487,2133.276487,None,None,4,0,0.4268328,,,,,,,,,,,,,,,,,,,10,18,1,2024-11-04_18h03.39.425,uWM_experiment,2022.2.3,60.00103202
,,,,,,,,,,,,,,,,,,,,3,0,3,0,16,0,16,0,,,,,,,,,,,,,,,,,,,,,,,,,,,,,,,,,,,,,,,,,,,,,,,,,,,,,,,,,,,,,,,,,,,,,,0.1,,,,,,,,,,,,,,,,,,,,,,,,,,,,right,1,10,30,40,2,2139.110089,2139.110089,2139.110089,None,None,4,0,0.7851626,,,,,,,,,,,,,,,,,,,10,18,1,2024-11-04_18h03.39.425,uWM_experiment,2022.2.3,60.00103202
,,,,,,,,,,,,,,,,,,,,3,0,3,0,17,0,17,0,,,,,,,,,,,,,,,,,,,,,,,,,,,,,,,,,,,,,,,,,,,,,,,,,,,,,,,,,,,,,,,,,,,,,,0.1,,,,,,,,,,,,,,,,,,,,,,,,,,,,left,1,130,-30,100,2,2146.47705,2146.47705,2146.47705,None,None,4,0,0.4262835,,,,,,,,,,,,,,,,,,,10,18,1,2024-11-04_18h03.39.425,uWM_experiment,2022.2.3,60.00103202
,,,,,,,,,,,,,,,,,,,,3,0,3,0,18,0,18,0,,,,,,,,,,,,,,,,,,,,,,,,,,,,,,,,,,,,,,,,,,,,,,,,,,,,,,,,,,,,,,,,,,,,,,0.005,,,,,,,,,,,,,,,,,,,,,,,,,,,,left,0,130,30,160,1,2152.543956,2152.543956,2152.543956,None,None,4,0,0.5352699,,,,,,,,,,,,,,,,,,,10,18,1,2024-11-04_18h03.39.425,uWM_experiment,2022.2.3,60.00103202
,,,,,,,,,,,,,,,,,,,,3,0,3,0,19,0,19,0,,,,,,,,,,,,,,,,,,,,,,,,,,,,,,,,,,,,,,,,,,,,,,,,,,,,,,,,,,,,,,,,,,,,,,0,,,,,,,,,,,,,,,,,,,,,,,,,,,,right,1,10,30,40,0,2158.944243,2158.944243,2158.944243,None,None,4,0,1.9189483,,,,,,,,,,,,,,,,,,,10,18,1,2024-11-04_18h03.39.425,uWM_experiment,2022.2.3,60.00103202
,,,,,,,,,,,,,,,,,,,,3,0,3,0,20,0,20,0,,,,,,,,,,,,,,,,,,,,,,,,,,,,,,,,,,,,,,,,,,,,,,,,,,,,,,,,,,,,,,,,,,,,,,0,,,,,,,,,,,,,,,,,,,,,,,,,,,,right,0,100,-30,70,0,2166.577879,2166.577879,2166.577879,None,None,4,0,1.1893236,,,,,,,,,,,,,,,,,,,10,18,1,2024-11-04_18h03.39.425,uWM_experiment,2022.2.3,60.00103202
,,,,,,,,,,,,,,,,,,,,3,0,3,0,21,0,21,0,,,,,,,,,,,,,,,,,,,,,,,,,,,,,,,,,,,,,,,,,,,,,,,,,,,,,,,,,,,,,,,,,,,,,,0.005,,,,,,,,,,,,,,,,,,,,,,,,,,,,right,1,160,30,190,1,2174.978212,2174.978212,2174.978212,None,None,4,0,0.9009602,,,,,,,,,,,,,,,,,,,10,18,1,2024-11-04_18h03.39.425,uWM_experiment,2022.2.3,60.00103202
,,,,,,,,,,,,,,,,,,,,3,0,3,0,22,0,22,0,,,,,,,,,,,,,,,,,,,,,,,,,,,,,,,,,,,,,,,,,,,,,,,,,,,,,,,,,,,,,,,,,,,,,,0.005,,,,,,,,,,,,,,,,,,,,,,,,,,,,right,0,40,-30,10,1,2181.495144,2181.495144,2181.495144,None,None,4,0,0.9839782,,,,,,,,,,,,,,,,,,,10,18,1,2024-11-04_18h03.39.425,uWM_experiment,2022.2.3,60.00103202
,,,,,,,,,,,,,,,,,,,,3,0,3,0,23,0,23,0,,,,,,,,,,,,,,,,,,,,,,,,,,,,,,,,,,,,,,,,,,,,,,,,,,,,,,,,,,,,,,,,,,,,,,0.005,,,,,,,,,,,,,,,,,,,,,,,,,,,,left,0,130,30,160,1,2188.128748,2188.128748,2188.128748,None,None,4,0,1.1423931,,,,,,,,,,,,,,,,,,,10,18,1,2024-11-04_18h03.39.425,uWM_experiment,2022.2.3,60.00103202
,,,,,,,,,,,,,,,,,,,,3,0,3,0,,,,,0,0,0,0,,,,,,,,,,,,,,,,,,,,,,,,,,,,,,,,,,,,,,,,,,,,,,,,,,,,,,,,,,,,,,,,,,,,,,,,,,,,,,,,,,,,,,,,,,,,,,,,,,,,,,,,,,,,2189.295444,2189.295444,space,29.5516565,None,None,,,,,,,,,,,,,10,18,1,2024-11-04_18h03.39.425,uWM_experiment,2022.2.3,60.00103202
,,,,,,,,,,,,,,,,,,,,3,0,3,0,,,,,1,0,1,0,,,,,,,,,,,,,,,,,,,,,,,,,,,,,,,,,,,,,,,,,,,,,,,,,,,,,,,,,,,,,,,,,,,,,,,,,,,,,,,,,,,,,,,,,,,,,,,,,,,,,,,,,,,,,,,,,,,,,,,,,,,,,,10,18,1,2024-11-04_18h03.39.425,uWM_experiment,2022.2.3,60.00103202
,,,,,,,,,,,,,,,,,,,,3,0,3,0,,,,,2,0,2,0,,,,,,,,,,,,,,,,,,,,,,,,,,,,,,,,,,,,,,,,,,,,,,,,,,,,,,,,,,,,,,,,,,,,,,,,,,,,,,,,,,,,,,,,,,,,,,,,,,,,,,,,,,,,,,,,,,,,,,,,,,,,,,10,18,1,2024-11-04_18h03.39.425,uWM_experiment,2022.2.3,60.00103202
,,,,,,,,,,,,,,,,,,,,4,0,4,0,0,0,0,0,,,,,,,,,,,,,,,,,,,,,,,,,,,,,,,,,,,,,,,,,,,,,,,,,,,,,,,,,,,,,,,,,,,,,,0.005,,,,,,,,,,,,,,,,,,,,2218.880014,2219.580021,2219.880034,2220.580063,2220.880076,2221.580131,2221.580131,2221.896793,right,1,10,30,40,1,2226.763644,2226.763644,2226.763644,None,None,4,0,1.1713251,,,,,,,None,,,,,,,,,,,,10,18,1,2024-11-04_18h03.39.425,uWM_experiment,2022.2.3,60.00103202
,,,,,,,,,,,,,,,,,,,,4,0,4,0,1,0,1,0,,,,,,,,,,,,,,,,,,,,,,,,,,,,,,,,,,,,,,,,,,,,,,,,,,,,,,,,,,,,,,,,,,,,,,0.005,,,,,,,,,,,,,,,,,,,,,,,,,,,,right,1,160,30,190,1,2233.547271,2233.547271,2233.547271,None,None,4,0,1.7237243,,,,,,,,,,,,,,,,,,,10,18,1,2024-11-04_18h03.39.425,uWM_experiment,2022.2.3,60.00103202
,,,,,,,,,,,,,,,,,,,,4,0,4,0,2,0,2,0,,,,,,,,,,,,,,,,,,,,,,,,,,,,,,,,,,,,,,,,,,,,,,,,,,,,,,,,,,,,,,,,,,,,,,0,,,,,,,,,,,,,,,,,,,,,,,,,,,,left,1,130,-30,100,0,2240.84758,2240.84758,2240.84758,None,None,4,0,1.6873555,,,,,,,,,,,,,,,,,,,10,18,1,2024-11-04_18h03.39.425,uWM_experiment,2022.2.3,60.00103202
,,,,,,,,,,,,,,,,,,,,4,0,4,0,3,0,3,0,,,,,,,,,,,,,,,,,,,,,,,,,,,,,,,,,,,,,,,,,,,,,,,,,,,,,,,,,,,,,,,,,,,,,,0,,,,,,,,,,,,,,,,,,,,,,,,,,,,left,1,160,-30,130,0,2248.714585,2248.714585,2248.714585,None,None,4,0,0.5804067,,,,,,,,,,,,,,,,,,,10,18,1,2024-11-04_18h03.39.425,uWM_experiment,2022.2.3,60.00103202
,,,,,,,,,,,,,,,,,,,,4,0,4,0,4,0,4,0,,,,,,,,,,,,,,,,,,,,,,,,,,,,,,,,,,,,,,,,,,,,,,,,,,,,,,,,,,,,,,,,,,,,,,0.005,,,,,,,,,,,,,,,,,,,,,,,,,,,,left,0,100,30,130,1,2255.081497,2255.081497,2255.081497,None,None,4,0,0.5734688,,,,,,,,,,,,,,,,,,,10,18,1,2024-11-04_18h03.39.425,uWM_experiment,2022.2.3,60.00103202
,,,,,,,,,,,,,,,,,,,,4,0,4,0,5,0,5,0,,,,,,,,,,,,,,,,,,,,,,,,,,,,,,,,,,,,,,,,,,,,,,,,,,,,,,,,,,,,,,,,,,,,,,0.005,,,,,,,,,,,,,,,,,,,,,,,,,,,,right,0,100,-30,70,1,2261.981787,2261.981787,2261.981787,None,None,4,0,0.545177,,,,,,,,,,,,,,,,,,,10,18,1,2024-11-04_18h03.39.425,uWM_experiment,2022.2.3,60.00103202
,,,,,,,,,,,,,,,,,,,,4,0,4,0,6,0,6,0,,,,,,,,,,,,,,,,,,,,,,,,,,,,,,,,,,,,,,,,,,,,,,,,,,,,,,,,,,,,,,,,,,,,,,0,,,,,,,,,,,,,,,,,,,,,,,,,,,,right,1,10,30,40,0,2268.348713,2268.348713,2268.348713,None,None,4,0,2.6021401,,,,,,,,,,,,,,,,,,,10,18,1,2024-11-04_18h03.39.425,uWM_experiment,2022.2.3,60.00103202
,,,,,,,,,,,,,,,,,,,,4,0,4,0,7,0,7,0,,,,,,,,,,,,,,,,,,,,,,,,,,,,,,,,,,,,,,,,,,,,,,,,,,,,,,,,,,,,,,,,,,,,,,0.005,,,,,,,,,,,,,,,,,,,,,,,,,,,,left,1,130,-30,100,1,2277.315728,2277.315728,2277.315728,None,None,4,0,1.0991932,,,,,,,,,,,,,,,,,,,10,18,1,2024-11-04_18h03.39.425,uWM_experiment,2022.2.3,60.00103202
,,,,,,,,,,,,,,,,,,,,4,0,4,0,8,0,8,0,,,,,,,,,,,,,,,,,,,,,,,,,,,,,,,,,,,,,,,,,,,,,,,,,,,,,,,,,,,,,,,,,,,,,,0.005,,,,,,,,,,,,,,,,,,,,,,,,,,,,left,1,10,-30,-20,1,2284.116017,2284.116017,2284.116017,None,None,4,0,1.1387699,,,,,,,,,,,,,,,,,,,10,18,1,2024-11-04_18h03.39.425,uWM_experiment,2022.2.3,60.00103202
,,,,,,,,,,,,,,,,,,,,4,0,4,0,9,0,9,0,,,,,,,,,,,,,,,,,,,,,,,,,,,,,,,,,,,,,,,,,,,,,,,,,,,,,,,,,,,,,,,,,,,,,,0.005,,,,,,,,,,,,,,,,,,,,,,,,,,,,left,1,10,-30,-20,1,2290.966267,2290.966267,2290.966267,None,None,4,0,0.6806062,,,,,,,,,,,,,,,,,,,10,18,1,2024-11-04_18h03.39.425,uWM_experiment,2022.2.3,60.00103202
,,,,,,,,,,,,,,,,,,,,4,0,4,0,10,0,10,0,,,,,,,,,,,,,,,,,,,,,,,,,,,,,,,,,,,,,,,,,,,,,,,,,,,,,,,,,,,,,,,,,,,,,,0.1,,,,,,,,,,,,,,,,,,,,,,,,,,,,right,0,40,-30,10,2,2297.36655,2297.36655,2297.36655,None,None,4,0,0.8803424,,,,,,,,,,,,,,,,,,,10,18,1,2024-11-04_18h03.39.425,uWM_experiment,2022.2.3,60.00103202
,,,,,,,,,,,,,,,,,,,,4,0,4,0,11,0,11,0,,,,,,,,,,,,,,,,,,,,,,,,,,,,,,,,,,,,,,,,,,,,,,,,,,,,,,,,,,,,,,,,,,,,,,0.005,,,,,,,,,,,,,,,,,,,,,,,,,,,,right,0,100,-30,70,1,2304.00016,2304.00016,2304.00016,None,None,4,0,1.0146192,,,,,,,,,,,,,,,,,,,10,18,1,2024-11-04_18h03.39.425,uWM_experiment,2022.2.3,60.00103202
,,,,,,,,,,,,,,,,,,,,4,0,4,0,12,0,12,0,,,,,,,,,,,,,,,,,,,,,,,,,,,,,,,,,,,,,,,,,,,,,,,,,,,,,,,,,,,,,,,,,,,,,,0,,,,,,,,,,,,,,,,,,,,,,,,,,,,right,1,160,30,190,0,2310.617161,2310.617161,2310.617161,None,None,4,0,0.7576606,,,,,,,,,,,,,,,,,,,10,18,1,2024-11-04_18h03.39.425,uWM_experiment,2022.2.3,60.00103202
,,,,,,,,,,,,,,,,,,,,4,0,4,0,13,0,13,0,,,,,,,,,,,,,,,,,,,,,,,,,,,,,,,,,,,,,,,,,,,,,,,,,,,,,,,,,,,,,,,,,,,,,,0,,,,,,,,,,,,,,,,,,,,,,,,,,,,right,1,160,30,190,0,2316.950679,2316.950679,2316.950679,None,None,4,0,1.1040041,,,,,,,,,,,,,,,,,,,10,18,1,2024-11-04_18h03.39.425,uWM_experiment,2022.2.3,60.00103202
,,,,,,,,,,,,,,,,,,,,4,0,4,0,14,0,14,0,,,,,,,,,,,,,,,,,,,,,,,,,,,,,,,,,,,,,,,,,,,,,,,,,,,,,,,,,,,,,,,,,,,,,,0.005,,,,,,,,,,,,,,,,,,,,,,,,,,,,right,1,40,30,70,1,2323.700953,2323.700953,2323.700953,None,None,4,0,0.7458647,,,,,,,,,,,,,,,,,,,10,18,1,2024-11-04_18h03.39.425,uWM_experiment,2022.2.3,60.00103202
,,,,,,,,,,,,,,,,,,,,4,0,4,0,15,0,15,0,,,,,,,,,,,,,,,,,,,,,,,,,,,,,,,,,,,,,,,,,,,,,,,,,,,,,,,,,,,,,,,,,,,,,,0,,,,,,,,,,,,,,,,,,,,,,,,,,,,right,1,10,30,40,0,2330.067888,2330.067888,2330.067888,None,None,4,0,0.8269293,,,,,,,,,,,,,,,,,,,10,18,1,2024-11-04_18h03.39.425,uWM_experiment,2022.2.3,60.00103202
,,,,,,,,,,,,,,,,,,,,4,0,4,0,16,0,16,0,,,,,,,,,,,,,,,,,,,,,,,,,,,,,,,,,,,,,,,,,,,,,,,,,,,,,,,,,,,,,,,,,,,,,,0.005,,,,,,,,,,,,,,,,,,,,,,,,,,,,left,1,10,-30,-20,1,2336.734849,2336.734849,2336.734849,None,None,4,0,0.7438977,,,,,,,,,,,,,,,,,,,10,18,1,2024-11-04_18h03.39.425,uWM_experiment,2022.2.3,60.00103202
,,,,,,,,,,,,,,,,,,,,4,0,4,0,17,0,17,0,,,,,,,,,,,,,,,,,,,,,,,,,,,,,,,,,,,,,,,,,,,,,,,,,,,,,,,,,,,,,,,,,,,,,,0.005,,,,,,,,,,,,,,,,,,,,,,,,,,,,left,1,130,-30,100,1,2343.185124,2343.185124,2343.185124,None,None,4,0,0.6694901,,,,,,,,,,,,,,,,,,,10,18,1,2024-11-04_18h03.39.425,uWM_experiment,2022.2.3,60.00103202
,,,,,,,,,,,,,,,,,,,,4,0,4,0,18,0,18,0,,,,,,,,,,,,,,,,,,,,,,,,,,,,,,,,,,,,,,,,,,,,,,,,,,,,,,,,,,,,,,,,,,,,,,0.005,,,,,,,,,,,,,,,,,,,,,,,,,,,,right,1,10,30,40,1,2349.485372,2349.485372,2349.485372,None,None,4,0,0.5532121,,,,,,,,,,,,,,,,,,,10,18,1,2024-11-04_18h03.39.425,uWM_experiment,2022.2.3,60.00103202
,,,,,,,,,,,,,,,,,,,,4,0,4,0,19,0,19,0,,,,,,,,,,,,,,,,,,,,,,,,,,,,,,,,,,,,,,,,,,,,,,,,,,,,,,,,,,,,,,,,,,,,,,0,,,,,,,,,,,,,,,,,,,,,,,,,,,,left,1,160,-30,130,0,2355.718968,2355.718968,2355.718968,None,None,4,0,0.6476036,,,,,,,,,,,,,,,,,,,10,18,1,2024-11-04_18h03.39.425,uWM_experiment,2022.2.3,60.00103202
,,,,,,,,,,,,,,,,,,,,4,0,4,0,20,0,20,0,,,,,,,,,,,,,,,,,,,,,,,,,,,,,,,,,,,,,,,,,,,,,,,,,,,,,,,,,,,,,,,,,,,,,,0.005,,,,,,,,,,,,,,,,,,,,,,,,,,,,left,1,10,-30,-20,1,2361.919193,2361.919193,2361.919193,None,None,4,0,0.4794517,,,,,,,,,,,,,,,,,,,10,18,1,2024-11-04_18h03.39.425,uWM_experiment,2022.2.3,60.00103202
,,,,,,,,,,,,,,,,,,,,4,0,4,0,21,0,21,0,,,,,,,,,,,,,,,,,,,,,,,,,,,,,,,,,,,,,,,,,,,,,,,,,,,,,,,,,,,,,,,,,,,,,,0.005,,,,,,,,,,,,,,,,,,,,,,,,,,,,left,1,40,-30,10,1,2369.969528,2369.969528,2369.969528,None,None,4,0,0.557064,,,,,,,,,,,,,,,,,,,10,18,1,2024-11-04_18h03.39.425,uWM_experiment,2022.2.3,60.00103202
,,,,,,,,,,,,,,,,,,,,4,0,4,0,22,0,22,0,,,,,,,,,,,,,,,,,,,,,,,,,,,,,,,,,,,,,,,,,,,,,,,,,,,,,,,,,,,,,,,,,,,,,,0.005,,,,,,,,,,,,,,,,,,,,,,,,,,,,right,1,10,30,40,1,2376.703142,2376.703142,2376.703142,None,None,4,0,0.5755057,,,,,,,,,,,,,,,,,,,10,18,1,2024-11-04_18h03.39.425,uWM_experiment,2022.2.3,60.00103202
,,,,,,,,,,,,,,,,,,,,4,0,4,0,23,0,23,0,,,,,,,,,,,,,,,,,,,,,,,,,,,,,,,,,,,,,,,,,,,,,,,,,,,,,,,,,,,,,,,,,,,,,,0.005,,,,,,,,,,,,,,,,,,,,,,,,,,,,right,0,100,-30,70,1,2383.086731,2383.086731,2383.086731,None,None,4,0,0.6719169,,,,,,,,,,,,,,,,,,,10,18,1,2024-11-04_18h03.39.425,uWM_experiment,2022.2.3,60.00103202
,,,,,,,,,,,,,,,,,,,,4,0,4,0,,,,,0,0,0,0,,,,,,,,,,,,,,,,,,,,,,,,,,,,,,,,,,,,,,,,,,,,,,,,,,,,,,,,,,,,,,,,,,,,,,,,,,,,,,,,,,,,,,,,,,,,,,,,,,,,,,,,,,,,2383.786719,2383.786719,space,19.147784,None,None,,,,,,,,,,,,,10,18,1,2024-11-04_18h03.39.425,uWM_experiment,2022.2.3,60.00103202
,,,,,,,,,,,,,,,,,,,,4,0,4,0,,,,,1,0,1,0,,,,,,,,,,,,,,,,,,,,,,,,,,,,,,,,,,,,,,,,,,,,,,,,,,,,,,,,,,,,,,,,,,,,,,,,,,,,,,,,,,,,,,,,,,,,,,,,,,,,,,,,,,,,,,,,,,,,,,,,,,,,,,10,18,1,2024-11-04_18h03.39.425,uWM_experiment,2022.2.3,60.00103202
,,,,,,,,,,,,,,,,,,,,4,0,4,0,,,,,2,0,2,0,,,,,,,,,,,,,,,,,,,,,,,,,,,,,,,,,,,,,,,,,,,,,,,,,,,,,,,,,,,,,,,,,,,,,,,,,,,,,,,,,,,,,,,,,,,,,,,,,,,,,,,,,,,,,,,,,,,,,,,,,,,,,,10,18,1,2024-11-04_18h03.39.425,uWM_experiment,2022.2.3,60.00103202
,,,,,,,,,,,,,,,,,,,,5,0,5,0,0,0,0,0,,,,,,,,,,,,,,,,,,,,,,,,,,,,,,,,,,,,,,,,,,,,,,,,,,,,,,,,,,,,,,,,,,,,,,0.005,,,,,,,,,,,,,,,,,,,,2402.954211,2403.654266,2403.95425,2404.654269,2404.954289,2405.654323,2405.654323,2405.971007,left,0,70,30,100,1,2410.687981,2410.687981,2410.687981,None,None,4,0,2.0784625,,,,,,,None,,,,,,,,,,,,10,18,1,2024-11-04_18h03.39.425,uWM_experiment,2022.2.3,60.00103202
,,,,,,,,,,,,,,,,,,,,5,0,5,0,1,0,1,0,,,,,,,,,,,,,,,,,,,,,,,,,,,,,,,,,,,,,,,,,,,,,,,,,,,,,,,,,,,,,,,,,,,,,,0.005,,,,,,,,,,,,,,,,,,,,,,,,,,,,left,0,130,30,160,1,2418.321595,2418.321595,2418.321595,None,None,4,0,1.1568197,,,,,,,,,,,,,,,,,,,10,18,1,2024-11-04_18h03.39.425,uWM_experiment,2022.2.3,60.00103202
,,,,,,,,,,,,,,,,,,,,5,0,5,0,2,0,2,0,,,,,,,,,,,,,,,,,,,,,,,,,,,,,,,,,,,,,,,,,,,,,,,,,,,,,,,,,,,,,,,,,,,,,,0.005,,,,,,,,,,,,,,,,,,,,,,,,,,,,left,1,130,-30,100,1,2425.23848,2425.23848,2425.23848,None,None,4,0,2.0639303,,,,,,,,,,,,,,,,,,,10,18,1,2024-11-04_18h03.39.425,uWM_experiment,2022.2.3,60.00103202
,,,,,,,,,,,,,,,,,,,,5,0,5,0,3,0,3,0,,,,,,,,,,,,,,,,,,,,,,,,,,,,,,,,,,,,,,,,,,,,,,,,,,,,,,,,,,,,,,,,,,,,,,0.005,,,,,,,,,,,,,,,,,,,,,,,,,,,,left,0,130,30,160,1,2432.888806,2432.888806,2432.888806,None,None,4,0,0.3816825,,,,,,,,,,,,,,,,,,,10,18,1,2024-11-04_18h03.39.425,uWM_experiment,2022.2.3,60.00103202
,,,,,,,,,,,,,,,,,,,,5,0,5,0,4,0,4,0,,,,,,,,,,,,,,,,,,,,,,,,,,,,,,,,,,,,,,,,,,,,,,,,,,,,,,,,,,,,,,,,,,,,,,0.1,,,,,,,,,,,,,,,,,,,,,,,,,,,,left,1,100,-30,70,2,2439.089043,2439.089043,2439.089043,None,None,4,0,0.5813079,,,,,,,,,,,,,,,,,,,10,18,1,2024-11-04_18h03.39.425,uWM_experiment,2022.2.3,60.00103202
,,,,,,,,,,,,,,,,,,,,5,0,5,0,5,0,5,0,,,,,,,,,,,,,,,,,,,,,,,,,,,,,,,,,,,,,,,,,,,,,,,,,,,,,,,,,,,,,,,,,,,,,,0.005,,,,,,,,,,,,,,,,,,,,,,,,,,,,left,0,70,30,100,1,2445.122643,2445.122643,2445.122643,None,None,4,0,1.0276498,,,,,,,,,,,,,,,,,,,10,18,1,2024-11-04_18h03.39.425,uWM_experiment,2022.2.3,60.00103202
,,,,,,,,,,,,,,,,,,,,5,0,5,0,6,0,6,0,,,,,,,,,,,,,,,,,,,,,,,,,,,,,,,,,,,,,,,,,,,,,,,,,,,,,,,,,,,,,,,,,,,,,,0,,,,,,,,,,,,,,,,,,,,,,,,,,,,right,1,160,30,190,0,2452.006224,2452.006224,2452.006224,None,None,4,0,0.6960876,,,,,,,,,,,,,,,,,,,10,18,1,2024-11-04_18h03.39.425,uWM_experiment,2022.2.3,60.00103202
,,,,,,,,,,,,,,,,,,,,5,0,5,0,7,0,7,0,,,,,,,,,,,,,,,,,,,,,,,,,,,,,,,,,,,,,,,,,,,,,,,,,,,,,,,,,,,,,,,,,,,,,,0.005,,,,,,,,,,,,,,,,,,,,,,,,,,,,left,1,10,-30,-20,1,2458.506502,2458.506502,2458.506502,None,None,4,0,0.6037452,,,,,,,,,,,,,,,,,,,10,18,1,2024-11-04_18h03.39.425,uWM_experiment,2022.2.3,60.00103202
,,,,,,,,,,,,,,,,,,,,5,0,5,0,8,0,8,0,,,,,,,,,,,,,,,,,,,,,,,,,,,,,,,,,,,,,,,,,,,,,,,,,,,,,,,,,,,,,,,,,,,,,,0,,,,,,,,,,,,,,,,,,,,,,,,,,,,left,1,130,-30,100,0,2464.823418,2464.823418,2464.823418,None,None,4,0,0.5670731,,,,,,,,,,,,,,,,,,,10,18,1,2024-11-04_18h03.39.425,uWM_experiment,2022.2.3,60.00103202
,,,,,,,,,,,,,,,,,,,,5,0,5,0,9,0,9,0,,,,,,,,,,,,,,,,,,,,,,,,,,,,,,,,,,,,,,,,,,,,,,,,,,,,,,,,,,,,,,,,,,,,,,0.005,,,,,,,,,,,,,,,,,,,,,,,,,,,,left,0,70,30,100,1,2470.94032,2470.94032,2470.94032,None,None,4,0,0.4979675,,,,,,,,,,,,,,,,,,,10,18,1,2024-11-04_18h03.39.425,uWM_experiment,2022.2.3,60.00103202
,,,,,,,,,,,,,,,,,,,,5,0,5,0,10,0,10,0,,,,,,,,,,,,,,,,,,,,,,,,,,,,,,,,,,,,,,,,,,,,,,,,,,,,,,,,,,,,,,,,,,,,,,0.005,,,,,,,,,,,,,,,,,,,,,,,,,,,,right,1,160,30,190,1,2477.607284,2477.607284,2477.607284,None,None,4,0,0.3670018,,,,,,,,,,,,,,,,,,,10,18,1,2024-11-04_18h03.39.425,uWM_experiment,2022.2.3,60.00103202
,,,,,,,,,,,,,,,,,,,,5,0,5,0,11,0,11,0,,,,,,,,,,,,,,,,,,,,,,,,,,,,,,,,,,,,,,,,,,,,,,,,,,,,,,,,,,,,,,,,,,,,,,0.005,,,,,,,,,,,,,,,,,,,,,,,,,,,,left,1,160,-30,130,1,2483.740859,2483.740859,2483.740859,None,None,4,0,0.4093745,,,,,,,,,,,,,,,,,,,10,18,1,2024-11-04_18h03.39.425,uWM_experiment,2022.2.3,60.00103202
,,,,,,,,,,,,,,,,,,,,5,0,5,0,12,0,12,0,,,,,,,,,,,,,,,,,,,,,,,,,,,,,,,,,,,,,,,,,,,,,,,,,,,,,,,,,,,,,,,,,,,,,,0.005,,,,,,,,,,,,,,,,,,,,,,,,,,,,left,0,100,30,130,1,2489.707794,2489.707794,2489.707794,None,None,4,0,0.3784371,,,,,,,,,,,,,,,,,,,10,18,1,2024-11-04_18h03.39.425,uWM_experiment,2022.2.3,60.00103202
,,,,,,,,,,,,,,,,,,,,5,0,5,0,13,0,13,0,,,,,,,,,,,,,,,,,,,,,,,,,,,,,,,,,,,,,,,,,,,,,,,,,,,,,,,,,,,,,,,,,,,,,,0,,,,,,,,,,,,,,,,,,,,,,,,,,,,left,0,130,30,160,0,2495.524701,2495.524701,2495.524701,None,None,4,0,0.369448,,,,,,,,,,,,,,,,,,,10,18,1,2024-11-04_18h03.39.425,uWM_experiment,2022.2.3,60.00103202
,,,,,,,,,,,,,,,,,,,,5,0,5,0,14,0,14,0,,,,,,,,,,,,,,,,,,,,,,,,,,,,,,,,,,,,,,,,,,,,,,,,,,,,,,,,,,,,,,,,,,,,,,0.1,,,,,,,,,,,,,,,,,,,,,,,,,,,,left,0,160,30,190,2,2501.658273,2501.658273,2501.658273,None,None,4,0,0.6439266,,,,,,,,,,,,,,,,,,,10,18,1,2024-11-04_18h03.39.425,uWM_experiment,2022.2.3,60.00103202
,,,,,,,,,,,,,,,,,,,,5,0,5,0,15,0,15,0,,,,,,,,,,,,,,,,,,,,,,,,,,,,,,,,,,,,,,,,,,,,,,,,,,,,,,,,,,,,,,,,,,,,,,0.005,,,,,,,,,,,,,,,,,,,,,,,,,,,,left,0,130,30,160,1,2507.958518,2507.958518,2507.958518,None,None,4,0,0.3116281,,,,,,,,,,,,,,,,,,,10,18,1,2024-11-04_18h03.39.425,uWM_experiment,2022.2.3,60.00103202
,,,,,,,,,,,,,,,,,,,,5,0,5,0,16,0,16,0,,,,,,,,,,,,,,,,,,,,,,,,,,,,,,,,,,,,,,,,,,,,,,,,,,,,,,,,,,,,,,,,,,,,,,0,,,,,,,,,,,,,,,,,,,,,,,,,,,,left,1,10,-30,-20,0,2513.758759,2513.758759,2513.758759,None,None,4,0,0.279374,,,,,,,,,,,,,,,,,,,10,18,1,2024-11-04_18h03.39.425,uWM_experiment,2022.2.3,60.00103202
,,,,,,,,,,,,,,,,,,,,5,0,5,0,17,0,17,0,,,,,,,,,,,,,,,,,,,,,,,,,,,,,,,,,,,,,,,,,,,,,,,,,,,,,,,,,,,,,,,,,,,,,,0.005,,,,,,,,,,,,,,,,,,,,,,,,,,,,right,0,40,-30,10,1,2519.608995,2519.608995,2519.608995,None,None,4,0,0.4051905,,,,,,,,,,,,,,,,,,,10,18,1,2024-11-04_18h03.39.425,uWM_experiment,2022.2.3,60.00103202
,,,,,,,,,,,,,,,,,,,,5,0,5,0,18,0,18,0,,,,,,,,,,,,,,,,,,,,,,,,,,,,,,,,,,,,,,,,,,,,,,,,,,,,,,,,,,,,,,,,,,,,,,0.1,,,,,,,,,,,,,,,,,,,,,,,,,,,,left,1,10,-30,-20,2,2526.275954,2526.275954,2526.275954,None,None,4,0,0.3461231,,,,,,,,,,,,,,,,,,,10,18,1,2024-11-04_18h03.39.425,uWM_experiment,2022.2.3,60.00103202
,,,,,,,,,,,,,,,,,,,,5,0,5,0,19,0,19,0,,,,,,,,,,,,,,,,,,,,,,,,,,,,,,,,,,,,,,,,,,,,,,,,,,,,,,,,,,,,,,,,,,,,,,0.005,,,,,,,,,,,,,,,,,,,,,,,,,,,,left,0,130,30,160,1,2532.192871,2532.192871,2532.192871,None,None,4,0,0.5011645,,,,,,,,,,,,,,,,,,,10,18,1,2024-11-04_18h03.39.425,uWM_experiment,2022.2.3,60.00103202
,,,,,,,,,,,,,,,,,,,,5,0,5,0,20,0,20,0,,,,,,,,,,,,,,,,,,,,,,,,,,,,,,,,,,,,,,,,,,,,,,,,,,,,,,,,,,,,,,,,,,,,,,0,,,,,,,,,,,,,,,,,,,,,,,,,,,,left,0,100,30,130,0,2538.343103,2538.343103,2538.343103,None,None,4,0,0.6869011,,,,,,,,,,,,,,,,,,,10,18,1,2024-11-04_18h03.39.425,uWM_experiment,2022.2.3,60.00103202
,,,,,,,,,,,,,,,,,,,,5,0,5,0,21,0,21,0,,,,,,,,,,,,,,,,,,,,,,,,,,,,,,,,,,,,,,,,,,,,,,,,,,,,,,,,,,,,,,,,,,,,,,0,,,,,,,,,,,,,,,,,,,,,,,,,,,,right,0,40,-30,10,0,2544.826735,2544.826735,2544.826735,None,None,4,0,0.6192639,,,,,,,,,,,,,,,,,,,10,18,1,2024-11-04_18h03.39.425,uWM_experiment,2022.2.3,60.00103202
,,,,,,,,,,,,,,,,,,,,5,0,5,0,22,0,22,0,,,,,,,,,,,,,,,,,,,,,,,,,,,,,,,,,,,,,,,,,,,,,,,,,,,,,,,,,,,,,,,,,,,,,,0.005,,,,,,,,,,,,,,,,,,,,,,,,,,,,right,0,70,-30,40,1,2551.126959,2551.126959,2551.126959,None,None,4,0,0.5110354,,,,,,,,,,,,,,,,,,,10,18,1,2024-11-04_18h03.39.425,uWM_experiment,2022.2.3,60.00103202
,,,,,,,,,,,,,,,,,,,,5,0,5,0,23,0,23,0,,,,,,,,,,,,,,,,,,,,,,,,,,,,,,,,,,,,,,,,,,,,,,,,,,,,,,,,,,,,,,,,,,,,,,0.005,,,,,,,,,,,,,,,,,,,,,,,,,,,,left,1,160,-30,130,1,2557.277218,2557.277218,2557.277218,None,None,4,0,0.6567986,,,,,,,,,,,,,,,,,,,10,18,1,2024-11-04_18h03.39.425,uWM_experiment,2022.2.3,60.00103202
,,,,,,,,,,,,,,,,,,,,5,0,5,0,,,,,0,0,0,0,,,,,,,,,,,,,,,,,,,,,,,,,,,,,,,,,,,,,,,,,,,,,,,,,,,,,,,,,,,,,,,,,,,,,,,,,,,,,,,,,,,,,,,,,,,,,,,,,,,,,,,,,,,,2557.960582,2557.960582,space,19.2694185,space,None,,2577.261369,2577.261369,8.6805954,,,,,,,,,10,18,1,2024-11-04_18h03.39.425,uWM_experiment,2022.2.3,60.00103202
,,,,,,,,,,,,,,,,,,,,5,0,5,0,,,,,1,0,1,0,,,,,,,,,,,,,,,,,,,,,,,,,,,,,,,,,,,,,,,,,,,,,,,,,,,,,,,,,,,,,,,,,,,,,,,,,,,,,,,,,,,,,,,,,,,,,,,,,,,,,,,,,,,,,,,,,,,,,,,,,,,,,,10,18,1,2024-11-04_18h03.39.425,uWM_experiment,2022.2.3,60.00103202
,,,,,,,,,,,,,,,,,,,,5,0,5,0,,,,,2,0,2,0,,,,,,,,,,,,,,,,,,,,,,,,,,,,,,,,,,,,,,,,,,,,,,,,,,,,,,,,,,,,,,,,,,,,,,,,,,,,,,,,,,,,,,,,,,,,,,,,,,,,,,,,,,,,,,,,,,,,,,,,,,,,,,10,18,1,2024-11-04_18h03.39.425,uWM_experiment,2022.2.3,60.00103202
,,,,,,,,,,,,,,,,,,,,6,0,6,0,0,0,0,0,,,,,,,,,,,,,,,,,,,,,,,,,,,,,,,,,,,,,,,,,,,,,,,,,,,,,,,,,,,,,,,,,,,,,,0.005,,,,,,,,,,,,,,,,,,,,2585.961734,2586.661746,2586.961758,2587.661785,2587.961799,2588.661828,2588.661828,2588.978516,left,1,40,-30,10,1,2594.228743,2594.228743,2594.228743,None,None,4,0,1.2251155,,,,,,,None,,,,,,,,,,,,10,18,1,2024-11-04_18h03.39.425,uWM_experiment,2022.2.3,60.00103202
,,,,,,,,,,,,,,,,,,,,6,0,6,0,1,0,1,0,,,,,,,,,,,,,,,,,,,,,,,,,,,,,,,,,,,,,,,,,,,,,,,,,,,,,,,,,,,,,,,,,,,,,,0,,,,,,,,,,,,,,,,,,,,,,,,,,,,left,0,100,30,130,0,2601.129017,2601.129017,2601.129017,None,None,4,0,0.3728336,,,,,,,,,,,,,,,,,,,10,18,1,2024-11-04_18h03.39.425,uWM_experiment,2022.2.3,60.00103202
,,,,,,,,,,,,,,,,,,,,6,0,6,0,2,0,2,0,,,,,,,,,,,,,,,,,,,,,,,,,,,,,,,,,,,,,,,,,,,,,,,,,,,,,,,,,,,,,,,,,,,,,,0.005,,,,,,,,,,,,,,,,,,,,,,,,,,,,right,1,10,30,40,1,2607.295948,2607.295948,2607.295948,None,None,4,0,0.3018346,,,,,,,,,,,,,,,,,,,10,18,1,2024-11-04_18h03.39.425,uWM_experiment,2022.2.3,60.00103202
,,,,,,,,,,,,,,,,,,,,6,0,6,0,3,0,3,0,,,,,,,,,,,,,,,,,,,,,,,,,,,,,,,,,,,,,,,,,,,,,,,,,,,,,,,,,,,,,,,,,,,,,,0.005,,,,,,,,,,,,,,,,,,,,,,,,,,,,left,1,160,-30,130,1,2613.096383,2613.096383,2613.096383,None,None,4,0,0.4134297,,,,,,,,,,,,,,,,,,,10,18,1,2024-11-04_18h03.39.425,uWM_experiment,2022.2.3,60.00103202
,,,,,,,,,,,,,,,,,,,,6,0,6,0,4,0,4,0,,,,,,,,,,,,,,,,,,,,,,,,,,,,,,,,,,,,,,,,,,,,,,,,,,,,,,,,,,,,,,,,,,,,,,0.005,,,,,,,,,,,,,,,,,,,,,,,,,,,,left,1,160,-30,130,1,2619.413087,2619.413087,2619.413087,None,None,4,0,0.496715,,,,,,,,,,,,,,,,,,,10,18,1,2024-11-04_18h03.39.425,uWM_experiment,2022.2.3,60.00103202
,,,,,,,,,,,,,,,,,,,,6,0,6,0,5,0,5,0,,,,,,,,,,,,,,,,,,,,,,,,,,,,,,,,,,,,,,,,,,,,,,,,,,,,,,,,,,,,,,,,,,,,,,0.005,,,,,,,,,,,,,,,,,,,,,,,,,,,,right,1,10,30,40,1,2625.696707,2625.696707,2625.696707,None,None,4,0,0.4610447,,,,,,,,,,,,,,,,,,,10,18,1,2024-11-04_18h03.39.425,uWM_experiment,2022.2.3,60.00103202
,,,,,,,,,,,,,,,,,,,,6,0,6,0,6,0,6,0,,,,,,,,,,,,,,,,,,,,,,,,,,,,,,,,,,,,,,,,,,,,,,,,,,,,,,,,,,,,,,,,,,,,,,0.005,,,,,,,,,,,,,,,,,,,,,,,,,,,,left,0,100,30,130,1,2631.763627,2631.763627,2631.763627,None,None,4,0,0.8661773,,,,,,,,,,,,,,,,,,,10,18,1,2024-11-04_18h03.39.425,uWM_experiment,2022.2.3,60.00103202
,,,,,,,,,,,,,,,,,,,,6,0,6,0,7,0,7,0,,,,,,,,,,,,,,,,,,,,,,,,,,,,,,,,,,,,,,,,,,,,,,,,,,,,,,,,,,,,,,,,,,,,,,0.005,,,,,,,,,,,,,,,,,,,,,,,,,,,,left,0,40,30,70,1,2638.280555,2638.280555,2638.280555,None,None,4,0,0.4051335,,,,,,,,,,,,,,,,,,,10,18,1,2024-11-04_18h03.39.425,uWM_experiment,2022.2.3,60.00103202
,,,,,,,,,,,,,,,,,,,,6,0,6,0,8,0,8,0,,,,,,,,,,,,,,,,,,,,,,,,,,,,,,,,,,,,,,,,,,,,,,,,,,,,,,,,,,,,,,,,,,,,,,0.005,,,,,,,,,,,,,,,,,,,,,,,,,,,,right,0,100,-30,70,1,2644.297472,2644.297472,2644.297472,None,None,4,0,0.6202093,,,,,,,,,,,,,,,,,,,10,18,1,2024-11-04_18h03.39.425,uWM_experiment,2022.2.3,60.00103202
,,,,,,,,,,,,,,,,,,,,6,0,6,0,9,0,9,0,,,,,,,,,,,,,,,,,,,,,,,,,,,,,,,,,,,,,,,,,,,,,,,,,,,,,,,,,,,,,,,,,,,,,,0.005,,,,,,,,,,,,,,,,,,,,,,,,,,,,left,0,70,30,100,1,2650.664369,2650.664369,2650.664369,None,None,4,0,0.4934128,,,,,,,,,,,,,,,,,,,10,18,1,2024-11-04_18h03.39.425,uWM_experiment,2022.2.3,60.00103202
,,,,,,,,,,,,,,,,,,,,6,0,6,0,10,0,10,0,,,,,,,,,,,,,,,,,,,,,,,,,,,,,,,,,,,,,,,,,,,,,,,,,,,,,,,,,,,,,,,,,,,,,,0,,,,,,,,,,,,,,,,,,,,,,,,,,,,left,1,10,-30,-20,0,2656.881301,2656.881301,2656.881301,None,None,4,0,0.4604535,,,,,,,,,,,,,,,,,,,10,18,1,2024-11-04_18h03.39.425,uWM_experiment,2022.2.3,60.00103202
,,,,,,,,,,,,,,,,,,,,6,0,6,0,11,0,11,0,,,,,,,,,,,,,,,,,,,,,,,,,,,,,,,,,,,,,,,,,,,,,,,,,,,,,,,,,,,,,,,,,,,,,,0,,,,,,,,,,,,,,,,,,,,,,,,,,,,left,1,130,-30,100,0,2663.031542,2663.031542,2663.031542,None,None,4,0,0.5505362,,,,,,,,,,,,,,,,,,,10,18,1,2024-11-04_18h03.39.425,uWM_experiment,2022.2.3,60.00103202
,,,,,,,,,,,,,,,,,,,,6,0,6,0,12,0,12,0,,,,,,,,,,,,,,,,,,,,,,,,,,,,,,,,,,,,,,,,,,,,,,,,,,,,,,,,,,,,,,,,,,,,,,0.005,,,,,,,,,,,,,,,,,,,,,,,,,,,,left,0,130,30,160,1,2669.131792,2669.131792,2669.131792,None,None,4,0,0.5299022,,,,,,,,,,,,,,,,,,,10,18,1,2024-11-04_18h03.39.425,uWM_experiment,2022.2.3,60.00103202
,,,,,,,,,,,,,,,,,,,,6,0,6,0,13,0,13,0,,,,,,,,,,,,,,,,,,,,,,,,,,,,,,,,,,,,,,,,,,,,,,,,,,,,,,,,,,,,,,,,,,,,,,0.005,,,,,,,,,,,,,,,,,,,,,,,,,,,,left,1,160,-30,130,1,2675.182049,2675.182049,2675.182049,None,None,4,0,0.495531,,,,,,,,,,,,,,,,,,,10,18,1,2024-11-04_18h03.39.425,uWM_experiment,2022.2.3,60.00103202
,,,,,,,,,,,,,,,,,,,,6,0,6,0,14,0,14,0,,,,,,,,,,,,,,,,,,,,,,,,,,,,,,,,,,,,,,,,,,,,,,,,,,,,,,,,,,,,,,,,,,,,,,0.005,,,,,,,,,,,,,,,,,,,,,,,,,,,,left,1,160,-30,130,1,2681.048957,2681.048957,2681.048957,None,None,4,0,0.6046181,,,,,,,,,,,,,,,,,,,10,18,1,2024-11-04_18h03.39.425,uWM_experiment,2022.2.3,60.00103202
,,,,,,,,,,,,,,,,,,,,6,0,6,0,15,0,15,0,,,,,,,,,,,,,,,,,,,,,,,,,,,,,,,,,,,,,,,,,,,,,,,,,,,,,,,,,,,,,,,,,,,,,,0.005,,,,,,,,,,,,,,,,,,,,,,,,,,,,left,0,100,30,130,1,2687.132535,2687.132535,2687.132535,None,None,4,0,0.7290686,,,,,,,,,,,,,,,,,,,10,18,1,2024-11-04_18h03.39.425,uWM_experiment,2022.2.3,60.00103202
,,,,,,,,,,,,,,,,,,,,6,0,6,0,16,0,16,0,,,,,,,,,,,,,,,,,,,,,,,,,,,,,,,,,,,,,,,,,,,,,,,,,,,,,,,,,,,,,,,,,,,,,,0.005,,,,,,,,,,,,,,,,,,,,,,,,,,,,left,0,130,30,160,1,2693.366138,2693.366138,2693.366138,None,None,4,0,0.439473,,,,,,,,,,,,,,,,,,,10,18,1,2024-11-04_18h03.39.425,uWM_experiment,2022.2.3,60.00103202
,,,,,,,,,,,,,,,,,,,,6,0,6,0,17,0,17,0,,,,,,,,,,,,,,,,,,,,,,,,,,,,,,,,,,,,,,,,,,,,,,,,,,,,,,,,,,,,,,,,,,,,,,0.005,,,,,,,,,,,,,,,,,,,,,,,,,,,,left,0,100,30,130,1,2699.333051,2699.333051,2699.333051,None,None,4,0,0.6325781,,,,,,,,,,,,,,,,,,,10,18,1,2024-11-04_18h03.39.425,uWM_experiment,2022.2.3,60.00103202
,,,,,,,,,,,,,,,,,,,,6,0,6,0,18,0,18,0,,,,,,,,,,,,,,,,,,,,,,,,,,,,,,,,,,,,,,,,,,,,,,,,,,,,,,,,,,,,,,,,,,,,,,0.005,,,,,,,,,,,,,,,,,,,,,,,,,,,,left,1,10,-30,-20,1,2705.483286,2705.483286,2705.483286,None,None,4,0,0.5782251,,,,,,,,,,,,,,,,,,,10,18,1,2024-11-04_18h03.39.425,uWM_experiment,2022.2.3,60.00103202
,,,,,,,,,,,,,,,,,,,,6,0,6,0,19,0,19,0,,,,,,,,,,,,,,,,,,,,,,,,,,,,,,,,,,,,,,,,,,,,,,,,,,,,,,,,,,,,,,,,,,,,,,0.005,,,,,,,,,,,,,,,,,,,,,,,,,,,,left,1,160,-30,130,1,2711.500183,2711.500183,2711.500183,None,None,4,0,0.4012515,,,,,,,,,,,,,,,,,,,10,18,1,2024-11-04_18h03.39.425,uWM_experiment,2022.2.3,60.00103202
,,,,,,,,,,,,,,,,,,,,6,0,6,0,20,0,20,0,,,,,,,,,,,,,,,,,,,,,,,,,,,,,,,,,,,,,,,,,,,,,,,,,,,,,,,,,,,,,,,,,,,,,,0,,,,,,,,,,,,,,,,,,,,,,,,,,,,right,0,100,-30,70,0,2717.667132,2717.667132,2717.667132,None,None,4,0,0.4424044,,,,,,,,,,,,,,,,,,,10,18,1,2024-11-04_18h03.39.425,uWM_experiment,2022.2.3,60.00103202
,,,,,,,,,,,,,,,,,,,,6,0,6,0,21,0,21,0,,,,,,,,,,,,,,,,,,,,,,,,,,,,,,,,,,,,,,,,,,,,,,,,,,,,,,,,,,,,,,,,,,,,,,0.005,,,,,,,,,,,,,,,,,,,,,,,,,,,,right,0,130,-30,100,1,2724.184052,2724.184052,2724.184052,None,None,4,0,0.4773891,,,,,,,,,,,,,,,,,,,10,18,1,2024-11-04_18h03.39.425,uWM_experiment,2022.2.3,60.00103202
,,,,,,,,,,,,,,,,,,,,6,0,6,0,22,0,22,0,,,,,,,,,,,,,,,,,,,,,,,,,,,,,,,,,,,,,,,,,,,,,,,,,,,,,,,,,,,,,,,,,,,,,,0.005,,,,,,,,,,,,,,,,,,,,,,,,,,,,right,0,100,-30,70,1,2730.200988,2730.200988,2730.200988,None,None,4,0,0.4284814,,,,,,,,,,,,,,,,,,,10,18,1,2024-11-04_18h03.39.425,uWM_experiment,2022.2.3,60.00103202
,,,,,,,,,,,,,,,,,,,,6,0,6,0,23,0,23,0,,,,,,,,,,,,,,,,,,,,,,,,,,,,,,,,,,,,,,,,,,,,,,,,,,,,,,,,,,,,,,,,,,,,,,0.005,,,,,,,,,,,,,,,,,,,,,,,,,,,,right,0,40,-30,10,1,2736.334554,2736.334554,2736.334554,None,None,4,0,0.4867994,,,,,,,,,,,,,,,,,,,10,18,1,2024-11-04_18h03.39.425,uWM_experiment,2022.2.3,60.00103202
,,,,,,,,,,,,,,,,,,,,6,0,6,0,,,,,0,0,0,0,,,,,,,,,,,,,,,,,,,,,,,,,,,,,,,,,,,,,,,,,,,,,,,,,,,,,,,,,,,,,,,,,,,,,,,,,,,,,,,,,,,,,,,,,,,,,,,,,,,,,,,,,,,,2736.851205,2736.851205,space,23.5942784,None,space,,,,,2760.468861,2760.468861,1.7125692,,,,,,10,18,1,2024-11-04_18h03.39.425,uWM_experiment,2022.2.3,60.00103202
,,,,,,,,,,,,,,,,,,,,6,0,6,0,,,,,1,0,1,0,,,,,,,,,,,,,,,,,,,,,,,,,,,,,,,,,,,,,,,,,,,,,,,,,,,,,,,,,,,,,,,,,,,,,,,,,,,,,,,,,,,,,,,,,,,,,,,,,,,,,,,,,,,,,,,,,,,,,,,,,,,,,,10,18,1,2024-11-04_18h03.39.425,uWM_experiment,2022.2.3,60.00103202
,,,,,,,,,,,,,,,,,,,,6,0,6,0,,,,,2,0,2,0,,,,,,,,,,,,,,,,,,,,,,,,,,,,,,,,,,,,,,,,,,,,,,,,,,,,,,,,,,,,,,,,,,,,,,,,,,,,,,,,,,,,,,,,,,,,,,,,,,,,,,,,,,,,,,,,,,,,,,,,,,,,,,10,18,1,2024-11-04_18h03.39.425,uWM_experiment,2022.2.3,60.00103202
,,,,,,,,,,,,,,,,,,,,7,0,7,0,0,0,0,0,,,,,,,,,,,,,,,,,,,,,,,,,,,,,,,,,,,,,,,,,,,,,,,,,,,,,,,,,,,,,,,,,,,,,,0.005,,,,,,,,,,,,,,,,,,,,2804.537341,2805.23737,2805.520723,2806.220743,2806.520765,2807.220783,2807.220783,2807.537487,left,1,160,-30,130,1,2812.237679,2812.237679,2812.237679,None,None,1,1,0.7755562,,,,,,,space,,,,,,,2793.336894,2793.336894,11.1723811,,,10,18,1,2024-11-04_18h03.39.425,uWM_experiment,2022.2.3,60.00103202
,,,,,,,,,,,,,,,,,,,,7,0,7,0,1,0,1,0,,,,,,,,,,,,,,,,,,,,,,,,,,,,,,,,,,,,,,,,,,,,,,,,,,,,,,,,,,,,,,,,,,,,,,0.015,,,,,,,,,,,,,,,,,,,,,,,,,,,,right,1,40,30,70,1,2818.787917,2818.787917,2818.787917,None,None,4,0,1.0973388,,,,,,,,,,,,,,,,,,,10,18,1,2024-11-04_18h03.39.425,uWM_experiment,2022.2.3,60.00103202
,,,,,,,,,,,,,,,,,,,,7,0,7,0,2,0,2,0,,,,,,,,,,,,,,,,,,,,,,,,,,,,,,,,,,,,,,,,,,,,,,,,,,,,,,,,,,,,,,,,,,,,,,0,,,,,,,,,,,,,,,,,,,,,,,,,,,,right,1,160,30,190,0,2825.621559,2825.621559,2825.621559,None,None,4,0,0.4636729,,,,,,,,,,,,,,,,,,,10,18,1,2024-11-04_18h03.39.425,uWM_experiment,2022.2.3,60.00103202
,,,,,,,,,,,,,,,,,,,,7,0,7,0,3,0,3,0,,,,,,,,,,,,,,,,,,,,,,,,,,,,,,,,,,,,,,,,,,,,,,,,,,,,,,,,,,,,,,,,,,,,,,0,,,,,,,,,,,,,,,,,,,,,,,,,,,,left,0,130,30,160,0,2831.771802,2831.771802,2831.771802,None,None,4,0,0.3933608,,,,,,,,,,,,,,,,,,,10,18,1,2024-11-04_18h03.39.425,uWM_experiment,2022.2.3,60.00103202
,,,,,,,,,,,,,,,,,,,,7,0,7,0,4,0,4,0,,,,,,,,,,,,,,,,,,,,,,,,,,,,,,,,,,,,,,,,,,,,,,,,,,,,,,,,,,,,,,,,,,,,,,0.005,,,,,,,,,,,,,,,,,,,,,,,,,,,,left,0,70,30,100,1,2837.722051,2837.722051,2837.722051,None,None,4,0,0.40297,,,,,,,,,,,,,,,,,,,10,18,1,2024-11-04_18h03.39.425,uWM_experiment,2022.2.3,60.00103202
,,,,,,,,,,,,,,,,,,,,7,0,7,0,5,0,5,0,,,,,,,,,,,,,,,,,,,,,,,,,,,,,,,,,,,,,,,,,,,,,,,,,,,,,,,,,,,,,,,,,,,,,,0.005,,,,,,,,,,,,,,,,,,,,,,,,,,,,left,0,70,30,100,1,2843.638943,2843.638943,2843.638943,None,None,4,0,0.3581598,,,,,,,,,,,,,,,,,,,10,18,1,2024-11-04_18h03.39.425,uWM_experiment,2022.2.3,60.00103202
,,,,,,,,,,,,,,,,,,,,7,0,7,0,6,0,6,0,,,,,,,,,,,,,,,,,,,,,,,,,,,,,,,,,,,,,,,,,,,,,,,,,,,,,,,,,,,,,,,,,,,,,,0.005,,,,,,,,,,,,,,,,,,,,,,,,,,,,left,0,70,30,100,1,2849.589212,2849.589212,2849.589212,None,None,4,0,0.3517907,,,,,,,,,,,,,,,,,,,10,18,1,2024-11-04_18h03.39.425,uWM_experiment,2022.2.3,60.00103202
,,,,,,,,,,,,,,,,,,,,7,0,7,0,7,0,7,0,,,,,,,,,,,,,,,,,,,,,,,,,,,,,,,,,,,,,,,,,,,,,,,,,,,,,,,,,,,,,,,,,,,,,,0.005,,,,,,,,,,,,,,,,,,,,,,,,,,,,left,1,10,-30,-20,1,2855.472781,2855.472781,2855.472781,None,None,4,0,0.412269,,,,,,,,,,,,,,,,,,,10,18,1,2024-11-04_18h03.39.425,uWM_experiment,2022.2.3,60.00103202
,,,,,,,,,,,,,,,,,,,,7,0,7,0,8,0,8,0,,,,,,,,,,,,,,,,,,,,,,,,,,,,,,,,,,,,,,,,,,,,,,,,,,,,,,,,,,,,,,,,,,,,,,0,,,,,,,,,,,,,,,,,,,,,,,,,,,,left,0,70,30,100,0,2861.339682,2861.339682,2861.339682,None,None,4,0,0.3212537,,,,,,,,,,,,,,,,,,,10,18,1,2024-11-04_18h03.39.425,uWM_experiment,2022.2.3,60.00103202
,,,,,,,,,,,,,,,,,,,,7,0,7,0,9,0,9,0,,,,,,,,,,,,,,,,,,,,,,,,,,,,,,,,,,,,,,,,,,,,,,,,,,,,,,,,,,,,,,,,,,,,,,0,,,,,,,,,,,,,,,,,,,,,,,,,,,,left,0,70,30,100,0,2867.123268,2867.123268,2867.123268,None,None,4,0,0.3458243,,,,,,,,,,,,,,,,,,,10,18,1,2024-11-04_18h03.39.425,uWM_experiment,2022.2.3,60.00103202
,,,,,,,,,,,,,,,,,,,,7,0,7,0,10,0,10,0,,,,,,,,,,,,,,,,,,,,,,,,,,,,,,,,,,,,,,,,,,,,,,,,,,,,,,,,,,,,,,,,,,,,,,0.005,,,,,,,,,,,,,,,,,,,,,,,,,,,,right,1,40,30,70,1,2873.206828,2873.206828,2873.206828,None,None,4,0,0.3340801,,,,,,,,,,,,,,,,,,,10,18,1,2024-11-04_18h03.39.425,uWM_experiment,2022.2.3,60.00103202
,,,,,,,,,,,,,,,,,,,,7,0,7,0,11,0,11,0,,,,,,,,,,,,,,,,,,,,,,,,,,,,,,,,,,,,,,,,,,,,,,,,,,,,,,,,,,,,,,,,,,,,,,0.005,,,,,,,,,,,,,,,,,,,,,,,,,,,,right,0,70,-30,40,1,2879.20707,2879.20707,2879.20707,None,None,4,0,0.3899045,,,,,,,,,,,,,,,,,,,10,18,1,2024-11-04_18h03.39.425,uWM_experiment,2022.2.3,60.00103202
,,,,,,,,,,,,,,,,,,,,7,0,7,0,12,0,12,0,,,,,,,,,,,,,,,,,,,,,,,,,,,,,,,,,,,,,,,,,,,,,,,,,,,,,,,,,,,,,,,,,,,,,,0,,,,,,,,,,,,,,,,,,,,,,,,,,,,right,1,10,30,40,0,2885.057294,2885.057294,2885.057294,None,None,4,0,0.3876164,,,,,,,,,,,,,,,,,,,10,18,1,2024-11-04_18h03.39.425,uWM_experiment,2022.2.3,60.00103202
,,,,,,,,,,,,,,,,,,,,7,0,7,0,13,0,13,0,,,,,,,,,,,,,,,,,,,,,,,,,,,,,,,,,,,,,,,,,,,,,,,,,,,,,,,,,,,,,,,,,,,,,,0.005,,,,,,,,,,,,,,,,,,,,,,,,,,,,right,1,70,30,100,1,2890.940891,2890.940891,2890.940891,None,None,4,0,0.4000562,,,,,,,,,,,,,,,,,,,10,18,1,2024-11-04_18h03.39.425,uWM_experiment,2022.2.3,60.00103202
,,,,,,,,,,,,,,,,,,,,7,0,7,0,14,0,14,0,,,,,,,,,,,,,,,,,,,,,,,,,,,,,,,,,,,,,,,,,,,,,,,,,,,,,,,,,,,,,,,,,,,,,,0,,,,,,,,,,,,,,,,,,,,,,,,,,,,left,1,10,-30,-20,0,2897.207798,2897.207798,2897.207798,None,None,4,0,0.5332693,,,,,,,,,,,,,,,,,,,10,18,1,2024-11-04_18h03.39.425,uWM_experiment,2022.2.3,60.00103202
,,,,,,,,,,,,,,,,,,,,7,0,7,0,15,0,15,0,,,,,,,,,,,,,,,,,,,,,,,,,,,,,,,,,,,,,,,,,,,,,,,,,,,,,,,,,,,,,,,,,,,,,,0,,,,,,,,,,,,,,,,,,,,,,,,,,,,left,0,130,30,160,0,2903.124719,2903.124719,2903.124719,None,None,4,0,0.392198,,,,,,,,,,,,,,,,,,,10,18,1,2024-11-04_18h03.39.425,uWM_experiment,2022.2.3,60.00103202
,,,,,,,,,,,,,,,,,,,,7,0,7,0,16,0,16,0,,,,,,,,,,,,,,,,,,,,,,,,,,,,,,,,,,,,,,,,,,,,,,,,,,,,,,,,,,,,,,,,,,,,,,0.1,,,,,,,,,,,,,,,,,,,,,,,,,,,,left,0,70,30,100,2,2909.29165,2909.29165,2909.29165,None,None,4,0,0.5051672,,,,,,,,,,,,,,,,,,,10,18,1,2024-11-04_18h03.39.425,uWM_experiment,2022.2.3,60.00103202
,,,,,,,,,,,,,,,,,,,,7,0,7,0,17,0,17,0,,,,,,,,,,,,,,,,,,,,,,,,,,,,,,,,,,,,,,,,,,,,,,,,,,,,,,,,,,,,,,,,,,,,,,0,,,,,,,,,,,,,,,,,,,,,,,,,,,,right,1,130,30,160,0,2915.391901,2915.391901,2915.391901,None,None,4,0,0.5330348,,,,,,,,,,,,,,,,,,,10,18,1,2024-11-04_18h03.39.425,uWM_experiment,2022.2.3,60.00103202
,,,,,,,,,,,,,,,,,,,,7,0,7,0,18,0,18,0,,,,,,,,,,,,,,,,,,,,,,,,,,,,,,,,,,,,,,,,,,,,,,,,,,,,,,,,,,,,,,,,,,,,,,0.1,,,,,,,,,,,,,,,,,,,,,,,,,,,,right,1,40,30,70,2,2921.692144,2921.692144,2921.692144,None,None,4,0,0.504645,,,,,,,,,,,,,,,,,,,10,18,1,2024-11-04_18h03.39.425,uWM_experiment,2022.2.3,60.00103202
,,,,,,,,,,,,,,,,,,,,7,0,7,0,19,0,19,0,,,,,,,,,,,,,,,,,,,,,,,,,,,,,,,,,,,,,,,,,,,,,,,,,,,,,,,,,,,,,,,,,,,,,,0.005,,,,,,,,,,,,,,,,,,,,,,,,,,,,right,0,100,-30,70,1,2928.209095,2928.209095,2928.209095,None,None,4,0,0.4838237,,,,,,,,,,,,,,,,,,,10,18,1,2024-11-04_18h03.39.425,uWM_experiment,2022.2.3,60.00103202
,,,,,,,,,,,,,,,,,,,,7,0,7,0,20,0,20,0,,,,,,,,,,,,,,,,,,,,,,,,,,,,,,,,,,,,,,,,,,,,,,,,,,,,,,,,,,,,,,,,,,,,,,0,,,,,,,,,,,,,,,,,,,,,,,,,,,,right,1,160,30,190,0,2934.292661,2934.292661,2934.292661,None,None,4,0,0.3840994,,,,,,,,,,,,,,,,,,,10,18,1,2024-11-04_18h03.39.425,uWM_experiment,2022.2.3,60.00103202
,,,,,,,,,,,,,,,,,,,,7,0,7,0,21,0,21,0,,,,,,,,,,,,,,,,,,,,,,,,,,,,,,,,,,,,,,,,,,,,,,,,,,,,,,,,,,,,,,,,,,,,,,0,,,,,,,,,,,,,,,,,,,,,,,,,,,,right,0,10,-30,-20,0,2940.226241,2940.226241,2940.226241,None,None,4,0,0.4024837,,,,,,,,,,,,,,,,,,,10,18,1,2024-11-04_18h03.39.425,uWM_experiment,2022.2.3,60.00103202
,,,,,,,,,,,,,,,,,,,,7,0,7,0,22,0,22,0,,,,,,,,,,,,,,,,,,,,,,,,,,,,,,,,,,,,,,,,,,,,,,,,,,,,,,,,,,,,,,,,,,,,,,0,,,,,,,,,,,,,,,,,,,,,,,,,,,,left,1,160,-30,130,0,2946.643177,2946.643177,2946.643177,None,None,4,0,0.4816186,,,,,,,,,,,,,,,,,,,10,18,1,2024-11-04_18h03.39.425,uWM_experiment,2022.2.3,60.00103202
,,,,,,,,,,,,,,,,,,,,7,0,7,0,23,0,23,0,,,,,,,,,,,,,,,,,,,,,,,,,,,,,,,,,,,,,,,,,,,,,,,,,,,,,,,,,,,,,,,,,,,,,,0.005,,,,,,,,,,,,,,,,,,,,,,,,,,,,right,1,10,30,40,1,2952.326764,2952.326764,2952.326764,None,None,4,0,0.5739539,,,,,,,,,,,,,,,,,,,10,18,1,2024-11-04_18h03.39.425,uWM_experiment,2022.2.3,60.00103202
,,,,,,,,,,,,,,,,,,,,7,0,7,0,,,,,0,0,0,0,,,,,,,,,,,,,,,,,,,,,,,,,,,,,,,,,,,,,,,,,,,,,,,,,,,,,,,,,,,,,,,,,,,,,,,,,,,,,,,,,,,,,,,,,,,,,,,,,,,,,,,,,,,,2952.926735,2952.926735,space,15.230011,None,None,,,,,,,,,,,,,10,18,1,2024-11-04_18h03.39.425,uWM_experiment,2022.2.3,60.00103202
,,,,,,,,,,,,,,,,,,,,7,0,7,0,,,,,1,0,1,0,,,,,,,,,,,,,,,,,,,,,,,,,,,,,,,,,,,,,,,,,,,,,,,,,,,,,,,,,,,,,,,,,,,,,,,,,,,,,,,,,,,,,,,,,,,,,,,,,,,,,,,,,,,,,,,,,,,,,,,,,,,,,,10,18,1,2024-11-04_18h03.39.425,uWM_experiment,2022.2.3,60.00103202
,,,,,,,,,,,,,,,,,,,,7,0,7,0,,,,,2,0,2,0,,,,,,,,,,,,,,,,,,,,,,,,,,,,,,,,,,,,,,,,,,,,,,,,,,,,,,,,,,,,,,,,,,,,,,,,,,,,,,,,,,,,,,,,,,,,,,,,,,,,,,,,,,,,,,,,,,,,,,,,,,,,,,10,18,1,2024-11-04_18h03.39.425,uWM_experiment,2022.2.3,60.00103202
,,,,,,,,,,,,,,,,,,,,8,0,8,0,0,0,0,0,,,,,,,,,,,,,,,,,,,,,,,,,,,,,,,,,,,,,,,,,,,,,,,,,,,,,,,,,,,,,,,,,,,,,,0,,,,,,,,,,,,,,,,,,,,2968.17737,2968.877391,2969.177407,2969.877438,2970.177495,2970.877466,2970.877466,2971.194171,left,1,10,-30,-20,0,2975.894373,2975.894373,2975.894373,None,None,4,0,0.9502818,,,,,,,None,,,,,,,,,,,,10,18,1,2024-11-04_18h03.39.425,uWM_experiment,2022.2.3,60.00103202
,,,,,,,,,,,,,,,,,,,,8,0,8,0,1,0,1,0,,,,,,,,,,,,,,,,,,,,,,,,,,,,,,,,,,,,,,,,,,,,,,,,,,,,,,,,,,,,,,,,,,,,,,0,,,,,,,,,,,,,,,,,,,,,,,,,,,,right,0,40,-30,10,0,2982.827975,2982.827975,2982.827975,None,None,4,0,0.3525738,,,,,,,,,,,,,,,,,,,10,18,1,2024-11-04_18h03.39.425,uWM_experiment,2022.2.3,60.00103202
,,,,,,,,,,,,,,,,,,,,8,0,8,0,2,0,2,0,,,,,,,,,,,,,,,,,,,,,,,,,,,,,,,,,,,,,,,,,,,,,,,,,,,,,,,,,,,,,,,,,,,,,,0.005,,,,,,,,,,,,,,,,,,,,,,,,,,,,right,0,100,-30,70,1,2988.861548,2988.861548,2988.861548,None,None,4,0,0.3671266,,,,,,,,,,,,,,,,,,,10,18,1,2024-11-04_18h03.39.425,uWM_experiment,2022.2.3,60.00103202
,,,,,,,,,,,,,,,,,,,,8,0,8,0,3,0,3,0,,,,,,,,,,,,,,,,,,,,,,,,,,,,,,,,,,,,,,,,,,,,,,,,,,,,,,,,,,,,,,,,,,,,,,0.005,,,,,,,,,,,,,,,,,,,,,,,,,,,,left,0,70,30,100,1,2995.328487,2995.328487,2995.328487,None,None,4,0,0.4360626,,,,,,,,,,,,,,,,,,,10,18,1,2024-11-04_18h03.39.425,uWM_experiment,2022.2.3,60.00103202
,,,,,,,,,,,,,,,,,,,,8,0,8,0,4,0,4,0,,,,,,,,,,,,,,,,,,,,,,,,,,,,,,,,,,,,,,,,,,,,,,,,,,,,,,,,,,,,,,,,,,,,,,0,,,,,,,,,,,,,,,,,,,,,,,,,,,,left,0,130,30,160,0,3001.545447,3001.545447,3001.545447,None,None,4,0,0.3230968,,,,,,,,,,,,,,,,,,,10,18,1,2024-11-04_18h03.39.425,uWM_experiment,2022.2.3,60.00103202
,,,,,,,,,,,,,,,,,,,,8,0,8,0,5,0,5,0,,,,,,,,,,,,,,,,,,,,,,,,,,,,,,,,,,,,,,,,,,,,,,,,,,,,,,,,,,,,,,,,,,,,,,0.005,,,,,,,,,,,,,,,,,,,,,,,,,,,,right,1,10,30,40,1,3007.528994,3007.528994,3007.528994,None,None,4,0,0.3076338,,,,,,,,,,,,,,,,,,,10,18,1,2024-11-04_18h03.39.425,uWM_experiment,2022.2.3,60.00103202
,,,,,,,,,,,,,,,,,,,,8,0,8,0,6,0,6,0,,,,,,,,,,,,,,,,,,,,,,,,,,,,,,,,,,,,,,,,,,,,,,,,,,,,,,,,,,,,,,,,,,,,,,0,,,,,,,,,,,,,,,,,,,,,,,,,,,,right,1,40,30,70,0,3013.329221,3013.329221,3013.329221,None,None,4,0,0.3073978,,,,,,,,,,,,,,,,,,,10,18,1,2024-11-04_18h03.39.425,uWM_experiment,2022.2.3,60.00103202
,,,,,,,,,,,,,,,,,,,,8,0,8,0,7,0,7,0,,,,,,,,,,,,,,,,,,,,,,,,,,,,,,,,,,,,,,,,,,,,,,,,,,,,,,,,,,,,,,,,,,,,,,0.005,,,,,,,,,,,,,,,,,,,,,,,,,,,,right,0,100,-30,70,1,3019.179469,3019.179469,3019.179469,None,None,4,0,0.27302,,,,,,,,,,,,,,,,,,,10,18,1,2024-11-04_18h03.39.425,uWM_experiment,2022.2.3,60.00103202
,,,,,,,,,,,,,,,,,,,,8,0,8,0,8,0,8,0,,,,,,,,,,,,,,,,,,,,,,,,,,,,,,,,,,,,,,,,,,,,,,,,,,,,,,,,,,,,,,,,,,,,,,0.005,,,,,,,,,,,,,,,,,,,,,,,,,,,,left,1,160,-30,130,1,3025.446389,3025.446389,3025.446389,None,None,4,0,0.2220348,,,,,,,,,,,,,,,,,,,10,18,1,2024-11-04_18h03.39.425,uWM_experiment,2022.2.3,60.00103202
,,,,,,,,,,,,,,,,,,,,8,0,8,0,9,0,9,0,,,,,,,,,,,,,,,,,,,,,,,,,,,,,,,,,,,,,,,,,,,,,,,,,,,,,,,,,,,,,,,,,,,,,,0.005,,,,,,,,,,,,,,,,,,,,,,,,,,,,right,1,40,30,70,1,3031.296644,3031.296644,3031.296644,None,None,4,0,0.2758468,,,,,,,,,,,,,,,,,,,10,18,1,2024-11-04_18h03.39.425,uWM_experiment,2022.2.3,60.00103202
,,,,,,,,,,,,,,,,,,,,8,0,8,0,10,0,10,0,,,,,,,,,,,,,,,,,,,,,,,,,,,,,,,,,,,,,,,,,,,,,,,,,,,,,,,,,,,,,,,,,,,,,,0.005,,,,,,,,,,,,,,,,,,,,,,,,,,,,right,0,70,-30,40,1,3037.163516,3037.163516,3037.163516,None,None,4,0,0.2729349,,,,,,,,,,,,,,,,,,,10,18,1,2024-11-04_18h03.39.425,uWM_experiment,2022.2.3,60.00103202
,,,,,,,,,,,,,,,,,,,,8,0,8,0,11,0,11,0,,,,,,,,,,,,,,,,,,,,,,,,,,,,,,,,,,,,,,,,,,,,,,,,,,,,,,,,,,,,,,,,,,,,,,0.005,,,,,,,,,,,,,,,,,,,,,,,,,,,,right,0,130,-30,100,1,3043.580452,3043.580452,3043.580452,None,None,4,0,0.4640307,,,,,,,,,,,,,,,,,,,10,18,1,2024-11-04_18h03.39.425,uWM_experiment,2022.2.3,60.00103202
,,,,,,,,,,,,,,,,,,,,8,0,8,0,12,0,12,0,,,,,,,,,,,,,,,,,,,,,,,,,,,,,,,,,,,,,,,,,,,,,,,,,,,,,,,,,,,,,,,,,,,,,,0,,,,,,,,,,,,,,,,,,,,,,,,,,,,right,0,100,-30,70,0,3049.697377,3049.697377,3049.697377,None,None,4,0,0.386982,,,,,,,,,,,,,,,,,,,10,18,1,2024-11-04_18h03.39.425,uWM_experiment,2022.2.3,60.00103202
,,,,,,,,,,,,,,,,,,,,8,0,8,0,13,0,13,0,,,,,,,,,,,,,,,,,,,,,,,,,,,,,,,,,,,,,,,,,,,,,,,,,,,,,,,,,,,,,,,,,,,,,,0,,,,,,,,,,,,,,,,,,,,,,,,,,,,right,0,70,-30,40,0,3055.880996,3055.880996,3055.880996,None,None,4,0,0.531496,,,,,,,,,,,,,,,,,,,10,18,1,2024-11-04_18h03.39.425,uWM_experiment,2022.2.3,60.00103202
,,,,,,,,,,,,,,,,,,,,8,0,8,0,14,0,14,0,,,,,,,,,,,,,,,,,,,,,,,,,,,,,,,,,,,,,,,,,,,,,,,,,,,,,,,,,,,,,,,,,,,,,,0.005,,,,,,,,,,,,,,,,,,,,,,,,,,,,right,0,100,-30,70,1,3062.031221,3062.031221,3062.031221,None,None,4,0,0.4691242,,,,,,,,,,,,,,,,,,,10,18,1,2024-11-04_18h03.39.425,uWM_experiment,2022.2.3,60.00103202
,,,,,,,,,,,,,,,,,,,,8,0,8,0,15,0,15,0,,,,,,,,,,,,,,,,,,,,,,,,,,,,,,,,,,,,,,,,,,,,,,,,,,,,,,,,,,,,,,,,,,,,,,0,,,,,,,,,,,,,,,,,,,,,,,,,,,,right,0,70,-30,40,0,3068.081489,3068.081489,3068.081489,None,None,4,0,0.4668825,,,,,,,,,,,,,,,,,,,10,18,1,2024-11-04_18h03.39.425,uWM_experiment,2022.2.3,60.00103202
,,,,,,,,,,,,,,,,,,,,8,0,8,0,16,0,16,0,,,,,,,,,,,,,,,,,,,,,,,,,,,,,,,,,,,,,,,,,,,,,,,,,,,,,,,,,,,,,,,,,,,,,,0.005,,,,,,,,,,,,,,,,,,,,,,,,,,,,right,0,130,-30,100,1,3074.13172,3074.13172,3074.13172,None,None,4,0,0.3926458,,,,,,,,,,,,,,,,,,,10,18,1,2024-11-04_18h03.39.425,uWM_experiment,2022.2.3,60.00103202
,,,,,,,,,,,,,,,,,,,,8,0,8,0,17,0,17,0,,,,,,,,,,,,,,,,,,,,,,,,,,,,,,,,,,,,,,,,,,,,,,,,,,,,,,,,,,,,,,,,,,,,,,0,,,,,,,,,,,,,,,,,,,,,,,,,,,,left,0,100,30,130,0,3080.248631,3080.248631,3080.248631,None,None,4,0,0.3957227,,,,,,,,,,,,,,,,,,,10,18,1,2024-11-04_18h03.39.425,uWM_experiment,2022.2.3,60.00103202
,,,,,,,,,,,,,,,,,,,,8,0,8,0,18,0,18,0,,,,,,,,,,,,,,,,,,,,,,,,,,,,,,,,,,,,,,,,,,,,,,,,,,,,,,,,,,,,,,,,,,,,,,0.1,,,,,,,,,,,,,,,,,,,,,,,,,,,,left,1,130,-30,100,2,3086.19886,3086.19886,3086.19886,None,None,4,0,0.8134645,,,,,,,,,,,,,,,,,,,10,18,1,2024-11-04_18h03.39.425,uWM_experiment,2022.2.3,60.00103202
,,,,,,,,,,,,,,,,,,,,8,0,8,0,19,0,19,0,,,,,,,,,,,,,,,,,,,,,,,,,,,,,,,,,,,,,,,,,,,,,,,,,,,,,,,,,,,,,,,,,,,,,,0.005,,,,,,,,,,,,,,,,,,,,,,,,,,,,left,0,70,30,100,1,3092.71582,3092.71582,3092.71582,None,None,4,0,0.496514,,,,,,,,,,,,,,,,,,,10,18,1,2024-11-04_18h03.39.425,uWM_experiment,2022.2.3,60.00103202
,,,,,,,,,,,,,,,,,,,,8,0,8,0,20,0,20,0,,,,,,,,,,,,,,,,,,,,,,,,,,,,,,,,,,,,,,,,,,,,,,,,,,,,,,,,,,,,,,,,,,,,,,0.005,,,,,,,,,,,,,,,,,,,,,,,,,,,,left,0,100,30,130,1,3098.766047,3098.766047,3098.766047,None,None,4,0,0.3582384,,,,,,,,,,,,,,,,,,,10,18,1,2024-11-04_18h03.39.425,uWM_experiment,2022.2.3,60.00103202
,,,,,,,,,,,,,,,,,,,,8,0,8,0,21,0,21,0,,,,,,,,,,,,,,,,,,,,,,,,,,,,,,,,,,,,,,,,,,,,,,,,,,,,,,,,,,,,,,,,,,,,,,0.005,,,,,,,,,,,,,,,,,,,,,,,,,,,,right,0,40,-30,10,1,3104.699634,3104.699634,3104.699634,None,None,4,0,0.4006009,,,,,,,,,,,,,,,,,,,10,18,1,2024-11-04_18h03.39.425,uWM_experiment,2022.2.3,60.00103202
,,,,,,,,,,,,,,,,,,,,8,0,8,0,22,0,22,0,,,,,,,,,,,,,,,,,,,,,,,,,,,,,,,,,,,,,,,,,,,,,,,,,,,,,,,,,,,,,,,,,,,,,,0.005,,,,,,,,,,,,,,,,,,,,,,,,,,,,left,0,130,30,160,1,3110.816553,3110.816553,3110.816553,None,None,4,0,0.4116686,,,,,,,,,,,,,,,,,,,10,18,1,2024-11-04_18h03.39.425,uWM_experiment,2022.2.3,60.00103202
,,,,,,,,,,,,,,,,,,,,8,0,8,0,23,0,23,0,,,,,,,,,,,,,,,,,,,,,,,,,,,,,,,,,,,,,,,,,,,,,,,,,,,,,,,,,,,,,,,,,,,,,,0.005,,,,,,,,,,,,,,,,,,,,,,,,,,,,left,0,100,30,130,1,3116.766793,3116.766793,3116.766793,None,None,4,0,0.4614479,,,,,,,,,,,,,,,,,,,10,18,1,2024-11-04_18h03.39.425,uWM_experiment,2022.2.3,60.00103202
,,,,,,,,,,,,,,,,,,,,8,0,8,0,,,,,0,0,0,0,,,,,,,,,,,,,,,,,,,,,,,,,,,,,,,,,,,,,,,,,,,,,,,,,,,,,,,,,,,,,,,,,,,,,,,,,,,,,,,,,,,,,,,,,,,,,,,,,,,,,,,,,,,,3117.250143,3117.250143,space,31.6979983,space,None,,3148.968132,3148.968132,14.7960294,,,,,,,,,10,18,1,2024-11-04_18h03.39.425,uWM_experiment,2022.2.3,60.00103202
,,,,,,,,,,,,,,,,,,,,8,0,8,0,,,,,1,0,1,0,,,,,,,,,,,,,,,,,,,,,,,,,,,,,,,,,,,,,,,,,,,,,,,,,,,,,,,,,,,,,,,,,,,,,,,,,,,,,,,,,,,,,,,,,,,,,,,,,,,,,,,,,,,,,,,,,,,,,,,,,,,,,,10,18,1,2024-11-04_18h03.39.425,uWM_experiment,2022.2.3,60.00103202
,,,,,,,,,,,,,,,,,,,,8,0,8,0,,,,,2,0,2,0,,,,,,,,,,,,,,,,,,,,,,,,,,,,,,,,,,,,,,,,,,,,,,,,,,,,,,,,,,,,,,,,,,,,,,,,,,,,,,,,,,,,,,,,,,,,,,,,,,,,,,,,,,,,,,,,,,,,,,,,,,,,,,10,18,1,2024-11-04_18h03.39.425,uWM_experiment,2022.2.3,60.00103202
,,,,,,,,,,,,,,,,,,,,9,0,9,0,0,0,0,0,,,,,,,,,,,,,,,,,,,,,,,,,,,,,,,,,,,,,,,,,,,,,,,,,,,,,,,,,,,,,,,,,,,,,,0.005,,,,,,,,,,,,,,,,,,,,3163.785378,3164.485405,3164.785419,3165.485447,3165.785477,3166.48549,3166.48549,3166.80218,right,1,70,30,100,1,3172.035729,3172.035729,3172.035729,None,None,4,0,0.8482966,,,,,,,None,,,,,,,,,,,,10,18,1,2024-11-04_18h03.39.425,uWM_experiment,2022.2.3,60.00103202
,,,,,,,,,,,,,,,,,,,,9,0,9,0,1,0,1,0,,,,,,,,,,,,,,,,,,,,,,,,,,,,,,,,,,,,,,,,,,,,,,,,,,,,,,,,,,,,,,,,,,,,,,0,,,,,,,,,,,,,,,,,,,,,,,,,,,,left,0,70,30,100,0,3179.00268,3179.00268,3179.00268,None,None,4,0,0.5692895,,,,,,,,,,,,,,,,,,,10,18,1,2024-11-04_18h03.39.425,uWM_experiment,2022.2.3,60.00103202
,,,,,,,,,,,,,,,,,,,,9,0,9,0,2,0,2,0,,,,,,,,,,,,,,,,,,,,,,,,,,,,,,,,,,,,,,,,,,,,,,,,,,,,,,,,,,,,,,,,,,,,,,0.005,,,,,,,,,,,,,,,,,,,,,,,,,,,,right,0,70,-30,40,1,3185.2696,3185.2696,3185.2696,None,None,4,0,0.5664004,,,,,,,,,,,,,,,,,,,10,18,1,2024-11-04_18h03.39.425,uWM_experiment,2022.2.3,60.00103202
,,,,,,,,,,,,,,,,,,,,9,0,9,0,3,0,3,0,,,,,,,,,,,,,,,,,,,,,,,,,,,,,,,,,,,,,,,,,,,,,,,,,,,,,,,,,,,,,,,,,,,,,,0.005,,,,,,,,,,,,,,,,,,,,,,,,,,,,left,1,40,-30,10,1,3191.953213,3191.953213,3191.953213,None,None,4,0,0.3706916,,,,,,,,,,,,,,,,,,,10,18,1,2024-11-04_18h03.39.425,uWM_experiment,2022.2.3,60.00103202
,,,,,,,,,,,,,,,,,,,,9,0,9,0,4,0,4,0,,,,,,,,,,,,,,,,,,,,,,,,,,,,,,,,,,,,,,,,,,,,,,,,,,,,,,,,,,,,,,,,,,,,,,0,,,,,,,,,,,,,,,,,,,,,,,,,,,,right,0,160,-30,130,0,3198.053459,3198.053459,3198.053459,None,None,4,0,0.4385051,,,,,,,,,,,,,,,,,,,10,18,1,2024-11-04_18h03.39.425,uWM_experiment,2022.2.3,60.00103202
,,,,,,,,,,,,,,,,,,,,9,0,9,0,5,0,5,0,,,,,,,,,,,,,,,,,,,,,,,,,,,,,,,,,,,,,,,,,,,,,,,,,,,,,,,,,,,,,,,,,,,,,,0.005,,,,,,,,,,,,,,,,,,,,,,,,,,,,left,0,160,30,190,1,3204.137025,3204.137025,3204.137025,None,None,4,0,0.3548809,,,,,,,,,,,,,,,,,,,10,18,1,2024-11-04_18h03.39.425,uWM_experiment,2022.2.3,60.00103202
,,,,,,,,,,,,,,,,,,,,9,0,9,0,6,0,6,0,,,,,,,,,,,,,,,,,,,,,,,,,,,,,,,,,,,,,,,,,,,,,,,,,,,,,,,,,,,,,,,,,,,,,,0.005,,,,,,,,,,,,,,,,,,,,,,,,,,,,right,0,40,-30,10,1,3210.170634,3210.170634,3210.170634,None,None,4,0,0.3612236,,,,,,,,,,,,,,,,,,,10,18,1,2024-11-04_18h03.39.425,uWM_experiment,2022.2.3,60.00103202
,,,,,,,,,,,,,,,,,,,,9,0,9,0,7,0,7,0,,,,,,,,,,,,,,,,,,,,,,,,,,,,,,,,,,,,,,,,,,,,,,,,,,,,,,,,,,,,,,,,,,,,,,0.005,,,,,,,,,,,,,,,,,,,,,,,,,,,,right,1,40,30,70,1,3216.337544,3216.337544,3216.337544,None,None,4,0,0.4423734,,,,,,,,,,,,,,,,,,,10,18,1,2024-11-04_18h03.39.425,uWM_experiment,2022.2.3,60.00103202
,,,,,,,,,,,,,,,,,,,,9,0,9,0,8,0,8,0,,,,,,,,,,,,,,,,,,,,,,,,,,,,,,,,,,,,,,,,,,,,,,,,,,,,,,,,,,,,,,,,,,,,,,0.005,,,,,,,,,,,,,,,,,,,,,,,,,,,,left,0,100,30,130,1,3222.887809,3222.887809,3222.887809,None,None,4,0,0.3320495,,,,,,,,,,,,,,,,,,,10,18,1,2024-11-04_18h03.39.425,uWM_experiment,2022.2.3,60.00103202
,,,,,,,,,,,,,,,,,,,,9,0,9,0,9,0,9,0,,,,,,,,,,,,,,,,,,,,,,,,,,,,,,,,,,,,,,,,,,,,,,,,,,,,,,,,,,,,,,,,,,,,,,0.005,,,,,,,,,,,,,,,,,,,,,,,,,,,,right,0,100,-30,70,1,3228.971408,3228.971408,3228.971408,None,None,4,0,0.3124386,,,,,,,,,,,,,,,,,,,10,18,1,2024-11-04_18h03.39.425,uWM_experiment,2022.2.3,60.00103202
,,,,,,,,,,,,,,,,,,,,9,0,9,0,10,0,10,0,,,,,,,,,,,,,,,,,,,,,,,,,,,,,,,,,,,,,,,,,,,,,,,,,,,,,,,,,,,,,,,,,,,,,,0.005,,,,,,,,,,,,,,,,,,,,,,,,,,,,right,0,100,-30,70,1,3235.071654,3235.071654,3235.071654,None,None,4,0,0.2682025,,,,,,,,,,,,,,,,,,,10,18,1,2024-11-04_18h03.39.425,uWM_experiment,2022.2.3,60.00103202
,,,,,,,,,,,,,,,,,,,,9,0,9,0,11,0,11,0,,,,,,,,,,,,,,,,,,,,,,,,,,,,,,,,,,,,,,,,,,,,,,,,,,,,,,,,,,,,,,,,,,,,,,0.005,,,,,,,,,,,,,,,,,,,,,,,,,,,,right,0,40,-30,10,1,3240.955236,3240.955236,3240.955236,None,None,4,0,0.3525456,,,,,,,,,,,,,,,,,,,10,18,1,2024-11-04_18h03.39.425,uWM_experiment,2022.2.3,60.00103202
,,,,,,,,,,,,,,,,,,,,9,0,9,0,12,0,12,0,,,,,,,,,,,,,,,,,,,,,,,,,,,,,,,,,,,,,,,,,,,,,,,,,,,,,,,,,,,,,,,,,,,,,,0.005,,,,,,,,,,,,,,,,,,,,,,,,,,,,right,1,40,30,70,1,3246.972128,3246.972128,3246.972128,None,None,4,0,0.2637098,,,,,,,,,,,,,,,,,,,10,18,1,2024-11-04_18h03.39.425,uWM_experiment,2022.2.3,60.00103202
,,,,,,,,,,,,,,,,,,,,9,0,9,0,13,0,13,0,,,,,,,,,,,,,,,,,,,,,,,,,,,,,,,,,,,,,,,,,,,,,,,,,,,,,,,,,,,,,,,,,,,,,,0.005,,,,,,,,,,,,,,,,,,,,,,,,,,,,right,0,70,-30,40,1,3252.772346,3252.772346,3252.772346,None,None,4,0,0.2554003,,,,,,,,,,,,,,,,,,,10,18,1,2024-11-04_18h03.39.425,uWM_experiment,2022.2.3,60.00103202
,,,,,,,,,,,,,,,,,,,,9,0,9,0,14,0,14,0,,,,,,,,,,,,,,,,,,,,,,,,,,,,,,,,,,,,,,,,,,,,,,,,,,,,,,,,,,,,,,,,,,,,,,0.005,,,,,,,,,,,,,,,,,,,,,,,,,,,,left,1,160,-30,130,1,3258.589268,3258.589268,3258.589268,None,None,4,0,0.3184549,,,,,,,,,,,,,,,,,,,10,18,1,2024-11-04_18h03.39.425,uWM_experiment,2022.2.3,60.00103202
,,,,,,,,,,,,,,,,,,,,9,0,9,0,15,0,15,0,,,,,,,,,,,,,,,,,,,,,,,,,,,,,,,,,,,,,,,,,,,,,,,,,,,,,,,,,,,,,,,,,,,,,,0.005,,,,,,,,,,,,,,,,,,,,,,,,,,,,right,1,40,30,70,1,3264.506184,3264.506184,3264.506184,None,None,4,0,0.3375059,,,,,,,,,,,,,,,,,,,10,18,1,2024-11-04_18h03.39.425,uWM_experiment,2022.2.3,60.00103202
,,,,,,,,,,,,,,,,,,,,9,0,9,0,16,0,16,0,,,,,,,,,,,,,,,,,,,,,,,,,,,,,,,,,,,,,,,,,,,,,,,,,,,,,,,,,,,,,,,,,,,,,,0.005,,,,,,,,,,,,,,,,,,,,,,,,,,,,left,0,130,30,160,1,3270.556444,3270.556444,3270.556444,None,None,4,0,0.3433336,,,,,,,,,,,,,,,,,,,10,18,1,2024-11-04_18h03.39.425,uWM_experiment,2022.2.3,60.00103202
,,,,,,,,,,,,,,,,,,,,9,0,9,0,17,0,17,0,,,,,,,,,,,,,,,,,,,,,,,,,,,,,,,,,,,,,,,,,,,,,,,,,,,,,,,,,,,,,,,,,,,,,,0,,,,,,,,,,,,,,,,,,,,,,,,,,,,right,0,70,-30,40,0,3276.456672,3276.456672,3276.456672,None,None,4,0,0.3390326,,,,,,,,,,,,,,,,,,,10,18,1,2024-11-04_18h03.39.425,uWM_experiment,2022.2.3,60.00103202
,,,,,,,,,,,,,,,,,,,,9,0,9,0,18,0,18,0,,,,,,,,,,,,,,,,,,,,,,,,,,,,,,,,,,,,,,,,,,,,,,,,,,,,,,,,,,,,,,,,,,,,,,0.005,,,,,,,,,,,,,,,,,,,,,,,,,,,,right,0,100,-30,70,1,3282.45692,3282.45692,3282.45692,None,None,4,0,0.3147616,,,,,,,,,,,,,,,,,,,10,18,1,2024-11-04_18h03.39.425,uWM_experiment,2022.2.3,60.00103202
,,,,,,,,,,,,,,,,,,,,9,0,9,0,19,0,19,0,,,,,,,,,,,,,,,,,,,,,,,,,,,,,,,,,,,,,,,,,,,,,,,,,,,,,,,,,,,,,,,,,,,,,,0.1,,,,,,,,,,,,,,,,,,,,,,,,,,,,left,0,100,30,130,2,3288.640511,3288.640511,3288.640511,None,None,4,0,0.4752137,,,,,,,,,,,,,,,,,,,10,18,1,2024-11-04_18h03.39.425,uWM_experiment,2022.2.3,60.00103202
,,,,,,,,,,,,,,,,,,,,9,0,9,0,20,0,20,0,,,,,,,,,,,,,,,,,,,,,,,,,,,,,,,,,,,,,,,,,,,,,,,,,,,,,,,,,,,,,,,,,,,,,,0,,,,,,,,,,,,,,,,,,,,,,,,,,,,right,1,100,30,130,0,3294.707485,3294.707485,3294.707485,None,None,4,0,0.4400986,,,,,,,,,,,,,,,,,,,10,18,1,2024-11-04_18h03.39.425,uWM_experiment,2022.2.3,60.00103202
,,,,,,,,,,,,,,,,,,,,9,0,9,0,21,0,21,0,,,,,,,,,,,,,,,,,,,,,,,,,,,,,,,,,,,,,,,,,,,,,,,,,,,,,,,,,,,,,,,,,,,,,,0.005,,,,,,,,,,,,,,,,,,,,,,,,,,,,right,1,40,30,70,1,3300.724347,3300.724347,3300.724347,None,None,4,0,0.7993954,,,,,,,,,,,,,,,,,,,10,18,1,2024-11-04_18h03.39.425,uWM_experiment,2022.2.3,60.00103202
,,,,,,,,,,,,,,,,,,,,9,0,9,0,22,0,22,0,,,,,,,,,,,,,,,,,,,,,,,,,,,,,,,,,,,,,,,,,,,,,,,,,,,,,,,,,,,,,,,,,,,,,,0.005,,,,,,,,,,,,,,,,,,,,,,,,,,,,right,0,100,-30,70,1,3307.174612,3307.174612,3307.174612,None,None,4,0,0.3490753,,,,,,,,,,,,,,,,,,,10,18,1,2024-11-04_18h03.39.425,uWM_experiment,2022.2.3,60.00103202
,,,,,,,,,,,,,,,,,,,,9,0,9,0,23,0,23,0,,,,,,,,,,,,,,,,,,,,,,,,,,,,,,,,,,,,,,,,,,,,,,,,,,,,,,,,,,,,,,,,,,,,,,0.005,,,,,,,,,,,,,,,,,,,,,,,,,,,,right,1,10,30,40,1,3313.108173,3313.108173,3313.108173,None,None,4,0,0.3353675,,,,,,,,,,,,,,,,,,,10,18,1,2024-11-04_18h03.39.425,uWM_experiment,2022.2.3,60.00103202
