PreTrainingPAS4_loop.thisRepN,PreTrainingPAS4_loop.thisTrialN,PreTrainingPAS4_loop.thisN,PreTrainingPAS4_loop.thisIndex,PreTrainingPAS1_loop.thisRepN,PreTrainingPAS1_loop.thisTrialN,PreTrainingPAS1_loop.thisN,PreTrainingPAS1_loop.thisIndex,RepeatCV_loop.thisRepN,RepeatCV_loop.thisTrialN,RepeatCV_loop.thisN,RepeatCV_loop.thisIndex,TrainingCV_loop.thisRepN,TrainingCV_loop.thisTrialN,TrainingCV_loop.thisN,TrainingCV_loop.thisIndex,TrainingCAL_loop.thisRepN,TrainingCAL_loop.thisTrialN,TrainingCAL_loop.thisN,TrainingCAL_loop.thisIndex,blocks_loop.thisRepN,blocks_loop.thisTrialN,blocks_loop.thisN,blocks_loop.thisIndex,trials_loop.thisRepN,trials_loop.thisTrialN,trials_loop.thisN,trials_loop.thisIndex,TrainingPAS1_loop.thisRepN,TrainingPAS1_loop.thisTrialN,TrainingPAS1_loop.thisN,TrainingPAS1_loop.thisIndex,spacebarWelcome0.started,spacebarWelcome0.keys,spacebarWelcome0.rt,spacebarWelcome1.started,gaborWelcome1.started,maskWelcome1.started,textMaskWelcome1.started,spacebarWelcome1.keys,spacebarWelcome1.rt,spacebarWelcome2.started,spacebarWelcome2.keys,spacebarWelcome2.rt,textInst_PreTrainingPAS4.started,spacebarPreTrainingPAS4.started,spacebarPreTrainingPAS4.keys,spacebarPreTrainingPAS4.rt,textPreTrainingPAS1.started,spacebarPreTrainingPAS1.started,spacebarPreTrainingPAS1.keys,spacebarPreTrainingPAS1.rt,textQUEST0.started,spacebarQUEST0.started,spacebarQUEST0.keys,spacebarQUEST0.rt,spacebar0.started,spacebar0.keys,spacebar0.rt,spacebar1.started,spacebar1.keys,spacebar1.rt,textInstructions2.started,spacebar2.started,Gabor1Inst2.started,Gabor2Inst2.started,Gabor3Inst2.started,Gabor4Inst2.started,spacebar2.keys,spacebar2.rt,textInstructionsPAS.started,spacebarInstPAS.started,spacebarInstPAS.keys,spacebarInstPAS.rt,textInstructions3.started,spacebar3.started,spacebar3.keys,spacebar3.rt,WMresp_CV,WMresp_CV_acc,oriMemo_CV,gyre_CV,oriTest_CV,feedbackText.started,feedbackText.stopped,sliderCV.started,PAStextCV.started,PASkeyCV.started,sliderCV.response,sliderCV.rt,PASkeyCV.keys,PASkeyCV.corr,PASkeyCV.rt,TextInstructionsCAL.started,spacebarCAL.started,spacebarCAL.keys,spacebarCAL.rt,contrast,WMresp_CAL,WMresp_CAL_acc,oriMemo_CAL,gyre_CAL,oriTest_CAL,cue_CAL,sliderCAL.started,PAStextCAL.started,PASkeyCAL.started,sliderCAL.response,sliderCAL.rt,PASkeyCAL.keys,PASkeyCAL.corr,PASkeyCAL.rt,propUnseen_CAL,textStart.started,spacebar4.started,spacebar4.keys,spacebar4.rt,three.started,three.stopped,two.started,two.stopped,one.started,one.stopped,blank_countdown.started,blank_countdown.stopped,WMresp,WMresp_acc,oriMemo,gyre,oriTest,cue,slider.started,textPAS_firstGabor.started,PASkey.started,slider.response,slider.rt,PASkey.keys,PASkey.corr,PASkey.rt,spacebarContinue.started,textBreak.started,spacebarContinue.keys,spacebarContinue.rt,spacebar_reminder.keys,spacebar_TrainingPAS1.keys,spacebar_endpractice.keys,spacebar_reminder.started,textReminder.started,spacebar_reminder.rt,textInst_TrainingPAS1.started,spacebar_TrainingPAS1.started,spacebar_TrainingPAS1.rt,textend_practicePAS1.started,spacebar_endpractice.started,spacebar_endpractice.rt,textThanks.started,textThanks.stopped,laboratory,participant,session,date,expName,psychopyVersion,frameRate
,,,,,,,,,,,,,,,,,,,,,,,,,,,,,,,,366.627126,space,4.5879471,,,,,,,,,,,,,,,,,,,,,,,,,,,,,,,,,,,,,,,,,,,,,,,,,,,,,,,,,,,,,,,,,,,,,,,,,,,,,,,,,,,,,,,,,,,,,,,,,,,,,,,,,,,,,,,,,,,,,,,,,,,10,19,1,2024-11-11_12h23.02.864,uWM_experiment,2022.2.3,59.99044952
,,,,,,,,,,,,,,,,,,,,,,,,,,,,,,,,,,,371.2603974,371.2603974,371.2603974,371.2603974,space,57.9383114,,,,,,,,,,,,,,,,,,,,,,,,,,,,,,,,,,,,,,,,,,,,,,,,,,,,,,,,,,,,,,,,,,,,,,,,,,,,,,,,,,,,,,,,,,,,,,,,,,,,,,,,,,,,,,,,,,,,,10,19,1,2024-11-11_12h23.02.864,uWM_experiment,2022.2.3,59.99044952
,,,,,,,,,,,,,,,,,,,,,,,,,,,,,,,,,,,,,,,,,429.2292415,space,42.4731986,,,,,,,,,,,,,,,,,,,,,,,,,,,,,,,,,,,,,,,,,,,,,,,,,,,,,,,,,,,,,,,,,,,,,,,,,,,,,,,,,,,,,,,,,,,,,,,,,,,,,,,,,,,,,,,,,,10,19,1,2024-11-11_12h23.02.864,uWM_experiment,2022.2.3,59.99044952
,,,,,,,,,,,,,,,,,,,,,,,,,,,,,,,,,,,,,,,,,,,,471.7308565,471.7308565,space,26.8755174,,,,,,,,,,,,,,,,,,,,,,,,,,,,,,,,,,,,,,,,,,,,,,,,,,,,,,,,,,,,,,,,,,,,,,,,,,,,,,,,,,,,,,,,,,,,,,,,,,,,,,,,,,,,,,10,19,1,2024-11-11_12h23.02.864,uWM_experiment,2022.2.3,59.99044952
0,0,0,0,,,,,,,,,,,,,,,,,,,,,,,,,,,,,,,,,,,,,,,,,,,,,,,,,,,,,,,,,,,,,,,,,,,,,,,,,,,,,,,,,,,,,,,,,,,,,,,,,,,,,,,,,,,,,,,,,,,,,,,,,,,,,,,,,,,,,,,,,,,,,,,,,,,,,,,,,,10,19,1,2024-11-11_12h23.02.864,uWM_experiment,2022.2.3,59.99044952
1,0,1,0,,,,,,,,,,,,,,,,,,,,,,,,,,,,,,,,,,,,,,,,,,,,,,,,,,,,,,,,,,,,,,,,,,,,,,,,,,,,,,,,,,,,,,,,,,,,,,,,,,,,,,,,,,,,,,,,,,,,,,,,,,,,,,,,,,,,,,,,,,,,,,,,,,,,,,,,,,10,19,1,2024-11-11_12h23.02.864,uWM_experiment,2022.2.3,59.99044952
2,0,2,0,,,,,,,,,,,,,,,,,,,,,,,,,,,,,,,,,,,,,,,,,,,,,,,,,,,,,,,,,,,,,,,,,,,,,,,,,,,,,,,,,,,,,,,,,,,,,,,,,,,,,,,,,,,,,,,,,,,,,,,,,,,,,,,,,,,,,,,,,,,,,,,,,,,,,,,,,,10,19,1,2024-11-11_12h23.02.864,uWM_experiment,2022.2.3,59.99044952
,,,,,,,,,,,,,,,,,,,,,,,,,,,,,,,,,,,,,,,,,,,,,,,,561.4009541,561.4009541,space,38.6607768,,,,,,,,,,,,,,,,,,,,,,,,,,,,,,,,,,,,,,,,,,,,,,,,,,,,,,,,,,,,,,,,,,,,,,,,,,,,,,,,,,,,,,,,,,,,,,,,,,,,,,,,,,10,19,1,2024-11-11_12h23.02.864,uWM_experiment,2022.2.3,59.99044952
,,,,0,0,0,0,,,,,,,,,,,,,,,,,,,,,,,,,,,,,,,,,,,,,,,,,,,,,,,,,,,,,,,,,,,,,,,,,,,,,,,,,,,,,,,,,,,,,,,,,,,,,,,,,,,,,,,,,,,,,,,,,,,,,,,,,,,,,,,,,,,,,,,,,,,,,,,,,,,,,,10,19,1,2024-11-11_12h23.02.864,uWM_experiment,2022.2.3,59.99044952
,,,,1,0,1,0,,,,,,,,,,,,,,,,,,,,,,,,,,,,,,,,,,,,,,,,,,,,,,,,,,,,,,,,,,,,,,,,,,,,,,,,,,,,,,,,,,,,,,,,,,,,,,,,,,,,,,,,,,,,,,,,,,,,,,,,,,,,,,,,,,,,,,,,,,,,,,,,,,,,,,10,19,1,2024-11-11_12h23.02.864,uWM_experiment,2022.2.3,59.99044952
,,,,2,0,2,0,,,,,,,,,,,,,,,,,,,,,,,,,,,,,,,,,,,,,,,,,,,,,,,,,,,,,,,,,,,,,,,,,,,,,,,,,,,,,,,,,,,,,,,,,,,,,,,,,,,,,,,,,,,,,,,,,,,,,,,,,,,,,,,,,,,,,,,,,,,,,,,,,,,,,,10,19,1,2024-11-11_12h23.02.864,uWM_experiment,2022.2.3,59.99044952
,,,,,,,,,,,,,,,,,,,,,,,,,,,,,,,,,,,,,,,,,,,,,,,,,,,,620.6698925,620.6698925,space,35.7595025,,,,,,,,,,,,,,,,,,,,,,,,,,,,,,,,,,,,,,,,,,,,,,,,,,,,,,,,,,,,,,,,,,,,,,,,,,,,,,,,,,,,,,,,,,,,,,,,,,,,,,10,19,1,2024-11-11_12h23.02.864,uWM_experiment,2022.2.3,59.99044952
,,,,,,,,,,,,,,,,,,,,,,,,,,,,,,,,,,,,,,,,,,,,,,,,,,,,,,,,791.2097341,space,53.1705728,,,,,,,,,,,,,,,,,,,,,,,,,,,,,,,,,,,,,,,,,,,,,,,,,,,,,,,,,,,,,,,,,,,,,,,,,,,,,,,,,,,,,,,,,,,,,,,,,,,10,19,1,2024-11-11_12h23.02.864,uWM_experiment,2022.2.3,59.99044952
,,,,,,,,,,,,,,,,,,,,,,,,,,,,,,,,,,,,,,,,,,,,,,,,,,,,,,,,,,,844.4117859,space,138.255675,,,,,,,,,,,,,,,,,,,,,,,,,,,,,,,,,,,,,,,,,,,,,,,,,,,,,,,,,,,,,,,,,,,,,,,,,,,,,,,,,,,,,,,,,,,,,,,,10,19,1,2024-11-11_12h23.02.864,uWM_experiment,2022.2.3,59.99044952
,,,,,,,,,,,,,,,,,,,,,,,,,,,,,,,,,,,,,,,,,,,,,,,,,,,,,,,,,,,,,,982.7003864,982.7003864,982.7003864,982.7003864,982.7003864,982.7003864,space,107.1425104,,,,,,,,,,,,,,,,,,,,,,,,,,,,,,,,,,,,,,,,,,,,,,,,,,,,,,,,,,,,,,,,,,,,,,,,,,,,,,,,,,,,,,,,10,19,1,2024-11-11_12h23.02.864,uWM_experiment,2022.2.3,59.99044952
,,,,,,,,,,,,,,,,,,,,,,,,,,,,,,,,,,,,,,,,,,,,,,,,,,,,,,,,,,,,,,,,,,,,,,1089.871154,1089.871154,space,24.9394922,,,,,,,,,,,,,,,,,,,,,,,,,,,,,,,,,,,,,,,,,,,,,,,,,,,,,,,,,,,,,,,,,,,,,,,,,,,,,,,,,,,,10,19,1,2024-11-11_12h23.02.864,uWM_experiment,2022.2.3,59.99044952
,,,,,,,,,,,,,,,,,,,,,,,,,,,,,,,,,,,,,,,,,,,,,,,,,,,,,,,,,,,,,,,,,,,,,,,,,,1114.838763,1114.838763,space,32.3477826,,,,,,,,,,,,,,,,,,,,,,,,,,,,,,,,,,,,,,,,,,,,,,,,,,,,,,,,,,,,,,,,,,,,,,,,,,,,,,,,10,19,1,2024-11-11_12h23.02.864,uWM_experiment,2022.2.3,59.99044952
,,,,,,,,0,0,0,0,0,0,0,0,,,,,,,,,,,,,,,,,,,,,,,,,,,,,,,,,,,,,,,,,,,,,,,,,,,,,,,,,,,,,,,right,1,40,30,70,1188.558285,1189.558303,1189.558303,1189.558303,1189.558303,None,None,3,0,6.0358524,,,,,,,,,,,,,,,,,,,,,,,,,,,,,,,,,,,,,,,,,,,,,,,,,,,,,,,,,,,,,,,,,10,19,1,2024-11-11_12h23.02.864,uWM_experiment,2022.2.3,59.99044952
,,,,,,,,0,0,0,0,1,0,1,0,,,,,,,,,,,,,,,,,,,,,,,,,,,,,,,,,,,,,,,,,,,,,,,,,,,,,,,,,,,,,,,left,1,10,-30,-20,1208.992377,1209.992409,1209.992409,1209.992409,1209.992409,None,None,4,0,6.0338406,,,,,,,,,,,,,,,,,,,,,,,,,,,,,,,,,,,,,,,,,,,,,,,,,,,,,,,,,,,,,,,,,10,19,1,2024-11-11_12h23.02.864,uWM_experiment,2022.2.3,59.99044952
,,,,,,,,0,0,0,0,2,0,2,0,,,,,,,,,,,,,,,,,,,,,,,,,,,,,,,,,,,,,,,,,,,,,,,,,,,,,,,,,,,,,,,right,0,130,-30,100,1226.22637,,1227.226403,1227.226403,1227.226403,None,None,2,0,4.1595998,,,,,,,,,,,,,,,,,,,,,,,,,,,,,,,,,,,,,,,,,,,,,,,,,,,,,,,,,,,,,,,,,10,19,1,2024-11-11_12h23.02.864,uWM_experiment,2022.2.3,59.99044952
,,,,,,,,0,0,0,0,3,0,3,0,,,,,,,,,,,,,,,,,,,,,,,,,,,,,,,,,,,,,,,,,,,,,,,,,,,,,,,,,,,,,,,right,1,160,30,190,1243.927063,1244.927073,1244.927073,1244.927073,1244.927073,None,None,4,0,2.9547833,,,,,,,,,,,,,,,,,,,,,,,,,,,,,,,,,,,,,,,,,,,,,,,,,,,,,,,,,,,,,,,,,10,19,1,2024-11-11_12h23.02.864,uWM_experiment,2022.2.3,59.99044952
,,,,,,,,0,0,0,0,4,0,4,0,,,,,,,,,,,,,,,,,,,,,,,,,,,,,,,,,,,,,,,,,,,,,,,,,,,,,,,,,,,,,,,left,1,70,-30,40,1256.777548,1257.777574,1257.777574,1257.777574,1257.777574,None,None,4,0,2.0483621,,,,,,,,,,,,,,,,,,,,,,,,,,,,,,,,,,,,,,,,,,,,,,,,,,,,,,,,,,,,,,,,,10,19,1,2024-11-11_12h23.02.864,uWM_experiment,2022.2.3,59.99044952
,,,,,,,,0,0,0,0,5,0,5,0,,,,,,,,,,,,,,,,,,,,,,,,,,,,,,,,,,,,,,,,,,,,,,,,,,,,,,,,,,,,,,,right,0,100,-30,70,1269.044664,,1270.044684,1270.044684,1270.044684,None,None,4,0,22.5729007,,,,,,,,,,,,,,,,,,,,,,,,,,,,,,,,,,,,,,,,,,,,,,,,,,,,,,,,,,,,,,,,,10,19,1,2024-11-11_12h23.02.864,uWM_experiment,2022.2.3,59.99044952
,,,,,,,,0,0,0,0,6,0,6,0,,,,,,,,,,,,,,,,,,,,,,,,,,,,,,,,,,,,,,,,,,,,,,,,,,,,,,,,,,,,,,,left,0,10,30,40,1301.912571,1302.912602,1302.912602,1302.912602,1302.912602,None,None,4,0,4.1610451,,,,,,,,,,,,,,,,,,,,,,,,,,,,,,,,,,,,,,,,,,,,,,,,,,,,,,,,,,,,,,,,,10,19,1,2024-11-11_12h23.02.864,uWM_experiment,2022.2.3,59.99044952
,,,,,,,,0,0,0,0,7,0,7,0,,,,,,,,,,,,,,,,,,,,,,,,,,,,,,,,,,,,,,,,,,,,,,,,,,,,,,,,,,,,,,,right,0,160,-30,130,1315.313087,1316.313123,1316.313123,1316.313123,1316.313123,None,None,3,0,14.3603551,,,,,,,,,,,,,,,,,,,,,,,,,,,,,,,,,,,,,,,,,,,,,,,,,,,,,,,,,,,,,,,,,10,19,1,2024-11-11_12h23.02.864,uWM_experiment,2022.2.3,59.99044952
,,,,,,,,0,0,0,0,8,0,8,0,,,,,,,,,,,,,,,,,,,,,,,,,,,,,,,,,,,,,,,,,,,,,,,,,,,,,,,,,,,,,,,left,0,130,30,160,1357.314687,1358.314749,1358.314749,1358.314749,1358.314749,None,None,3,0,5.7506275,,,,,,,,,,,,,,,,,,,,,,,,,,,,,,,,,,,,,,,,,,,,,,,,,,,,,,,,,,,,,,,,,10,19,1,2024-11-11_12h23.02.864,uWM_experiment,2022.2.3,59.99044952
,,,,,,,,0,0,0,0,9,0,9,0,,,,,,,,,,,,,,,,,,,,,,,,,,,,,,,,,,,,,,,,,,,,,,,,,,,,,,,,,,,,,,,right,1,10,30,40,1371.565245,1372.565259,1372.565259,1372.565259,1372.565259,None,None,4,0,1.7800112,,,,,,,,,,,,,,,,,,,,,,,,,,,,,,,,,,,,,,,,,,,,,,,,,,,,,,,,,,,,,,,,,10,19,1,2024-11-11_12h23.02.864,uWM_experiment,2022.2.3,59.99044952
,,,,,,,,0,0,0,0,10,0,10,0,,,,,,,,,,,,,,,,,,,,,,,,,,,,,,,,,,,,,,,,,,,,,,,,,,,,,,,,,,,,,,,left,1,100,-30,70,1404.699843,1405.699855,1405.699855,1405.699855,1405.699855,None,None,4,0,5.0050623,,,,,,,,,,,,,,,,,,,,,,,,,,,,,,,,,,,,,,,,,,,,,,,,,,,,,,,,,,,,,,,,,10,19,1,2024-11-11_12h23.02.864,uWM_experiment,2022.2.3,59.99044952
,,,,,,,,0,0,0,0,11,0,11,0,,,,,,,,,,,,,,,,,,,,,,,,,,,,,,,,,,,,,,,,,,,,,,,,,,,,,,,,,,,,,,,right,1,70,30,100,1426.033988,1427.034005,1427.034005,1427.034005,1427.034005,None,None,4,0,20.2627878,,,,,,,,,,,,,,,,,,,,,,,,,,,,,,,,,,,,,,,,,,,,,,,,,,,,,,,,,,,,,,,,,10,19,1,2024-11-11_12h23.02.864,uWM_experiment,2022.2.3,59.99044952
,,,,,,,,0,0,0,0,,,,,,,,,,,,,,,,,,,,,,,,,,,,,,,,,,,,,,,,,,,,,,,,,,,,,,,,,,,,,,,,,,,,,,,,,,,,,,,,,,,,,,,,,,,,,,,,,,,,,,,,,,,,,,,,,,,,,,,,,,,,,,,,,,,,,,,,,,,,,,,,,,10,19,1,2024-11-11_12h23.02.864,uWM_experiment,2022.2.3,59.99044952
,,,,,,,,1,0,1,0,0,0,0,0,,,,,,,,,,,,,,,,,,,,,,,,,,,,,,,,,,,,,,,,,,,,,,,,,,,,,,,,,,,,,,,left,1,40,-30,10,1478.686044,1479.685998,1479.685998,1479.685998,1479.685998,None,None,4,0,2.2106481,,,,,,,,,,,,,,,,,,,,,,,,,,,,,,,,,,,,,,,,,,,,,,,,,,,,,,,,,,,,,,,,,10,19,1,2024-11-11_12h23.02.864,uWM_experiment,2022.2.3,59.99044952
,,,,,,,,1,0,1,0,1,0,1,0,,,,,,,,,,,,,,,,,,,,,,,,,,,,,,,,,,,,,,,,,,,,,,,,,,,,,,,,,,,,,,,right,1,130,30,160,1488.903059,1489.903084,1489.903084,1489.903084,1489.903084,None,None,4,0,1.8895758,,,,,,,,,,,,,,,,,,,,,,,,,,,,,,,,,,,,,,,,,,,,,,,,,,,,,,,,,,,,,,,,,10,19,1,2024-11-11_12h23.02.864,uWM_experiment,2022.2.3,59.99044952
,,,,,,,,1,0,1,0,2,0,2,0,,,,,,,,,,,,,,,,,,,,,,,,,,,,,,,,,,,,,,,,,,,,,,,,,,,,,,,,,,,,,,,right,1,100,30,130,1498.970088,,1499.970132,1499.970132,1499.970132,None,None,4,0,1.8143923,,,,,,,,,,,,,,,,,,,,,,,,,,,,,,,,,,,,,,,,,,,,,,,,,,,,,,,,,,,,,,,,,10,19,1,2024-11-11_12h23.02.864,uWM_experiment,2022.2.3,59.99044952
,,,,,,,,1,0,1,0,3,0,3,0,,,,,,,,,,,,,,,,,,,,,,,,,,,,,,,,,,,,,,,,,,,,,,,,,,,,,,,,,,,,,,,right,1,160,30,190,1509.003808,,1510.003829,1510.003829,1510.003829,None,None,4,0,1.7486683,,,,,,,,,,,,,,,,,,,,,,,,,,,,,,,,,,,,,,,,,,,,,,,,,,,,,,,,,,,,,,,,,10,19,1,2024-11-11_12h23.02.864,uWM_experiment,2022.2.3,59.99044952
,,,,,,,,1,0,1,0,4,0,4,0,,,,,,,,,,,,,,,,,,,,,,,,,,,,,,,,,,,,,,,,,,,,,,,,,,,,,,,,,,,,,,,left,1,100,-30,70,1519.387512,,1520.387556,1520.387556,1520.387556,None,None,4,0,2.1968864,,,,,,,,,,,,,,,,,,,,,,,,,,,,,,,,,,,,,,,,,,,,,,,,,,,,,,,,,,,,,,,,,10,19,1,2024-11-11_12h23.02.864,uWM_experiment,2022.2.3,59.99044952
,,,,,,,,1,0,1,0,5,0,5,0,,,,,,,,,,,,,,,,,,,,,,,,,,,,,,,,,,,,,,,,,,,,,,,,,,,,,,,,,,,,,,,right,1,130,30,160,1529.187911,1530.187922,1530.187922,1530.187922,1530.187922,None,None,4,0,1.3882857,,,,,,,,,,,,,,,,,,,,,,,,,,,,,,,,,,,,,,,,,,,,,,,,,,,,,,,,,,,,,,,,,10,19,1,2024-11-11_12h23.02.864,uWM_experiment,2022.2.3,59.99044952
,,,,,,,,1,0,1,0,6,0,6,0,,,,,,,,,,,,,,,,,,,,,,,,,,,,,,,,,,,,,,,,,,,,,,,,,,,,,,,,,,,,,,,left,0,70,30,100,1538.621601,1539.621619,1539.621619,1539.621619,1539.621619,None,None,4,0,15.1146629,,,,,,,,,,,,,,,,,,,,,,,,,,,,,,,,,,,,,,,,,,,,,,,,,,,,,,,,,,,,,,,,,10,19,1,2024-11-11_12h23.02.864,uWM_experiment,2022.2.3,59.99044952
,,,,,,,,1,0,1,0,7,0,7,0,,,,,,,,,,,,,,,,,,,,,,,,,,,,,,,,,,,,,,,,,,,,,,,,,,,,,,,,,,,,,,,left,1,10,-30,-20,1561.389133,,1562.389149,1562.389149,1562.389149,None,None,4,0,2.611042,,,,,,,,,,,,,,,,,,,,,,,,,,,,,,,,,,,,,,,,,,,,,,,,,,,,,,,,,,,,,,,,,10,19,1,2024-11-11_12h23.02.864,uWM_experiment,2022.2.3,59.99044952
,,,,,,,,1,0,1,0,8,0,8,0,,,,,,,,,,,,,,,,,,,,,,,,,,,,,,,,,,,,,,,,,,,,,,,,,,,,,,,,,,,,,,,left,1,40,-30,10,1571.556186,1572.556195,1572.556195,1572.556195,1572.556195,None,None,4,0,1.8197612,,,,,,,,,,,,,,,,,,,,,,,,,,,,,,,,,,,,,,,,,,,,,,,,,,,,,,,,,,,,,,,,,10,19,1,2024-11-11_12h23.02.864,uWM_experiment,2022.2.3,59.99044952
,,,,,,,,1,0,1,0,9,0,9,0,,,,,,,,,,,,,,,,,,,,,,,,,,,,,,,,,,,,,,,,,,,,,,,,,,,,,,,,,,,,,,,left,1,160,-30,130,1582.239924,1583.239936,1583.239936,1583.239936,1583.239936,None,None,4,0,1.3519836,,,,,,,,,,,,,,,,,,,,,,,,,,,,,,,,,,,,,,,,,,,,,,,,,,,,,,,,,,,,,,,,,10,19,1,2024-11-11_12h23.02.864,uWM_experiment,2022.2.3,59.99044952
,,,,,,,,1,0,1,0,10,0,10,0,,,,,,,,,,,,,,,,,,,,,,,,,,,,,,,,,,,,,,,,,,,,,,,,,,,,,,,,,,,,,,,right,1,40,30,70,1592.256969,1593.257025,1593.257025,1593.257025,1593.257025,None,None,4,0,1.4629624,,,,,,,,,,,,,,,,,,,,,,,,,,,,,,,,,,,,,,,,,,,,,,,,,,,,,,,,,,,,,,,,,10,19,1,2024-11-11_12h23.02.864,uWM_experiment,2022.2.3,59.99044952
,,,,,,,,1,0,1,0,11,0,11,0,,,,,,,,,,,,,,,,,,,,,,,,,,,,,,,,,,,,,,,,,,,,,,,,,,,,,,,,,,,,,,,left,1,70,-30,40,1601.79066,1602.790687,1602.790687,1602.790687,1602.790687,None,None,4,0,1.4571449,,,,,,,,,,,,,,,,,,,,,,,,,,,,,,,,,,,,,,,,,,,,,,,,,,,,,,,,,,,,,,,,,10,19,1,2024-11-11_12h23.02.864,uWM_experiment,2022.2.3,59.99044952
,,,,,,,,1,0,1,0,,,,,,,,,,,,,,,,,,,,,,,,,,,,,,,,,,,,,,,,,,,,,,,,,,,,,,,,,,,,,,,,,,,,,,,,,,,,,,,,,,,,,,,,,,,,,,,,,,,,,,,,,,,,,,,,,,,,,,,,,,,,,,,,,,,,,,,,,,,,,,,,,,10,19,1,2024-11-11_12h23.02.864,uWM_experiment,2022.2.3,59.99044952
,,,,,,,,,,,,,,,,,,,,,,,,,,,,,,,,,,,,,,,,,,,,,,,,,,,,,,,,,,,,,,,,,,,,,,,,,,,,,,,,,,,,,,,,,,,,,1604.274075,1604.274075,space,8.2858021,,,,,,,,,,,,,,,,,,,,,,,,,,,,,,,,,,,,,,,,,,,,,,,,,,,,,,,,,,,,,10,19,1,2024-11-11_12h23.02.864,uWM_experiment,2022.2.3,59.99044952
,,,,,,,,,,,,,,,,0,0,0,0,,,,,,,,,,,,,,,,,,,,,,,,,,,,,,,,,,,,,,,,,,,,,,,,,,,,,,,,,,,,,,,,,,,,,,,,,,,,,,0.373012026,right,0,130,-30,100,1,1664.626504,1664.626504,1664.626504,None,None,1,1,13.6609333,,,,,,,,,,,,,,,,,,,,,,,,,,,,,,,,,,,,,,,,,,,,,,10,19,1,2024-11-11_12h23.02.864,uWM_experiment,2022.2.3,59.99044952
,,,,,,,,,,,,,,,,1,0,1,0,,,,,,,,,,,,,,,,,,,,,,,,,,,,,,,,,,,,,,,,,,,,,,,,,,,,,,,,,,,,,,,,,,,,,,,,,,,,,,0.383012026,right,1,40,30,70,1,1686.31055,1686.31055,1686.31055,None,None,4,0,4.5287865,1,,,,,,,,,,,,,,,,,,,,,,,,,,,,,,,,,,,,,,,,,,,,,10,19,1,2024-11-11_12h23.02.864,uWM_experiment,2022.2.3,59.99044952
,,,,,,,,,,,,,,,,2,0,2,0,,,,,,,,,,,,,,,,,,,,,,,,,,,,,,,,,,,,,,,,,,,,,,,,,,,,,,,,,,,,,,,,,,,,,,,,,,,,,,0.373012026,left,0,70,30,100,1,1698.594341,1698.594341,1698.594341,None,None,4,0,2.7250496,0.5,,,,,,,,,,,,,,,,,,,,,,,,,,,,,,,,,,,,,,,,,,,,,10,19,1,2024-11-11_12h23.02.864,uWM_experiment,2022.2.3,59.99044952
,,,,,,,,,,,,,,,,3,0,3,0,,,,,,,,,,,,,,,,,,,,,,,,,,,,,,,,,,,,,,,,,,,,,,,,,,,,,,,,,,,,,,,,,,,,,,,,,,,,,,0.1,left,1,130,-30,100,2,1709.244755,1709.244755,1709.244755,None,None,4,0,1.746571,0.333333333,,,,,,,,,,,,,,,,,,,,,,,,,,,,,,,,,,,,,,,,,,,,,10,19,1,2024-11-11_12h23.02.864,uWM_experiment,2022.2.3,59.99044952
,,,,,,,,,,,,,,,,4,0,4,0,,,,,,,,,,,,,,,,,,,,,,,,,,,,,,,,,,,,,,,,,,,,,,,,,,,,,,,,,,,,,,,,,,,,,,,,,,,,,,0.1,right,1,160,30,190,2,1717.645073,1717.645073,1717.645073,None,None,4,0,1.610265,0.25,,,,,,,,,,,,,,,,,,,,,,,,,,,,,,,,,,,,,,,,,,,,,10,19,1,2024-11-11_12h23.02.864,uWM_experiment,2022.2.3,59.99044952
,,,,,,,,,,,,,,,,5,0,5,0,,,,,,,,,,,,,,,,,,,,,,,,,,,,,,,,,,,,,,,,,,,,,,,,,,,,,,,,,,,,,,,,,,,,,,,,,,,,,,0.1,left,1,70,-30,40,2,1727.278743,1727.278743,1727.278743,None,None,4,0,1.6883077,0.2,,,,,,,,,,,,,,,,,,,,,,,,,,,,,,,,,,,,,,,,,,,,,10,19,1,2024-11-11_12h23.02.864,uWM_experiment,2022.2.3,59.99044952
,,,,,,,,,,,,,,,,6,0,6,0,,,,,,,,,,,,,,,,,,,,,,,,,,,,,,,,,,,,,,,,,,,,,,,,,,,,,,,,,,,,,,,,,,,,,,,,,,,,,,0.1,right,1,40,30,70,2,1737.812497,1737.812497,1737.812497,None,None,2,0,6.0185265,0.166666667,,,,,,,,,,,,,,,,,,,,,,,,,,,,,,,,,,,,,,,,,,,,,10,19,1,2024-11-11_12h23.02.864,uWM_experiment,2022.2.3,59.99044952
,,,,,,,,,,,,,,,,7,0,7,0,,,,,,,,,,,,,,,,,,,,,,,,,,,,,,,,,,,,,,,,,,,,,,,,,,,,,,,,,,,,,,,,,,,,,,,,,,,,,,0.1,right,1,10,30,40,2,1751.263034,1751.263034,1751.263034,None,None,4,0,1.919947,0.142857143,,,,,,,,,,,,,,,,,,,,,,,,,,,,,,,,,,,,,,,,,,,,,10,19,1,2024-11-11_12h23.02.864,uWM_experiment,2022.2.3,59.99044952
,,,,,,,,,,,,,,,,8,0,8,0,,,,,,,,,,,,,,,,,,,,,,,,,,,,,,,,,,,,,,,,,,,,,,,,,,,,,,,,,,,,,,,,,,,,,,,,,,,,,,0.1,right,1,10,30,40,2,1759.613328,1759.613328,1759.613328,None,None,4,0,1.8416412,0.125,,,,,,,,,,,,,,,,,,,,,,,,,,,,,,,,,,,,,,,,,,,,,10,19,1,2024-11-11_12h23.02.864,uWM_experiment,2022.2.3,59.99044952
,,,,,,,,,,,,,,,,9,0,9,0,,,,,,,,,,,,,,,,,,,,,,,,,,,,,,,,,,,,,,,,,,,,,,,,,,,,,,,,,,,,,,,,,,,,,,,,,,,,,,0.1,right,1,10,30,40,2,1767.880305,1767.880305,1767.880305,None,None,4,0,1.806573,0.111111111,,,,,,,,,,,,,,,,,,,,,,,,,,,,,,,,,,,,,,,,,,,,,10,19,1,2024-11-11_12h23.02.864,uWM_experiment,2022.2.3,59.99044952
,,,,,,,,,,,,,,,,10,0,10,0,,,,,,,,,,,,,,,,,,,,,,,,,,,,,,,,,,,,,,,,,,,,,,,,,,,,,,,,,,,,,,,,,,,,,,,,,,,,,,0.363012026,right,1,160,30,190,1,1775.713939,1775.713939,1775.713939,None,None,4,0,2.0368657,0.1,,,,,,,,,,,,,,,,,,,,,,,,,,,,,,,,,,,,,,,,,,,,,10,19,1,2024-11-11_12h23.02.864,uWM_experiment,2022.2.3,59.99044952
,,,,,,,,,,,,,,,,11,0,11,0,,,,,,,,,,,,,,,,,,,,,,,,,,,,,,,,,,,,,,,,,,,,,,,,,,,,,,,,,,,,,,,,,,,,,,,,,,,,,,0.353012026,right,0,130,-30,100,1,1786.297717,1786.297717,1786.297717,None,None,4,0,1.5410611,0.090909091,,,,,,,,,,,,,,,,,,,,,,,,,,,,,,,,,,,,,,,,,,,,,10,19,1,2024-11-11_12h23.02.864,uWM_experiment,2022.2.3,59.99044952
,,,,,,,,,,,,,,,,12,0,12,0,,,,,,,,,,,,,,,,,,,,,,,,,,,,,,,,,,,,,,,,,,,,,,,,,,,,,,,,,,,,,,,,,,,,,,,,,,,,,,0.343012026,right,1,40,30,70,1,1794.898027,1794.898027,1794.898027,None,None,4,0,1.1886374,0.083333333,,,,,,,,,,,,,,,,,,,,,,,,,,,,,,,,,,,,,,,,,,,,,10,19,1,2024-11-11_12h23.02.864,uWM_experiment,2022.2.3,59.99044952
,,,,,,,,,,,,,,,,13,0,13,0,,,,,,,,,,,,,,,,,,,,,,,,,,,,,,,,,,,,,,,,,,,,,,,,,,,,,,,,,,,,,,,,,,,,,,,,,,,,,,0.333012026,left,1,70,-30,40,1,1802.981638,1802.981638,1802.981638,None,None,4,0,1.7690584,0.076923077,,,,,,,,,,,,,,,,,,,,,,,,,,,,,,,,,,,,,,,,,,,,,10,19,1,2024-11-11_12h23.02.864,uWM_experiment,2022.2.3,59.99044952
,,,,,,,,,,,,,,,,14,0,14,0,,,,,,,,,,,,,,,,,,,,,,,,,,,,,,,,,,,,,,,,,,,,,,,,,,,,,,,,,,,,,,,,,,,,,,,,,,,,,,0.1,left,0,70,30,100,2,1812.165308,1812.165308,1812.165308,None,None,4,0,1.105333,0.071428571,,,,,,,,,,,,,,,,,,,,,,,,,,,,,,,,,,,,,,,,,,,,,10,19,1,2024-11-11_12h23.02.864,uWM_experiment,2022.2.3,59.99044952
,,,,,,,,,,,,,,,,15,0,15,0,,,,,,,,,,,,,,,,,,,,,,,,,,,,,,,,,,,,,,,,,,,,,,,,,,,,,,,,,,,,,,,,,,,,,,,,,,,,,,0.1,left,1,40,-30,10,2,1819.68225,1819.68225,1819.68225,None,None,4,0,1.3722662,0.066666667,,,,,,,,,,,,,,,,,,,,,,,,,,,,,,,,,,,,,,,,,,,,,10,19,1,2024-11-11_12h23.02.864,uWM_experiment,2022.2.3,59.99044952
,,,,,,,,,,,,,,,,16,0,16,0,,,,,,,,,,,,,,,,,,,,,,,,,,,,,,,,,,,,,,,,,,,,,,,,,,,,,,,,,,,,,,,,,,,,,,,,,,,,,,0.1,left,1,100,-30,70,2,1828.082602,1828.082602,1828.082602,None,None,4,0,0.7799328,0.0625,,,,,,,,,,,,,,,,,,,,,,,,,,,,,,,,,,,,,,,,,,,,,10,19,1,2024-11-11_12h23.02.864,uWM_experiment,2022.2.3,59.99044952
,,,,,,,,,,,,,,,,17,0,17,0,,,,,,,,,,,,,,,,,,,,,,,,,,,,,,,,,,,,,,,,,,,,,,,,,,,,,,,,,,,,,,,,,,,,,,,,,,,,,,0.323012026,left,0,160,30,190,1,1835.716225,1835.716225,1835.716225,None,None,4,0,0.7143975,0.058823529,,,,,,,,,,,,,,,,,,,,,,,,,,,,,,,,,,,,,,,,,,,,,10,19,1,2024-11-11_12h23.02.864,uWM_experiment,2022.2.3,59.99044952
,,,,,,,,,,,,,,,,18,0,18,0,,,,,,,,,,,,,,,,,,,,,,,,,,,,,,,,,,,,,,,,,,,,,,,,,,,,,,,,,,,,,,,,,,,,,,,,,,,,,,0.1,left,1,100,-30,70,2,1842.849827,1842.849827,1842.849827,None,None,4,0,0.7327464,0.055555556,,,,,,,,,,,,,,,,,,,,,,,,,,,,,,,,,,,,,,,,,,,,,10,19,1,2024-11-11_12h23.02.864,uWM_experiment,2022.2.3,59.99044952
,,,,,,,,,,,,,,,,19,0,19,0,,,,,,,,,,,,,,,,,,,,,,,,,,,,,,,,,,,,,,,,,,,,,,,,,,,,,,,,,,,,,,,,,,,,,,,,,,,,,,0.313012026,right,0,160,-30,130,1,1851.983507,1851.983507,1851.983507,None,None,3,0,4.2388261,0.052631579,,,,,,,,,,,,,,,,,,,,,,,,,,,,,,,,,,,,,,,,,,,,,10,19,1,2024-11-11_12h23.02.864,uWM_experiment,2022.2.3,59.99044952
,,,,,,,,,,,,,,,,20,0,20,0,,,,,,,,,,,,,,,,,,,,,,,,,,,,,,,,,,,,,,,,,,,,,,,,,,,,,,,,,,,,,,,,,,,,,,,,,,,,,,0.303012026,left,1,130,-30,100,1,1864.117288,1864.117288,1864.117288,None,None,4,0,0.929073,0.05,,,,,,,,,,,,,,,,,,,,,,,,,,,,,,,,,,,,,,,,,,,,,10,19,1,2024-11-11_12h23.02.864,uWM_experiment,2022.2.3,59.99044952
,,,,,,,,,,,,,,,,21,0,21,0,,,,,,,,,,,,,,,,,,,,,,,,,,,,,,,,,,,,,,,,,,,,,,,,,,,,,,,,,,,,,,,,,,,,,,,,,,,,,,0.1,left,1,100,-30,70,2,1871.667582,1871.667582,1871.667582,None,None,4,0,0.8346986,0.047619048,,,,,,,,,,,,,,,,,,,,,,,,,,,,,,,,,,,,,,,,,,,,,10,19,1,2024-11-11_12h23.02.864,uWM_experiment,2022.2.3,59.99044952
,,,,,,,,,,,,,,,,22,0,22,0,,,,,,,,,,,,,,,,,,,,,,,,,,,,,,,,,,,,,,,,,,,,,,,,,,,,,,,,,,,,,,,,,,,,,,,,,,,,,,0.293012026,left,0,100,30,130,1,1883.201302,1883.201302,1883.201302,None,None,4,0,0.7008355,0.045454545,,,,,,,,,,,,,,,,,,,,,,,,,,,,,,,,,,,,,,,,,,,,,10,19,1,2024-11-11_12h23.02.864,uWM_experiment,2022.2.3,59.99044952
,,,,,,,,,,,,,,,,23,0,23,0,,,,,,,,,,,,,,,,,,,,,,,,,,,,,,,,,,,,,,,,,,,,,,,,,,,,,,,,,,,,,,,,,,,,,,,,,,,,,,0.283012026,right,0,10,-30,-20,1,1890.218293,1890.218293,1890.218293,None,None,4,0,0.9558742,0.043478261,,,,,,,,,,,,,,,,,,,,,,,,,,,,,,,,,,,,,,,,,,,,,10,19,1,2024-11-11_12h23.02.864,uWM_experiment,2022.2.3,59.99044952
,,,,,,,,,,,,,,,,,,,,,,,,,,,,,,,,,,,,,,,,,,,,,,,,,,,,,,,,,,,,,,,,,,,,,,,,,,,,,,,,,,,,,,,,,,,,,,,,,,,,,,,,,,,,,,,,,1891.20163,1892.201666,space,7.1885834,,,,,,,,,,,,,,,,,,,,,,,,,,,,,,,,,,,,,,,,,10,19,1,2024-11-11_12h23.02.864,uWM_experiment,2022.2.3,59.99044952
,,,,,,,,,,,,,,,,,,,,0,0,0,0,0,0,0,0,,,,,,,,,,,,,,,,,,,,,,,,,,,,,,,,,,,,,,,,,,,,,,,,,,,,,,,,,,,,,,,,,,,,,,0.283012026,,,,,,,,,,,,,,,,,,,,1899.418615,1900.11864,1900.401985,1901.102011,1901.402008,1902.102049,1902.102049,1902.452072,right,0,160,-30,130,1,1907.968945,1907.968945,1907.968945,None,None,4,0,2.7492072,,,,,,,,,,,,,,,,,,,10,19,1,2024-11-11_12h23.02.864,uWM_experiment,2022.2.3,59.99044952
,,,,,,,,,,,,,,,,,,,,0,0,0,0,1,0,1,0,,,,,,,,,,,,,,,,,,,,,,,,,,,,,,,,,,,,,,,,,,,,,,,,,,,,,,,,,,,,,,,,,,,,,,0.273012026,,,,,,,,,,,,,,,,,,,,,,,,,,,,right,1,100,30,130,1,1917.969346,1917.969346,1917.969346,None,None,1,1,3.7887503,,,,,,,,,,,,,,,,,,,10,19,1,2024-11-11_12h23.02.864,uWM_experiment,2022.2.3,59.99044952
,,,,,,,,,,,,,,,,,,,,0,0,0,0,2,0,2,0,,,,,,,,,,,,,,,,,,,,,,,,,,,,,,,,,,,,,,,,,,,,,,,,,,,,,,,,,,,,,,,,,,,,,,0.283012026,,,,,,,,,,,,,,,,,,,,,,,,,,,,right,1,160,30,190,1,1930.086471,1930.086471,1930.086471,None,None,2,0,2.5674086,,,,,,,,,,,,,,,,,,,10,19,1,2024-11-11_12h23.02.864,uWM_experiment,2022.2.3,59.99044952
,,,,,,,,,,,,,,,,,,,,0,0,0,0,3,0,3,0,,,,,,,,,,,,,,,,,,,,,,,,,,,,,,,,,,,,,,,,,,,,,,,,,,,,,,,,,,,,,,,,,,,,,,0.273012026,,,,,,,,,,,,,,,,,,,,,,,,,,,,right,1,160,30,190,1,1939.053467,1939.053467,1939.053467,None,None,3,0,2.2165598,,,,,,,,,,,,,,,,,,,10,19,1,2024-11-11_12h23.02.864,uWM_experiment,2022.2.3,59.99044952
,,,,,,,,,,,,,,,,,,,,0,0,0,0,4,0,4,0,,,,,,,,,,,,,,,,,,,,,,,,,,,,,,,,,,,,,,,,,,,,,,,,,,,,,,,,,,,,,,,,,,,,,,0.263012026,,,,,,,,,,,,,,,,,,,,,,,,,,,,right,0,70,-30,40,1,1950.670573,1950.670573,1950.670573,None,None,4,0,1.6952962,,,,,,,,,,,,,,,,,,,10,19,1,2024-11-11_12h23.02.864,uWM_experiment,2022.2.3,59.99044952
,,,,,,,,,,,,,,,,,,,,0,0,0,0,5,0,5,0,,,,,,,,,,,,,,,,,,,,,,,,,,,,,,,,,,,,,,,,,,,,,,,,,,,,,,,,,,,,,,,,,,,,,,0.253012026,,,,,,,,,,,,,,,,,,,,,,,,,,,,right,0,40,-30,10,1,1958.387552,1958.387552,1958.387552,None,None,3,0,1.0822603,,,,,,,,,,,,,,,,,,,10,19,1,2024-11-11_12h23.02.864,uWM_experiment,2022.2.3,59.99044952
,,,,,,,,,,,,,,,,,,,,0,0,0,0,6,0,6,0,,,,,,,,,,,,,,,,,,,,,,,,,,,,,,,,,,,,,,,,,,,,,,,,,,,,,,,,,,,,,,,,,,,,,,0.243012026,,,,,,,,,,,,,,,,,,,,,,,,,,,,left,0,40,30,70,1,1968.871279,1968.871279,1968.871279,None,None,3,0,2.0785802,,,,,,,,,,,,,,,,,,,10,19,1,2024-11-11_12h23.02.864,uWM_experiment,2022.2.3,59.99044952
,,,,,,,,,,,,,,,,,,,,0,0,0,0,7,0,7,0,,,,,,,,,,,,,,,,,,,,,,,,,,,,,,,,,,,,,,,,,,,,,,,,,,,,,,,,,,,,,,,,,,,,,,0.1,,,,,,,,,,,,,,,,,,,,,,,,,,,,right,1,10,30,40,2,1977.638291,1977.638291,1977.638291,None,None,4,0,2.1594325,,,,,,,,,,,,,,,,,,,10,19,1,2024-11-11_12h23.02.864,uWM_experiment,2022.2.3,59.99044952
,,,,,,,,,,,,,,,,,,,,0,0,0,0,8,0,8,0,,,,,,,,,,,,,,,,,,,,,,,,,,,,,,,,,,,,,,,,,,,,,,,,,,,,,,,,,,,,,,,,,,,,,,0.1,,,,,,,,,,,,,,,,,,,,,,,,,,,,left,1,40,-30,10,2,1986.605295,1986.605295,1986.605295,None,None,4,0,1.6004226,,,,,,,,,,,,,,,,,,,10,19,1,2024-11-11_12h23.02.864,uWM_experiment,2022.2.3,59.99044952
,,,,,,,,,,,,,,,,,,,,0,0,0,0,9,0,9,0,,,,,,,,,,,,,,,,,,,,,,,,,,,,,,,,,,,,,,,,,,,,,,,,,,,,,,,,,,,,,,,,,,,,,,0.233012026,,,,,,,,,,,,,,,,,,,,,,,,,,,,left,1,130,-30,100,1,1997.605735,1997.605735,1997.605735,None,None,4,0,1.3517844,,,,,,,,,,,,,,,,,,,10,19,1,2024-11-11_12h23.02.864,uWM_experiment,2022.2.3,59.99044952
,,,,,,,,,,,,,,,,,,,,0,0,0,0,10,0,10,0,,,,,,,,,,,,,,,,,,,,,,,,,,,,,,,,,,,,,,,,,,,,,,,,,,,,,,,,,,,,,,,,,,,,,,0.223012026,,,,,,,,,,,,,,,,,,,,,,,,,,,,right,0,160,-30,130,1,2006.689397,2006.689397,2006.689397,None,None,4,0,1.0680668,,,,,,,,,,,,,,,,,,,10,19,1,2024-11-11_12h23.02.864,uWM_experiment,2022.2.3,59.99044952
,,,,,,,,,,,,,,,,,,,,0,0,0,0,11,0,11,0,,,,,,,,,,,,,,,,,,,,,,,,,,,,,,,,,,,,,,,,,,,,,,,,,,,,,,,,,,,,,,,,,,,,,,0.213012026,,,,,,,,,,,,,,,,,,,,,,,,,,,,right,0,40,-30,10,1,2014.906375,2014.906375,2014.906375,None,None,4,0,0.8431118,,,,,,,,,,,,,,,,,,,10,19,1,2024-11-11_12h23.02.864,uWM_experiment,2022.2.3,59.99044952
,,,,,,,,,,,,,,,,,,,,0,0,0,0,12,0,12,0,,,,,,,,,,,,,,,,,,,,,,,,,,,,,,,,,,,,,,,,,,,,,,,,,,,,,,,,,,,,,,,,,,,,,,0.203012026,,,,,,,,,,,,,,,,,,,,,,,,,,,,left,1,130,-30,100,1,2027.206845,2027.206845,2027.206845,None,None,4,0,0.3826812,,,,,,,,,,,,,,,,,,,10,19,1,2024-11-11_12h23.02.864,uWM_experiment,2022.2.3,59.99044952
,,,,,,,,,,,,,,,,,,,,0,0,0,0,13,0,13,0,,,,,,,,,,,,,,,,,,,,,,,,,,,,,,,,,,,,,,,,,,,,,,,,,,,,,,,,,,,,,,,,,,,,,,0,,,,,,,,,,,,,,,,,,,,,,,,,,,,right,0,70,-30,40,0,2037.707257,2037.707257,2037.707257,None,None,2,0,5.0821251,,,,,,,,,,,,,,,,,,,10,19,1,2024-11-11_12h23.02.864,uWM_experiment,2022.2.3,59.99044952
,,,,,,,,,,,,,,,,,,,,0,0,0,0,14,0,14,0,,,,,,,,,,,,,,,,,,,,,,,,,,,,,,,,,,,,,,,,,,,,,,,,,,,,,,,,,,,,,,,,,,,,,,0,,,,,,,,,,,,,,,,,,,,,,,,,,,,right,1,10,30,40,0,2052.591126,2052.591126,2052.591126,None,None,4,0,3.6302242,,,,,,,,,,,,,,,,,,,10,19,1,2024-11-11_12h23.02.864,uWM_experiment,2022.2.3,59.99044952
,,,,,,,,,,,,,,,,,,,,0,0,0,0,15,0,15,0,,,,,,,,,,,,,,,,,,,,,,,,,,,,,,,,,,,,,,,,,,,,,,,,,,,,,,,,,,,,,,,,,,,,,,0.193012026,,,,,,,,,,,,,,,,,,,,,,,,,,,,right,0,10,-30,-20,1,2062.958201,2062.958201,2062.958201,None,None,2,0,0.5991126,,,,,,,,,,,,,,,,,,,10,19,1,2024-11-11_12h23.02.864,uWM_experiment,2022.2.3,59.99044952
,,,,,,,,,,,,,,,,,,,,0,0,0,0,16,0,16,0,,,,,,,,,,,,,,,,,,,,,,,,,,,,,,,,,,,,,,,,,,,,,,,,,,,,,,,,,,,,,,,,,,,,,,0,,,,,,,,,,,,,,,,,,,,,,,,,,,,right,1,130,30,160,0,2072.758588,2072.758588,2072.758588,None,None,2,0,2.6466163,,,,,,,,,,,,,,,,,,,10,19,1,2024-11-11_12h23.02.864,uWM_experiment,2022.2.3,59.99044952
,,,,,,,,,,,,,,,,,,,,0,0,0,0,17,0,17,0,,,,,,,,,,,,,,,,,,,,,,,,,,,,,,,,,,,,,,,,,,,,,,,,,,,,,,,,,,,,,,,,,,,,,,0,,,,,,,,,,,,,,,,,,,,,,,,,,,,left,0,130,30,160,0,2085.559092,2085.559092,2085.559092,None,None,2,0,2.8300061,,,,,,,,,,,,,,,,,,,10,19,1,2024-11-11_12h23.02.864,uWM_experiment,2022.2.3,59.99044952
,,,,,,,,,,,,,,,,,,,,0,0,0,0,18,0,18,0,,,,,,,,,,,,,,,,,,,,,,,,,,,,,,,,,,,,,,,,,,,,,,,,,,,,,,,,,,,,,,,,,,,,,,0.183012026,,,,,,,,,,,,,,,,,,,,,,,,,,,,left,1,130,-30,100,1,2097.009502,2097.009502,2097.009502,None,None,4,0,4.3635568,,,,,,,,,,,,,,,,,,,10,19,1,2024-11-11_12h23.02.864,uWM_experiment,2022.2.3,59.99044952
,,,,,,,,,,,,,,,,,,,,0,0,0,0,19,0,19,0,,,,,,,,,,,,,,,,,,,,,,,,,,,,,,,,,,,,,,,,,,,,,,,,,,,,,,,,,,,,,,,,,,,,,,0.173012026,,,,,,,,,,,,,,,,,,,,,,,,,,,,right,0,100,-30,70,1,2108.3266,2108.3266,2108.3266,None,None,4,0,1.8624266,,,,,,,,,,,,,,,,,,,10,19,1,2024-11-11_12h23.02.864,uWM_experiment,2022.2.3,59.99044952
,,,,,,,,,,,,,,,,,,,,0,0,0,0,20,0,20,0,,,,,,,,,,,,,,,,,,,,,,,,,,,,,,,,,,,,,,,,,,,,,,,,,,,,,,,,,,,,,,,,,,,,,,0.163012026,,,,,,,,,,,,,,,,,,,,,,,,,,,,right,0,70,-30,40,1,2118.893682,2118.893682,2118.893682,None,None,4,0,1.8392088,,,,,,,,,,,,,,,,,,,10,19,1,2024-11-11_12h23.02.864,uWM_experiment,2022.2.3,59.99044952
,,,,,,,,,,,,,,,,,,,,0,0,0,0,21,0,21,0,,,,,,,,,,,,,,,,,,,,,,,,,,,,,,,,,,,,,,,,,,,,,,,,,,,,,,,,,,,,,,,,,,,,,,0,,,,,,,,,,,,,,,,,,,,,,,,,,,,left,0,100,30,130,0,2128.17737,2128.17737,2128.17737,None,None,4,0,2.1393717,,,,,,,,,,,,,,,,,,,10,19,1,2024-11-11_12h23.02.864,uWM_experiment,2022.2.3,59.99044952
,,,,,,,,,,,,,,,,,,,,0,0,0,0,22,0,22,0,,,,,,,,,,,,,,,,,,,,,,,,,,,,,,,,,,,,,,,,,,,,,,,,,,,,,,,,,,,,,,,,,,,,,,0,,,,,,,,,,,,,,,,,,,,,,,,,,,,right,0,70,-30,40,0,2136.794346,2136.794346,2136.794346,None,None,4,0,1.9464407,,,,,,,,,,,,,,,,,,,10,19,1,2024-11-11_12h23.02.864,uWM_experiment,2022.2.3,59.99044952
,,,,,,,,,,,,,,,,,,,,0,0,0,0,23,0,23,0,,,,,,,,,,,,,,,,,,,,,,,,,,,,,,,,,,,,,,,,,,,,,,,,,,,,,,,,,,,,,,,,,,,,,,0.153012026,,,,,,,,,,,,,,,,,,,,,,,,,,,,left,0,100,30,130,1,2145.694725,2145.694725,2145.694725,None,None,4,0,0.8699529,,,,,,,,,,,,,,,,,,,10,19,1,2024-11-11_12h23.02.864,uWM_experiment,2022.2.3,59.99044952
,,,,,,,,,,,,,,,,,,,,0,0,0,0,,,,,0,0,0,0,,,,,,,,,,,,,,,,,,,,,,,,,,,,,,,,,,,,,,,,,,,,,,,,,,,,,,,,,,,,,,,,,,,,,,,,,,,,,,,,,,,,,,,,,,,,,,,,,,,,,,,,,,,,2146.594699,2146.594699,space,137.6892383,None,None,,,,,,,,,,,,,10,19,1,2024-11-11_12h23.02.864,uWM_experiment,2022.2.3,59.99044952
,,,,,,,,,,,,,,,,,,,,0,0,0,0,,,,,1,0,1,0,,,,,,,,,,,,,,,,,,,,,,,,,,,,,,,,,,,,,,,,,,,,,,,,,,,,,,,,,,,,,,,,,,,,,,,,,,,,,,,,,,,,,,,,,,,,,,,,,,,,,,,,,,,,,,,,,,,,,,,,,,,,,,10,19,1,2024-11-11_12h23.02.864,uWM_experiment,2022.2.3,59.99044952
,,,,,,,,,,,,,,,,,,,,0,0,0,0,,,,,2,0,2,0,,,,,,,,,,,,,,,,,,,,,,,,,,,,,,,,,,,,,,,,,,,,,,,,,,,,,,,,,,,,,,,,,,,,,,,,,,,,,,,,,,,,,,,,,,,,,,,,,,,,,,,,,,,,,,,,,,,,,,,,,,,,,,10,19,1,2024-11-11_12h23.02.864,uWM_experiment,2022.2.3,59.99044952
,,,,,,,,,,,,,,,,,,,,1,0,1,0,0,0,0,0,,,,,,,,,,,,,,,,,,,,,,,,,,,,,,,,,,,,,,,,,,,,,,,,,,,,,,,,,,,,,,,,,,,,,,0.143012026,,,,,,,,,,,,,,,,,,,,2284.316685,2285.016667,2285.316692,2286.016707,2286.31672,2287.016759,2287.016759,2287.333436,right,1,100,30,130,1,2295.733729,2295.733729,2295.733729,None,None,1,1,2.5102236,,,,,,,None,,,,,,,,,,,,10,19,1,2024-11-11_12h23.02.864,uWM_experiment,2022.2.3,59.99044952
,,,,,,,,,,,,,,,,,,,,1,0,1,0,1,0,1,0,,,,,,,,,,,,,,,,,,,,,,,,,,,,,,,,,,,,,,,,,,,,,,,,,,,,,,,,,,,,,,,,,,,,,,0,,,,,,,,,,,,,,,,,,,,,,,,,,,,right,0,40,-30,10,0,2305.517463,2305.517463,2305.517463,None,None,4,0,1.8702404,,,,,,,,,,,,,,,,,,,10,19,1,2024-11-11_12h23.02.864,uWM_experiment,2022.2.3,59.99044952
,,,,,,,,,,,,,,,,,,,,1,0,1,0,2,0,2,0,,,,,,,,,,,,,,,,,,,,,,,,,,,,,,,,,,,,,,,,,,,,,,,,,,,,,,,,,,,,,,,,,,,,,,0.153012026,,,,,,,,,,,,,,,,,,,,,,,,,,,,left,1,160,-30,130,1,2314.101116,2314.101116,2314.101116,None,None,4,0,1.8226913,,,,,,,,,,,,,,,,,,,10,19,1,2024-11-11_12h23.02.864,uWM_experiment,2022.2.3,59.99044952
,,,,,,,,,,,,,,,,,,,,1,0,1,0,3,0,3,0,,,,,,,,,,,,,,,,,,,,,,,,,,,,,,,,,,,,,,,,,,,,,,,,,,,,,,,,,,,,,,,,,,,,,,0.143012026,,,,,,,,,,,,,,,,,,,,,,,,,,,,right,1,10,30,40,1,2322.251454,2322.251454,2322.251454,None,None,4,0,2.4963422,,,,,,,,,,,,,,,,,,,10,19,1,2024-11-11_12h23.02.864,uWM_experiment,2022.2.3,59.99044952
,,,,,,,,,,,,,,,,,,,,1,0,1,0,4,0,4,0,,,,,,,,,,,,,,,,,,,,,,,,,,,,,,,,,,,,,,,,,,,,,,,,,,,,,,,,,,,,,,,,,,,,,,0.133012026,,,,,,,,,,,,,,,,,,,,,,,,,,,,left,0,100,30,130,1,2331.635139,2331.635139,2331.635139,None,None,4,0,2.2326166,,,,,,,,,,,,,,,,,,,10,19,1,2024-11-11_12h23.02.864,uWM_experiment,2022.2.3,59.99044952
,,,,,,,,,,,,,,,,,,,,1,0,1,0,5,0,5,0,,,,,,,,,,,,,,,,,,,,,,,,,,,,,,,,,,,,,,,,,,,,,,,,,,,,,,,,,,,,,,,,,,,,,,0,,,,,,,,,,,,,,,,,,,,,,,,,,,,left,1,160,-30,130,0,2340.752154,2340.752154,2340.752154,None,None,4,0,2.1315179,,,,,,,,,,,,,,,,,,,10,19,1,2024-11-11_12h23.02.864,uWM_experiment,2022.2.3,59.99044952
,,,,,,,,,,,,,,,,,,,,1,0,1,0,6,0,6,0,,,,,,,,,,,,,,,,,,,,,,,,,,,,,,,,,,,,,,,,,,,,,,,,,,,,,,,,,,,,,,,,,,,,,,0.123012026,,,,,,,,,,,,,,,,,,,,,,,,,,,,left,1,160,-30,130,1,2349.385821,2349.385821,2349.385821,None,None,4,0,2.1937851,,,,,,,,,,,,,,,,,,,10,19,1,2024-11-11_12h23.02.864,uWM_experiment,2022.2.3,59.99044952
,,,,,,,,,,,,,,,,,,,,1,0,1,0,7,0,7,0,,,,,,,,,,,,,,,,,,,,,,,,,,,,,,,,,,,,,,,,,,,,,,,,,,,,,,,,,,,,,,,,,,,,,,0,,,,,,,,,,,,,,,,,,,,,,,,,,,,left,1,130,-30,100,0,2358.919517,2358.919517,2358.919517,None,None,4,0,1.3240365,,,,,,,,,,,,,,,,,,,10,19,1,2024-11-11_12h23.02.864,uWM_experiment,2022.2.3,59.99044952
,,,,,,,,,,,,,,,,,,,,1,0,1,0,8,0,8,0,,,,,,,,,,,,,,,,,,,,,,,,,,,,,,,,,,,,,,,,,,,,,,,,,,,,,,,,,,,,,,,,,,,,,,0.113012026,,,,,,,,,,,,,,,,,,,,,,,,,,,,left,1,40,-30,10,1,2366.919823,2366.919823,2366.919823,None,None,4,0,2.0995979,,,,,,,,,,,,,,,,,,,10,19,1,2024-11-11_12h23.02.864,uWM_experiment,2022.2.3,59.99044952
,,,,,,,,,,,,,,,,,,,,1,0,1,0,9,0,9,0,,,,,,,,,,,,,,,,,,,,,,,,,,,,,,,,,,,,,,,,,,,,,,,,,,,,,,,,,,,,,,,,,,,,,,0.103012026,,,,,,,,,,,,,,,,,,,,,,,,,,,,right,1,10,30,40,1,2376.220154,2376.220154,2376.220154,None,None,4,0,1.175319,,,,,,,,,,,,,,,,,,,10,19,1,2024-11-11_12h23.02.864,uWM_experiment,2022.2.3,59.99044952
,,,,,,,,,,,,,,,,,,,,1,0,1,0,10,0,10,0,,,,,,,,,,,,,,,,,,,,,,,,,,,,,,,,,,,,,,,,,,,,,,,,,,,,,,,,,,,,,,,,,,,,,,0.093012026,,,,,,,,,,,,,,,,,,,,,,,,,,,,right,1,40,30,70,1,2383.637121,2383.637121,2383.637121,None,None,4,0,2.6623173,,,,,,,,,,,,,,,,,,,10,19,1,2024-11-11_12h23.02.864,uWM_experiment,2022.2.3,59.99044952
,,,,,,,,,,,,,,,,,,,,1,0,1,0,11,0,11,0,,,,,,,,,,,,,,,,,,,,,,,,,,,,,,,,,,,,,,,,,,,,,,,,,,,,,,,,,,,,,,,,,,,,,,0,,,,,,,,,,,,,,,,,,,,,,,,,,,,left,0,130,30,160,0,2393.237493,2393.237493,2393.237493,None,None,4,0,2.4057277,,,,,,,,,,,,,,,,,,,10,19,1,2024-11-11_12h23.02.864,uWM_experiment,2022.2.3,59.99044952
,,,,,,,,,,,,,,,,,,,,1,0,1,0,12,0,12,0,,,,,,,,,,,,,,,,,,,,,,,,,,,,,,,,,,,,,,,,,,,,,,,,,,,,,,,,,,,,,,,,,,,,,,0.083012026,,,,,,,,,,,,,,,,,,,,,,,,,,,,right,1,10,30,40,1,2402.637904,2402.637904,2402.637904,None,None,4,0,1.6212702,,,,,,,,,,,,,,,,,,,10,19,1,2024-11-11_12h23.02.864,uWM_experiment,2022.2.3,59.99044952
,,,,,,,,,,,,,,,,,,,,1,0,1,0,13,0,13,0,,,,,,,,,,,,,,,,,,,,,,,,,,,,,,,,,,,,,,,,,,,,,,,,,,,,,,,,,,,,,,,,,,,,,,0,,,,,,,,,,,,,,,,,,,,,,,,,,,,left,1,130,-30,100,0,2412.371556,2412.371556,2412.371556,None,None,4,0,1.1675877,,,,,,,,,,,,,,,,,,,10,19,1,2024-11-11_12h23.02.864,uWM_experiment,2022.2.3,59.99044952
,,,,,,,,,,,,,,,,,,,,1,0,1,0,14,0,14,0,,,,,,,,,,,,,,,,,,,,,,,,,,,,,,,,,,,,,,,,,,,,,,,,,,,,,,,,,,,,,,,,,,,,,,0.1,,,,,,,,,,,,,,,,,,,,,,,,,,,,right,1,70,30,100,2,2429.422202,2429.422202,2429.422202,None,None,3,0,2.6367938,,,,,,,,,,,,,,,,,,,10,19,1,2024-11-11_12h23.02.864,uWM_experiment,2022.2.3,59.99044952
,,,,,,,,,,,,,,,,,,,,1,0,1,0,15,0,15,0,,,,,,,,,,,,,,,,,,,,,,,,,,,,,,,,,,,,,,,,,,,,,,,,,,,,,,,,,,,,,,,,,,,,,,0.073012026,,,,,,,,,,,,,,,,,,,,,,,,,,,,right,0,40,-30,10,1,2440.189284,2440.189284,2440.189284,None,None,4,0,3.877774,,,,,,,,,,,,,,,,,,,10,19,1,2024-11-11_12h23.02.864,uWM_experiment,2022.2.3,59.99044952
,,,,,,,,,,,,,,,,,,,,1,0,1,0,16,0,16,0,,,,,,,,,,,,,,,,,,,,,,,,,,,,,,,,,,,,,,,,,,,,,,,,,,,,,,,,,,,,,,,,,,,,,,0.063012026,,,,,,,,,,,,,,,,,,,,,,,,,,,,right,0,70,-30,40,1,2451.389711,2451.389711,2451.389711,None,None,4,0,0.6532181,,,,,,,,,,,,,,,,,,,10,19,1,2024-11-11_12h23.02.864,uWM_experiment,2022.2.3,59.99044952
,,,,,,,,,,,,,,,,,,,,1,0,1,0,17,0,17,0,,,,,,,,,,,,,,,,,,,,,,,,,,,,,,,,,,,,,,,,,,,,,,,,,,,,,,,,,,,,,,,,,,,,,,0.053012026,,,,,,,,,,,,,,,,,,,,,,,,,,,,right,1,10,30,40,1,2458.406634,2458.406634,2458.406634,None,None,4,0,0.876403,,,,,,,,,,,,,,,,,,,10,19,1,2024-11-11_12h23.02.864,uWM_experiment,2022.2.3,59.99044952
,,,,,,,,,,,,,,,,,,,,1,0,1,0,18,0,18,0,,,,,,,,,,,,,,,,,,,,,,,,,,,,,,,,,,,,,,,,,,,,,,,,,,,,,,,,,,,,,,,,,,,,,,0.043012026,,,,,,,,,,,,,,,,,,,,,,,,,,,,right,0,70,-30,40,1,2465.44025,2465.44025,2465.44025,None,None,4,0,0.8267316,,,,,,,,,,,,,,,,,,,10,19,1,2024-11-11_12h23.02.864,uWM_experiment,2022.2.3,59.99044952
,,,,,,,,,,,,,,,,,,,,1,0,1,0,19,0,19,0,,,,,,,,,,,,,,,,,,,,,,,,,,,,,,,,,,,,,,,,,,,,,,,,,,,,,,,,,,,,,,,,,,,,,,0.033012026,,,,,,,,,,,,,,,,,,,,,,,,,,,,left,0,100,30,130,1,2473.340538,2473.340538,2473.340538,None,None,4,0,0.6222326,,,,,,,,,,,,,,,,,,,10,19,1,2024-11-11_12h23.02.864,uWM_experiment,2022.2.3,59.99044952
,,,,,,,,,,,,,,,,,,,,1,0,1,0,20,0,20,0,,,,,,,,,,,,,,,,,,,,,,,,,,,,,,,,,,,,,,,,,,,,,,,,,,,,,,,,,,,,,,,,,,,,,,0,,,,,,,,,,,,,,,,,,,,,,,,,,,,right,1,10,30,40,0,2479.657439,2479.657439,2479.657439,None,None,4,0,1.1614533,,,,,,,,,,,,,,,,,,,10,19,1,2024-11-11_12h23.02.864,uWM_experiment,2022.2.3,59.99044952
,,,,,,,,,,,,,,,,,,,,1,0,1,0,21,0,21,0,,,,,,,,,,,,,,,,,,,,,,,,,,,,,,,,,,,,,,,,,,,,,,,,,,,,,,,,,,,,,,,,,,,,,,0,,,,,,,,,,,,,,,,,,,,,,,,,,,,left,1,160,-30,130,0,2487.741093,2487.741093,2487.741093,None,None,4,0,0.5417398,,,,,,,,,,,,,,,,,,,10,19,1,2024-11-11_12h23.02.864,uWM_experiment,2022.2.3,59.99044952
,,,,,,,,,,,,,,,,,,,,1,0,1,0,22,0,22,0,,,,,,,,,,,,,,,,,,,,,,,,,,,,,,,,,,,,,,,,,,,,,,,,,,,,,,,,,,,,,,,,,,,,,,0,,,,,,,,,,,,,,,,,,,,,,,,,,,,left,1,10,-30,-20,0,2494.874698,2494.874698,2494.874698,None,None,4,0,1.1839387,,,,,,,,,,,,,,,,,,,10,19,1,2024-11-11_12h23.02.864,uWM_experiment,2022.2.3,59.99044952
,,,,,,,,,,,,,,,,,,,,1,0,1,0,23,0,23,0,,,,,,,,,,,,,,,,,,,,,,,,,,,,,,,,,,,,,,,,,,,,,,,,,,,,,,,,,,,,,,,,,,,,,,0.023012026,,,,,,,,,,,,,,,,,,,,,,,,,,,,left,1,130,-30,100,1,2502.27498,2502.27498,2502.27498,None,None,3,0,2.4316228,,,,,,,,,,,,,,,,,,,10,19,1,2024-11-11_12h23.02.864,uWM_experiment,2022.2.3,59.99044952
,,,,,,,,,,,,,,,,,,,,1,0,1,0,,,,,0,0,0,0,,,,,,,,,,,,,,,,,,,,,,,,,,,,,,,,,,,,,,,,,,,,,,,,,,,,,,,,,,,,,,,,,,,,,,,,,,,,,,,,,,,,,,,,,,,,,,,,,,,,,,,,,,,,2504.725044,2504.725044,space,51.7334219,None,None,,,,,,,,,,,,,10,19,1,2024-11-11_12h23.02.864,uWM_experiment,2022.2.3,59.99044952
,,,,,,,,,,,,,,,,,,,,1,0,1,0,,,,,1,0,1,0,,,,,,,,,,,,,,,,,,,,,,,,,,,,,,,,,,,,,,,,,,,,,,,,,,,,,,,,,,,,,,,,,,,,,,,,,,,,,,,,,,,,,,,,,,,,,,,,,,,,,,,,,,,,,,,,,,,,,,,,,,,,,,10,19,1,2024-11-11_12h23.02.864,uWM_experiment,2022.2.3,59.99044952
,,,,,,,,,,,,,,,,,,,,1,0,1,0,,,,,2,0,2,0,,,,,,,,,,,,,,,,,,,,,,,,,,,,,,,,,,,,,,,,,,,,,,,,,,,,,,,,,,,,,,,,,,,,,,,,,,,,,,,,,,,,,,,,,,,,,,,,,,,,,,,,,,,,,,,,,,,,,,,,,,,,,,10,19,1,2024-11-11_12h23.02.864,uWM_experiment,2022.2.3,59.99044952
,,,,,,,,,,,,,,,,,,,,2,0,2,0,0,0,0,0,,,,,,,,,,,,,,,,,,,,,,,,,,,,,,,,,,,,,,,,,,,,,,,,,,,,,,,,,,,,,,,,,,,,,,0.013012026,,,,,,,,,,,,,,,,,,,,2556.47702,2557.177022,2557.47708,2558.177088,2558.477095,2559.177126,2559.177126,2559.493808,right,1,10,30,40,1,2565.494059,2565.494059,2565.494059,None,None,4,0,1.1563653,,,,,,,None,,,,,,,,,,,,10,19,1,2024-11-11_12h23.02.864,uWM_experiment,2022.2.3,59.99044952
,,,,,,,,,,,,,,,,,,,,2,0,2,0,1,0,1,0,,,,,,,,,,,,,,,,,,,,,,,,,,,,,,,,,,,,,,,,,,,,,,,,,,,,,,,,,,,,,,,,,,,,,,0.005,,,,,,,,,,,,,,,,,,,,,,,,,,,,left,0,130,30,160,1,2573.344341,2573.344341,2573.344341,None,None,4,0,0.9698708,,,,,,,,,,,,,,,,,,,10,19,1,2024-11-11_12h23.02.864,uWM_experiment,2022.2.3,59.99044952
,,,,,,,,,,,,,,,,,,,,2,0,2,0,2,0,2,0,,,,,,,,,,,,,,,,,,,,,,,,,,,,,,,,,,,,,,,,,,,,,,,,,,,,,,,,,,,,,,,,,,,,,,0,,,,,,,,,,,,,,,,,,,,,,,,,,,,left,1,160,-30,130,0,2582.778027,2582.778027,2582.778027,None,None,4,0,0.8561586,,,,,,,,,,,,,,,,,,,10,19,1,2024-11-11_12h23.02.864,uWM_experiment,2022.2.3,59.99044952
,,,,,,,,,,,,,,,,,,,,2,0,2,0,3,0,3,0,,,,,,,,,,,,,,,,,,,,,,,,,,,,,,,,,,,,,,,,,,,,,,,,,,,,,,,,,,,,,,,,,,,,,,0.005,,,,,,,,,,,,,,,,,,,,,,,,,,,,left,0,100,30,130,1,2591.261682,2591.261682,2591.261682,None,None,4,0,0.9405014,,,,,,,,,,,,,,,,,,,10,19,1,2024-11-11_12h23.02.864,uWM_experiment,2022.2.3,59.99044952
,,,,,,,,,,,,,,,,,,,,2,0,2,0,4,0,4,0,,,,,,,,,,,,,,,,,,,,,,,,,,,,,,,,,,,,,,,,,,,,,,,,,,,,,,,,,,,,,,,,,,,,,,0.005,,,,,,,,,,,,,,,,,,,,,,,,,,,,right,0,40,-30,10,1,2599.145329,2599.145329,2599.145329,None,None,4,0,1.352708,,,,,,,,,,,,,,,,,,,10,19,1,2024-11-11_12h23.02.864,uWM_experiment,2022.2.3,59.99044952
,,,,,,,,,,,,,,,,,,,,2,0,2,0,5,0,5,0,,,,,,,,,,,,,,,,,,,,,,,,,,,,,,,,,,,,,,,,,,,,,,,,,,,,,,,,,,,,,,,,,,,,,,0.005,,,,,,,,,,,,,,,,,,,,,,,,,,,,right,1,10,30,40,1,2607.67898,2607.67898,2607.67898,None,None,4,0,0.7550176,,,,,,,,,,,,,,,,,,,10,19,1,2024-11-11_12h23.02.864,uWM_experiment,2022.2.3,59.99044952
,,,,,,,,,,,,,,,,,,,,2,0,2,0,6,0,6,0,,,,,,,,,,,,,,,,,,,,,,,,,,,,,,,,,,,,,,,,,,,,,,,,,,,,,,,,,,,,,,,,,,,,,,0.005,,,,,,,,,,,,,,,,,,,,,,,,,,,,left,1,130,-30,100,1,2615.679281,2615.679281,2615.679281,None,None,4,0,1.6988165,,,,,,,,,,,,,,,,,,,10,19,1,2024-11-11_12h23.02.864,uWM_experiment,2022.2.3,59.99044952
,,,,,,,,,,,,,,,,,,,,2,0,2,0,7,0,7,0,,,,,,,,,,,,,,,,,,,,,,,,,,,,,,,,,,,,,,,,,,,,,,,,,,,,,,,,,,,,,,,,,,,,,,0.005,,,,,,,,,,,,,,,,,,,,,,,,,,,,left,1,160,-30,130,1,2625.112957,2625.112957,2625.112957,None,None,4,0,0.5930187,,,,,,,,,,,,,,,,,,,10,19,1,2024-11-11_12h23.02.864,uWM_experiment,2022.2.3,59.99044952
,,,,,,,,,,,,,,,,,,,,2,0,2,0,8,0,8,0,,,,,,,,,,,,,,,,,,,,,,,,,,,,,,,,,,,,,,,,,,,,,,,,,,,,,,,,,,,,,,,,,,,,,,0,,,,,,,,,,,,,,,,,,,,,,,,,,,,left,1,130,-30,100,0,2633.213268,2633.213268,2633.213268,None,None,4,0,0.7966741,,,,,,,,,,,,,,,,,,,10,19,1,2024-11-11_12h23.02.864,uWM_experiment,2022.2.3,59.99044952
,,,,,,,,,,,,,,,,,,,,2,0,2,0,9,0,9,0,,,,,,,,,,,,,,,,,,,,,,,,,,,,,,,,,,,,,,,,,,,,,,,,,,,,,,,,,,,,,,,,,,,,,,0.005,,,,,,,,,,,,,,,,,,,,,,,,,,,,right,1,160,30,190,1,2641.280242,2641.280242,2641.280242,None,None,4,0,1.145728,,,,,,,,,,,,,,,,,,,10,19,1,2024-11-11_12h23.02.864,uWM_experiment,2022.2.3,59.99044952
,,,,,,,,,,,,,,,,,,,,2,0,2,0,10,0,10,0,,,,,,,,,,,,,,,,,,,,,,,,,,,,,,,,,,,,,,,,,,,,,,,,,,,,,,,,,,,,,,,,,,,,,,0,,,,,,,,,,,,,,,,,,,,,,,,,,,,right,1,40,30,70,0,2649.063896,2649.063896,2649.063896,None,None,4,0,0.6178527,,,,,,,,,,,,,,,,,,,10,19,1,2024-11-11_12h23.02.864,uWM_experiment,2022.2.3,59.99044952
,,,,,,,,,,,,,,,,,,,,2,0,2,0,11,0,11,0,,,,,,,,,,,,,,,,,,,,,,,,,,,,,,,,,,,,,,,,,,,,,,,,,,,,,,,,,,,,,,,,,,,,,,0.005,,,,,,,,,,,,,,,,,,,,,,,,,,,,left,0,70,30,100,1,2655.997494,2655.997494,2655.997494,None,None,4,0,0.9083664,,,,,,,,,,,,,,,,,,,10,19,1,2024-11-11_12h23.02.864,uWM_experiment,2022.2.3,59.99044952
,,,,,,,,,,,,,,,,,,,,2,0,2,0,12,0,12,0,,,,,,,,,,,,,,,,,,,,,,,,,,,,,,,,,,,,,,,,,,,,,,,,,,,,,,,,,,,,,,,,,,,,,,0,,,,,,,,,,,,,,,,,,,,,,,,,,,,left,1,10,-30,-20,0,2665.214534,2665.214534,2665.214534,None,None,4,0,0.4832704,,,,,,,,,,,,,,,,,,,10,19,1,2024-11-11_12h23.02.864,uWM_experiment,2022.2.3,59.99044952
,,,,,,,,,,,,,,,,,,,,2,0,2,0,13,0,13,0,,,,,,,,,,,,,,,,,,,,,,,,,,,,,,,,,,,,,,,,,,,,,,,,,,,,,,,,,,,,,,,,,,,,,,0,,,,,,,,,,,,,,,,,,,,,,,,,,,,left,1,130,-30,100,0,2672.214781,2672.214781,2672.214781,None,None,4,0,0.4829345,,,,,,,,,,,,,,,,,,,10,19,1,2024-11-11_12h23.02.864,uWM_experiment,2022.2.3,59.99044952
,,,,,,,,,,,,,,,,,,,,2,0,2,0,14,0,14,0,,,,,,,,,,,,,,,,,,,,,,,,,,,,,,,,,,,,,,,,,,,,,,,,,,,,,,,,,,,,,,,,,,,,,,0.1,,,,,,,,,,,,,,,,,,,,,,,,,,,,right,1,40,30,70,2,2684.065223,2684.065223,2684.065223,None,None,4,0,0.7043637,,,,,,,,,,,,,,,,,,,10,19,1,2024-11-11_12h23.02.864,uWM_experiment,2022.2.3,59.99044952
,,,,,,,,,,,,,,,,,,,,2,0,2,0,15,0,15,0,,,,,,,,,,,,,,,,,,,,,,,,,,,,,,,,,,,,,,,,,,,,,,,,,,,,,,,,,,,,,,,,,,,,,,0.005,,,,,,,,,,,,,,,,,,,,,,,,,,,,right,1,10,30,40,1,2691.932179,2691.932179,2691.932179,None,None,4,0,0.9254774,,,,,,,,,,,,,,,,,,,10,19,1,2024-11-11_12h23.02.864,uWM_experiment,2022.2.3,59.99044952
,,,,,,,,,,,,,,,,,,,,2,0,2,0,16,0,16,0,,,,,,,,,,,,,,,,,,,,,,,,,,,,,,,,,,,,,,,,,,,,,,,,,,,,,,,,,,,,,,,,,,,,,,0.005,,,,,,,,,,,,,,,,,,,,,,,,,,,,left,0,130,30,160,1,2699.099126,2699.099126,2699.099126,None,None,4,0,0.6784944,,,,,,,,,,,,,,,,,,,10,19,1,2024-11-11_12h23.02.864,uWM_experiment,2022.2.3,59.99044952
,,,,,,,,,,,,,,,,,,,,2,0,2,0,17,0,17,0,,,,,,,,,,,,,,,,,,,,,,,,,,,,,,,,,,,,,,,,,,,,,,,,,,,,,,,,,,,,,,,,,,,,,,0.005,,,,,,,,,,,,,,,,,,,,,,,,,,,,right,0,70,-30,40,1,2705.649372,2705.649372,2705.649372,None,None,4,0,0.5120575,,,,,,,,,,,,,,,,,,,10,19,1,2024-11-11_12h23.02.864,uWM_experiment,2022.2.3,59.99044952
,,,,,,,,,,,,,,,,,,,,2,0,2,0,18,0,18,0,,,,,,,,,,,,,,,,,,,,,,,,,,,,,,,,,,,,,,,,,,,,,,,,,,,,,,,,,,,,,,,,,,,,,,0.005,,,,,,,,,,,,,,,,,,,,,,,,,,,,right,1,40,30,70,1,2711.999641,2711.999641,2711.999641,None,None,4,0,0.7537696,,,,,,,,,,,,,,,,,,,10,19,1,2024-11-11_12h23.02.864,uWM_experiment,2022.2.3,59.99044952
,,,,,,,,,,,,,,,,,,,,2,0,2,0,19,0,19,0,,,,,,,,,,,,,,,,,,,,,,,,,,,,,,,,,,,,,,,,,,,,,,,,,,,,,,,,,,,,,,,,,,,,,,0.005,,,,,,,,,,,,,,,,,,,,,,,,,,,,right,1,160,30,190,1,2719.466568,2719.466568,2719.466568,None,None,4,0,0.8628954,,,,,,,,,,,,,,,,,,,10,19,1,2024-11-11_12h23.02.864,uWM_experiment,2022.2.3,59.99044952
,,,,,,,,,,,,,,,,,,,,2,0,2,0,20,0,20,0,,,,,,,,,,,,,,,,,,,,,,,,,,,,,,,,,,,,,,,,,,,,,,,,,,,,,,,,,,,,,,,,,,,,,,0.005,,,,,,,,,,,,,,,,,,,,,,,,,,,,right,0,100,-30,70,1,2726.050179,2726.050179,2726.050179,None,None,4,0,0.4792459,,,,,,,,,,,,,,,,,,,10,19,1,2024-11-11_12h23.02.864,uWM_experiment,2022.2.3,59.99044952
,,,,,,,,,,,,,,,,,,,,2,0,2,0,21,0,21,0,,,,,,,,,,,,,,,,,,,,,,,,,,,,,,,,,,,,,,,,,,,,,,,,,,,,,,,,,,,,,,,,,,,,,,0,,,,,,,,,,,,,,,,,,,,,,,,,,,,left,1,40,-30,10,0,2734.717166,2734.717166,2734.717166,None,None,4,0,0.7642501,,,,,,,,,,,,,,,,,,,10,19,1,2024-11-11_12h23.02.864,uWM_experiment,2022.2.3,59.99044952
,,,,,,,,,,,,,,,,,,,,2,0,2,0,22,0,22,0,,,,,,,,,,,,,,,,,,,,,,,,,,,,,,,,,,,,,,,,,,,,,,,,,,,,,,,,,,,,,,,,,,,,,,0,,,,,,,,,,,,,,,,,,,,,,,,,,,,left,0,130,30,160,0,2741.317403,2741.317403,2741.317403,None,None,4,0,0.4998972,,,,,,,,,,,,,,,,,,,10,19,1,2024-11-11_12h23.02.864,uWM_experiment,2022.2.3,59.99044952
,,,,,,,,,,,,,,,,,,,,2,0,2,0,23,0,23,0,,,,,,,,,,,,,,,,,,,,,,,,,,,,,,,,,,,,,,,,,,,,,,,,,,,,,,,,,,,,,,,,,,,,,,0.005,,,,,,,,,,,,,,,,,,,,,,,,,,,,left,1,160,-30,130,1,2747.784328,2747.784328,2747.784328,None,None,4,0,0.3928918,,,,,,,,,,,,,,,,,,,10,19,1,2024-11-11_12h23.02.864,uWM_experiment,2022.2.3,59.99044952
,,,,,,,,,,,,,,,,,,,,2,0,2,0,,,,,0,0,0,0,,,,,,,,,,,,,,,,,,,,,,,,,,,,,,,,,,,,,,,,,,,,,,,,,,,,,,,,,,,,,,,,,,,,,,,,,,,,,,,,,,,,,,,,,,,,,,,,,,,,,,,,,,,,2748.200987,2748.200987,space,61.8080211,space,None,,2810.036697,2810.036697,16.5482078,,,,,,,,,10,19,1,2024-11-11_12h23.02.864,uWM_experiment,2022.2.3,59.99044952
,,,,,,,,,,,,,,,,,,,,2,0,2,0,,,,,1,0,1,0,,,,,,,,,,,,,,,,,,,,,,,,,,,,,,,,,,,,,,,,,,,,,,,,,,,,,,,,,,,,,,,,,,,,,,,,,,,,,,,,,,,,,,,,,,,,,,,,,,,,,,,,,,,,,,,,,,,,,,,,,,,,,,10,19,1,2024-11-11_12h23.02.864,uWM_experiment,2022.2.3,59.99044952
,,,,,,,,,,,,,,,,,,,,2,0,2,0,,,,,2,0,2,0,,,,,,,,,,,,,,,,,,,,,,,,,,,,,,,,,,,,,,,,,,,,,,,,,,,,,,,,,,,,,,,,,,,,,,,,,,,,,,,,,,,,,,,,,,,,,,,,,,,,,,,,,,,,,,,,,,,,,,,,,,,,,,10,19,1,2024-11-11_12h23.02.864,uWM_experiment,2022.2.3,59.99044952
,,,,,,,,,,,,,,,,,,,,3,0,3,0,0,0,0,0,,,,,,,,,,,,,,,,,,,,,,,,,,,,,,,,,,,,,,,,,,,,,,,,,,,,,,,,,,,,,,,,,,,,,,0.005,,,,,,,,,,,,,,,,,,,,2826.603992,2827.304012,2827.604055,2828.304056,2828.604066,2829.304101,2829.304101,2829.620802,right,0,10,-30,-20,1,2836.354393,2836.354393,2836.354393,None,None,1,1,3.6222556,,,,,,,None,,,,,,,,,,,,10,19,1,2024-11-11_12h23.02.864,uWM_experiment,2022.2.3,59.99044952
,,,,,,,,,,,,,,,,,,,,3,0,3,0,1,0,1,0,,,,,,,,,,,,,,,,,,,,,,,,,,,,,,,,,,,,,,,,,,,,,,,,,,,,,,,,,,,,,,,,,,,,,,0.015,,,,,,,,,,,,,,,,,,,,,,,,,,,,right,0,130,-30,100,1,2846.921446,2846.921446,2846.921446,None,None,1,1,4.8312803,,,,,,,,,,,,,,,,,,,10,19,1,2024-11-11_12h23.02.864,uWM_experiment,2022.2.3,59.99044952
,,,,,,,,,,,,,,,,,,,,3,0,3,0,2,0,2,0,,,,,,,,,,,,,,,,,,,,,,,,,,,,,,,,,,,,,,,,,,,,,,,,,,,,,,,,,,,,,,,,,,,,,,0.025,,,,,,,,,,,,,,,,,,,,,,,,,,,,right,1,130,30,160,1,2861.605353,2861.605353,2861.605353,None,None,1,1,0.8271828,,,,,,,,,,,,,,,,,,,10,19,1,2024-11-11_12h23.02.864,uWM_experiment,2022.2.3,59.99044952
,,,,,,,,,,,,,,,,,,,,3,0,3,0,3,0,3,0,,,,,,,,,,,,,,,,,,,,,,,,,,,,,,,,,,,,,,,,,,,,,,,,,,,,,,,,,,,,,,,,,,,,,,0.035,,,,,,,,,,,,,,,,,,,,,,,,,,,,right,0,40,-30,10,1,2869.889031,2869.889031,2869.889031,None,None,4,0,3.3835638,,,,,,,,,,,,,,,,,,,10,19,1,2024-11-11_12h23.02.864,uWM_experiment,2022.2.3,59.99044952
,,,,,,,,,,,,,,,,,,,,3,0,3,0,4,0,4,0,,,,,,,,,,,,,,,,,,,,,,,,,,,,,,,,,,,,,,,,,,,,,,,,,,,,,,,,,,,,,,,,,,,,,,0.025,,,,,,,,,,,,,,,,,,,,,,,,,,,,left,1,130,-30,100,1,2880.356065,2880.356065,2880.356065,None,None,4,0,2.4604822,,,,,,,,,,,,,,,,,,,10,19,1,2024-11-11_12h23.02.864,uWM_experiment,2022.2.3,59.99044952
,,,,,,,,,,,,,,,,,,,,3,0,3,0,5,0,5,0,,,,,,,,,,,,,,,,,,,,,,,,,,,,,,,,,,,,,,,,,,,,,,,,,,,,,,,,,,,,,,,,,,,,,,0.1,,,,,,,,,,,,,,,,,,,,,,,,,,,,left,0,100,30,130,2,2890.106427,2890.106427,2890.106427,None,None,4,0,2.021892,,,,,,,,,,,,,,,,,,,10,19,1,2024-11-11_12h23.02.864,uWM_experiment,2022.2.3,59.99044952
,,,,,,,,,,,,,,,,,,,,3,0,3,0,6,0,6,0,,,,,,,,,,,,,,,,,,,,,,,,,,,,,,,,,,,,,,,,,,,,,,,,,,,,,,,,,,,,,,,,,,,,,,0.015,,,,,,,,,,,,,,,,,,,,,,,,,,,,left,1,10,-30,-20,1,2899.006761,2899.006761,2899.006761,None,None,4,0,1.5855198,,,,,,,,,,,,,,,,,,,10,19,1,2024-11-11_12h23.02.864,uWM_experiment,2022.2.3,59.99044952
,,,,,,,,,,,,,,,,,,,,3,0,3,0,7,0,7,0,,,,,,,,,,,,,,,,,,,,,,,,,,,,,,,,,,,,,,,,,,,,,,,,,,,,,,,,,,,,,,,,,,,,,,0.005,,,,,,,,,,,,,,,,,,,,,,,,,,,,left,1,10,-30,-20,1,2907.290422,2907.290422,2907.290422,None,None,4,0,2.0139993,,,,,,,,,,,,,,,,,,,10,19,1,2024-11-11_12h23.02.864,uWM_experiment,2022.2.3,59.99044952
,,,,,,,,,,,,,,,,,,,,3,0,3,0,8,0,8,0,,,,,,,,,,,,,,,,,,,,,,,,,,,,,,,,,,,,,,,,,,,,,,,,,,,,,,,,,,,,,,,,,,,,,,0.005,,,,,,,,,,,,,,,,,,,,,,,,,,,,left,1,10,-30,-20,1,2916.007435,2916.007435,2916.007435,None,None,4,0,1.1847764,,,,,,,,,,,,,,,,,,,10,19,1,2024-11-11_12h23.02.864,uWM_experiment,2022.2.3,59.99044952
,,,,,,,,,,,,,,,,,,,,3,0,3,0,9,0,9,0,,,,,,,,,,,,,,,,,,,,,,,,,,,,,,,,,,,,,,,,,,,,,,,,,,,,,,,,,,,,,,,,,,,,,,0.005,,,,,,,,,,,,,,,,,,,,,,,,,,,,right,0,100,-30,70,1,2922.891026,2922.891026,2922.891026,None,None,4,0,0.6293284,,,,,,,,,,,,,,,,,,,10,19,1,2024-11-11_12h23.02.864,uWM_experiment,2022.2.3,59.99044952
,,,,,,,,,,,,,,,,,,,,3,0,3,0,10,0,10,0,,,,,,,,,,,,,,,,,,,,,,,,,,,,,,,,,,,,,,,,,,,,,,,,,,,,,,,,,,,,,,,,,,,,,,0.005,,,,,,,,,,,,,,,,,,,,,,,,,,,,left,1,160,-30,130,1,2930.44128,2930.44128,2930.44128,None,None,4,0,1.2148861,,,,,,,,,,,,,,,,,,,10,19,1,2024-11-11_12h23.02.864,uWM_experiment,2022.2.3,59.99044952
,,,,,,,,,,,,,,,,,,,,3,0,3,0,11,0,11,0,,,,,,,,,,,,,,,,,,,,,,,,,,,,,,,,,,,,,,,,,,,,,,,,,,,,,,,,,,,,,,,,,,,,,,0.005,,,,,,,,,,,,,,,,,,,,,,,,,,,,left,0,70,30,100,1,2940.808381,2940.808381,2940.808381,None,None,4,0,0.9356764,,,,,,,,,,,,,,,,,,,10,19,1,2024-11-11_12h23.02.864,uWM_experiment,2022.2.3,59.99044952
,,,,,,,,,,,,,,,,,,,,3,0,3,0,12,0,12,0,,,,,,,,,,,,,,,,,,,,,,,,,,,,,,,,,,,,,,,,,,,,,,,,,,,,,,,,,,,,,,,,,,,,,,0.005,,,,,,,,,,,,,,,,,,,,,,,,,,,,left,0,70,30,100,1,2948.725343,2948.725343,2948.725343,None,None,4,0,0.7706822,,,,,,,,,,,,,,,,,,,10,19,1,2024-11-11_12h23.02.864,uWM_experiment,2022.2.3,59.99044952
,,,,,,,,,,,,,,,,,,,,3,0,3,0,13,0,13,0,,,,,,,,,,,,,,,,,,,,,,,,,,,,,,,,,,,,,,,,,,,,,,,,,,,,,,,,,,,,,,,,,,,,,,0,,,,,,,,,,,,,,,,,,,,,,,,,,,,left,0,100,30,130,0,2955.325578,2955.325578,2955.325578,None,None,4,0,0.6584473,,,,,,,,,,,,,,,,,,,10,19,1,2024-11-11_12h23.02.864,uWM_experiment,2022.2.3,59.99044952
,,,,,,,,,,,,,,,,,,,,3,0,3,0,14,0,14,0,,,,,,,,,,,,,,,,,,,,,,,,,,,,,,,,,,,,,,,,,,,,,,,,,,,,,,,,,,,,,,,,,,,,,,0.005,,,,,,,,,,,,,,,,,,,,,,,,,,,,right,1,10,30,40,1,2961.859159,2961.859159,2961.859159,None,None,4,0,0.6527867,,,,,,,,,,,,,,,,,,,10,19,1,2024-11-11_12h23.02.864,uWM_experiment,2022.2.3,59.99044952
,,,,,,,,,,,,,,,,,,,,3,0,3,0,15,0,15,0,,,,,,,,,,,,,,,,,,,,,,,,,,,,,,,,,,,,,,,,,,,,,,,,,,,,,,,,,,,,,,,,,,,,,,0.005,,,,,,,,,,,,,,,,,,,,,,,,,,,,left,1,160,-30,130,1,2968.376072,2968.376072,2968.376072,None,None,4,0,0.528052,,,,,,,,,,,,,,,,,,,10,19,1,2024-11-11_12h23.02.864,uWM_experiment,2022.2.3,59.99044952
,,,,,,,,,,,,,,,,,,,,3,0,3,0,16,0,16,0,,,,,,,,,,,,,,,,,,,,,,,,,,,,,,,,,,,,,,,,,,,,,,,,,,,,,,,,,,,,,,,,,,,,,,0.005,,,,,,,,,,,,,,,,,,,,,,,,,,,,right,1,160,30,190,1,2974.626328,2974.626328,2974.626328,None,None,4,0,0.4855368,,,,,,,,,,,,,,,,,,,10,19,1,2024-11-11_12h23.02.864,uWM_experiment,2022.2.3,59.99044952
,,,,,,,,,,,,,,,,,,,,3,0,3,0,17,0,17,0,,,,,,,,,,,,,,,,,,,,,,,,,,,,,,,,,,,,,,,,,,,,,,,,,,,,,,,,,,,,,,,,,,,,,,0,,,,,,,,,,,,,,,,,,,,,,,,,,,,left,0,130,30,160,0,2980.776572,2980.776572,2980.776572,None,None,4,0,0.5833173,,,,,,,,,,,,,,,,,,,10,19,1,2024-11-11_12h23.02.864,uWM_experiment,2022.2.3,59.99044952
,,,,,,,,,,,,,,,,,,,,3,0,3,0,18,0,18,0,,,,,,,,,,,,,,,,,,,,,,,,,,,,,,,,,,,,,,,,,,,,,,,,,,,,,,,,,,,,,,,,,,,,,,0.005,,,,,,,,,,,,,,,,,,,,,,,,,,,,right,0,100,-30,70,1,2986.943458,2986.943458,2986.943458,None,None,4,0,0.5203708,,,,,,,,,,,,,,,,,,,10,19,1,2024-11-11_12h23.02.864,uWM_experiment,2022.2.3,59.99044952
,,,,,,,,,,,,,,,,,,,,3,0,3,0,19,0,19,0,,,,,,,,,,,,,,,,,,,,,,,,,,,,,,,,,,,,,,,,,,,,,,,,,,,,,,,,,,,,,,,,,,,,,,0,,,,,,,,,,,,,,,,,,,,,,,,,,,,left,1,10,-30,-20,0,2993.127048,2993.127048,2993.127048,None,None,4,0,0.4967796,,,,,,,,,,,,,,,,,,,10,19,1,2024-11-11_12h23.02.864,uWM_experiment,2022.2.3,59.99044952
,,,,,,,,,,,,,,,,,,,,3,0,3,0,20,0,20,0,,,,,,,,,,,,,,,,,,,,,,,,,,,,,,,,,,,,,,,,,,,,,,,,,,,,,,,,,,,,,,,,,,,,,,0.005,,,,,,,,,,,,,,,,,,,,,,,,,,,,right,0,70,-30,40,1,2999.377275,2999.377275,2999.377275,None,None,4,0,0.5266134,,,,,,,,,,,,,,,,,,,10,19,1,2024-11-11_12h23.02.864,uWM_experiment,2022.2.3,59.99044952
,,,,,,,,,,,,,,,,,,,,3,0,3,0,21,0,21,0,,,,,,,,,,,,,,,,,,,,,,,,,,,,,,,,,,,,,,,,,,,,,,,,,,,,,,,,,,,,,,,,,,,,,,0.005,,,,,,,,,,,,,,,,,,,,,,,,,,,,right,0,100,-30,70,1,3005.544161,3005.544161,3005.544161,None,None,4,0,0.4317221,,,,,,,,,,,,,,,,,,,10,19,1,2024-11-11_12h23.02.864,uWM_experiment,2022.2.3,59.99044952
,,,,,,,,,,,,,,,,,,,,3,0,3,0,22,0,22,0,,,,,,,,,,,,,,,,,,,,,,,,,,,,,,,,,,,,,,,,,,,,,,,,,,,,,,,,,,,,,,,,,,,,,,0.005,,,,,,,,,,,,,,,,,,,,,,,,,,,,left,1,130,-30,100,1,3011.594414,3011.594414,3011.594414,None,None,4,0,0.47734,,,,,,,,,,,,,,,,,,,10,19,1,2024-11-11_12h23.02.864,uWM_experiment,2022.2.3,59.99044952
,,,,,,,,,,,,,,,,,,,,3,0,3,0,23,0,23,0,,,,,,,,,,,,,,,,,,,,,,,,,,,,,,,,,,,,,,,,,,,,,,,,,,,,,,,,,,,,,,,,,,,,,,0.005,,,,,,,,,,,,,,,,,,,,,,,,,,,,right,1,160,30,190,1,3017.777963,3017.777963,3017.777963,None,None,4,0,1.2056881,,,,,,,,,,,,,,,,,,,10,19,1,2024-11-11_12h23.02.864,uWM_experiment,2022.2.3,59.99044952
,,,,,,,,,,,,,,,,,,,,3,0,3,0,,,,,0,0,0,0,,,,,,,,,,,,,,,,,,,,,,,,,,,,,,,,,,,,,,,,,,,,,,,,,,,,,,,,,,,,,,,,,,,,,,,,,,,,,,,,,,,,,,,,,,,,,,,,,,,,,,,,,,,,3019.011333,3019.011333,space,206.7391698,None,None,,,,,,,,,,,,,10,19,1,2024-11-11_12h23.02.864,uWM_experiment,2022.2.3,59.99044952
,,,,,,,,,,,,,,,,,,,,3,0,3,0,,,,,1,0,1,0,,,,,,,,,,,,,,,,,,,,,,,,,,,,,,,,,,,,,,,,,,,,,,,,,,,,,,,,,,,,,,,,,,,,,,,,,,,,,,,,,,,,,,,,,,,,,,,,,,,,,,,,,,,,,,,,,,,,,,,,,,,,,,10,19,1,2024-11-11_12h23.02.864,uWM_experiment,2022.2.3,59.99044952
,,,,,,,,,,,,,,,,,,,,3,0,3,0,,,,,2,0,2,0,,,,,,,,,,,,,,,,,,,,,,,,,,,,,,,,,,,,,,,,,,,,,,,,,,,,,,,,,,,,,,,,,,,,,,,,,,,,,,,,,,,,,,,,,,,,,,,,,,,,,,,,,,,,,,,,,,,,,,,,,,,,,,10,19,1,2024-11-11_12h23.02.864,uWM_experiment,2022.2.3,59.99044952
,,,,,,,,,,,,,,,,,,,,4,0,4,0,0,0,0,0,,,,,,,,,,,,,,,,,,,,,,,,,,,,,,,,,,,,,,,,,,,,,,,,,,,,,,,,,,,,,,,,,,,,,,0.005,,,,,,,,,,,,,,,,,,,,3225.769252,3226.469272,3226.769285,3227.469312,3227.76932,3228.469366,3228.469366,3228.786033,right,0,160,-30,130,1,3235.419618,3235.419618,3235.419618,None,None,1,1,4.8907597,,,,,,,None,,,,,,,,,,,,10,19,1,2024-11-11_12h23.02.864,uWM_experiment,2022.2.3,59.99044952
,,,,,,,,,,,,,,,,,,,,4,0,4,0,1,0,1,0,,,,,,,,,,,,,,,,,,,,,,,,,,,,,,,,,,,,,,,,,,,,,,,,,,,,,,,,,,,,,,,,,,,,,,0,,,,,,,,,,,,,,,,,,,,,,,,,,,,left,1,160,-30,130,0,3246.536692,3246.536692,3246.536692,None,None,4,0,1.3577543,,,,,,,,,,,,,,,,,,,10,19,1,2024-11-11_12h23.02.864,uWM_experiment,2022.2.3,59.99044952
,,,,,,,,,,,,,,,,,,,,4,0,4,0,2,0,2,0,,,,,,,,,,,,,,,,,,,,,,,,,,,,,,,,,,,,,,,,,,,,,,,,,,,,,,,,,,,,,,,,,,,,,,0.015,,,,,,,,,,,,,,,,,,,,,,,,,,,,right,0,70,-30,40,1,3253.670335,3253.670335,3253.670335,None,None,4,0,0.8719201,,,,,,,,,,,,,,,,,,,10,19,1,2024-11-11_12h23.02.864,uWM_experiment,2022.2.3,59.99044952
,,,,,,,,,,,,,,,,,,,,4,0,4,0,3,0,3,0,,,,,,,,,,,,,,,,,,,,,,,,,,,,,,,,,,,,,,,,,,,,,,,,,,,,,,,,,,,,,,,,,,,,,,0.005,,,,,,,,,,,,,,,,,,,,,,,,,,,,left,1,130,-30,100,1,3261.487301,3261.487301,3261.487301,None,None,4,0,1.4631437,,,,,,,,,,,,,,,,,,,10,19,1,2024-11-11_12h23.02.864,uWM_experiment,2022.2.3,59.99044952
,,,,,,,,,,,,,,,,,,,,4,0,4,0,4,0,4,0,,,,,,,,,,,,,,,,,,,,,,,,,,,,,,,,,,,,,,,,,,,,,,,,,,,,,,,,,,,,,,,,,,,,,,0.005,,,,,,,,,,,,,,,,,,,,,,,,,,,,right,1,130,30,160,1,3269.437586,3269.437586,3269.437586,None,None,4,0,2.3685718,,,,,,,,,,,,,,,,,,,10,19,1,2024-11-11_12h23.02.864,uWM_experiment,2022.2.3,59.99044952
,,,,,,,,,,,,,,,,,,,,4,0,4,0,5,0,5,0,,,,,,,,,,,,,,,,,,,,,,,,,,,,,,,,,,,,,,,,,,,,,,,,,,,,,,,,,,,,,,,,,,,,,,0.1,,,,,,,,,,,,,,,,,,,,,,,,,,,,right,1,40,30,70,2,3278.88796,3278.88796,3278.88796,None,None,4,0,0.6463285,,,,,,,,,,,,,,,,,,,10,19,1,2024-11-11_12h23.02.864,uWM_experiment,2022.2.3,59.99044952
,,,,,,,,,,,,,,,,,,,,4,0,4,0,6,0,6,0,,,,,,,,,,,,,,,,,,,,,,,,,,,,,,,,,,,,,,,,,,,,,,,,,,,,,,,,,,,,,,,,,,,,,,0,,,,,,,,,,,,,,,,,,,,,,,,,,,,left,1,40,-30,10,0,3289.505034,3289.505034,3289.505034,None,None,4,0,0.5730819,,,,,,,,,,,,,,,,,,,10,19,1,2024-11-11_12h23.02.864,uWM_experiment,2022.2.3,59.99044952
,,,,,,,,,,,,,,,,,,,,4,0,4,0,7,0,7,0,,,,,,,,,,,,,,,,,,,,,,,,,,,,,,,,,,,,,,,,,,,,,,,,,,,,,,,,,,,,,,,,,,,,,,0.005,,,,,,,,,,,,,,,,,,,,,,,,,,,,left,1,10,-30,-20,1,3296.888639,3296.888639,3296.888639,None,None,4,0,1.0134854,,,,,,,,,,,,,,,,,,,10,19,1,2024-11-11_12h23.02.864,uWM_experiment,2022.2.3,59.99044952
,,,,,,,,,,,,,,,,,,,,4,0,4,0,8,0,8,0,,,,,,,,,,,,,,,,,,,,,,,,,,,,,,,,,,,,,,,,,,,,,,,,,,,,,,,,,,,,,,,,,,,,,,0,,,,,,,,,,,,,,,,,,,,,,,,,,,,right,0,10,-30,-20,0,3305.089075,3305.089075,3305.089075,None,None,4,0,0.5569733,,,,,,,,,,,,,,,,,,,10,19,1,2024-11-11_12h23.02.864,uWM_experiment,2022.2.3,59.99044952
,,,,,,,,,,,,,,,,,,,,4,0,4,0,9,0,9,0,,,,,,,,,,,,,,,,,,,,,,,,,,,,,,,,,,,,,,,,,,,,,,,,,,,,,,,,,,,,,,,,,,,,,,0.005,,,,,,,,,,,,,,,,,,,,,,,,,,,,left,0,130,30,160,1,3313.50595,3313.50595,3313.50595,None,None,4,0,0.5240822,,,,,,,,,,,,,,,,,,,10,19,1,2024-11-11_12h23.02.864,uWM_experiment,2022.2.3,59.99044952
,,,,,,,,,,,,,,,,,,,,4,0,4,0,10,0,10,0,,,,,,,,,,,,,,,,,,,,,,,,,,,,,,,,,,,,,,,,,,,,,,,,,,,,,,,,,,,,,,,,,,,,,,0.005,,,,,,,,,,,,,,,,,,,,,,,,,,,,left,0,70,30,100,1,3323.072985,3323.072985,3323.072985,None,None,4,0,0.7729731,,,,,,,,,,,,,,,,,,,10,19,1,2024-11-11_12h23.02.864,uWM_experiment,2022.2.3,59.99044952
,,,,,,,,,,,,,,,,,,,,4,0,4,0,11,0,11,0,,,,,,,,,,,,,,,,,,,,,,,,,,,,,,,,,,,,,,,,,,,,,,,,,,,,,,,,,,,,,,,,,,,,,,0.005,,,,,,,,,,,,,,,,,,,,,,,,,,,,right,0,70,-30,40,1,3330.4566,3330.4566,3330.4566,None,None,4,0,0.4293155,,,,,,,,,,,,,,,,,,,10,19,1,2024-11-11_12h23.02.864,uWM_experiment,2022.2.3,59.99044952
,,,,,,,,,,,,,,,,,,,,4,0,4,0,12,0,12,0,,,,,,,,,,,,,,,,,,,,,,,,,,,,,,,,,,,,,,,,,,,,,,,,,,,,,,,,,,,,,,,,,,,,,,0.005,,,,,,,,,,,,,,,,,,,,,,,,,,,,left,1,40,-30,10,1,3337.47352,3337.47352,3337.47352,None,None,4,0,0.5803711,,,,,,,,,,,,,,,,,,,10,19,1,2024-11-11_12h23.02.864,uWM_experiment,2022.2.3,59.99044952
,,,,,,,,,,,,,,,,,,,,4,0,4,0,13,0,13,0,,,,,,,,,,,,,,,,,,,,,,,,,,,,,,,,,,,,,,,,,,,,,,,,,,,,,,,,,,,,,,,,,,,,,,0.005,,,,,,,,,,,,,,,,,,,,,,,,,,,,left,0,70,30,100,1,3344.173792,3344.173792,3344.173792,None,None,4,0,0.4400953,,,,,,,,,,,,,,,,,,,10,19,1,2024-11-11_12h23.02.864,uWM_experiment,2022.2.3,59.99044952
,,,,,,,,,,,,,,,,,,,,4,0,4,0,14,0,14,0,,,,,,,,,,,,,,,,,,,,,,,,,,,,,,,,,,,,,,,,,,,,,,,,,,,,,,,,,,,,,,,,,,,,,,0.005,,,,,,,,,,,,,,,,,,,,,,,,,,,,left,0,40,30,70,1,3351.040699,3351.040699,3351.040699,None,None,4,0,0.4771145,,,,,,,,,,,,,,,,,,,10,19,1,2024-11-11_12h23.02.864,uWM_experiment,2022.2.3,59.99044952
,,,,,,,,,,,,,,,,,,,,4,0,4,0,15,0,15,0,,,,,,,,,,,,,,,,,,,,,,,,,,,,,,,,,,,,,,,,,,,,,,,,,,,,,,,,,,,,,,,,,,,,,,0.005,,,,,,,,,,,,,,,,,,,,,,,,,,,,right,0,160,-30,130,1,3358.657662,3358.657662,3358.657662,None,None,4,0,0.5641508,,,,,,,,,,,,,,,,,,,10,19,1,2024-11-11_12h23.02.864,uWM_experiment,2022.2.3,59.99044952
,,,,,,,,,,,,,,,,,,,,4,0,4,0,16,0,16,0,,,,,,,,,,,,,,,,,,,,,,,,,,,,,,,,,,,,,,,,,,,,,,,,,,,,,,,,,,,,,,,,,,,,,,0.005,,,,,,,,,,,,,,,,,,,,,,,,,,,,right,1,130,30,160,1,3366.491294,3366.491294,3366.491294,None,None,4,0,0.5784797,,,,,,,,,,,,,,,,,,,10,19,1,2024-11-11_12h23.02.864,uWM_experiment,2022.2.3,59.99044952
,,,,,,,,,,,,,,,,,,,,4,0,4,0,17,0,17,0,,,,,,,,,,,,,,,,,,,,,,,,,,,,,,,,,,,,,,,,,,,,,,,,,,,,,,,,,,,,,,,,,,,,,,0,,,,,,,,,,,,,,,,,,,,,,,,,,,,left,1,10,-30,-20,0,3373.458235,3373.458235,3373.458235,None,None,4,0,1.5475322,,,,,,,,,,,,,,,,,,,10,19,1,2024-11-11_12h23.02.864,uWM_experiment,2022.2.3,59.99044952
,,,,,,,,,,,,,,,,,,,,4,0,4,0,18,0,18,0,,,,,,,,,,,,,,,,,,,,,,,,,,,,,,,,,,,,,,,,,,,,,,,,,,,,,,,,,,,,,,,,,,,,,,0.005,,,,,,,,,,,,,,,,,,,,,,,,,,,,left,1,160,-30,130,1,3380.725181,3380.725181,3380.725181,None,None,4,0,2.5763654,,,,,,,,,,,,,,,,,,,10,19,1,2024-11-11_12h23.02.864,uWM_experiment,2022.2.3,59.99044952
,,,,,,,,,,,,,,,,,,,,4,0,4,0,19,0,19,0,,,,,,,,,,,,,,,,,,,,,,,,,,,,,,,,,,,,,,,,,,,,,,,,,,,,,,,,,,,,,,,,,,,,,,0.005,,,,,,,,,,,,,,,,,,,,,,,,,,,,right,0,70,-30,40,1,3389.458845,3389.458845,3389.458845,None,None,4,0,0.5228242,,,,,,,,,,,,,,,,,,,10,19,1,2024-11-11_12h23.02.864,uWM_experiment,2022.2.3,59.99044952
,,,,,,,,,,,,,,,,,,,,4,0,4,0,20,0,20,0,,,,,,,,,,,,,,,,,,,,,,,,,,,,,,,,,,,,,,,,,,,,,,,,,,,,,,,,,,,,,,,,,,,,,,0,,,,,,,,,,,,,,,,,,,,,,,,,,,,left,1,160,-30,130,0,3396.17575,3396.17575,3396.17575,None,None,4,0,0.4618498,,,,,,,,,,,,,,,,,,,10,19,1,2024-11-11_12h23.02.864,uWM_experiment,2022.2.3,59.99044952
,,,,,,,,,,,,,,,,,,,,4,0,4,0,21,0,21,0,,,,,,,,,,,,,,,,,,,,,,,,,,,,,,,,,,,,,,,,,,,,,,,,,,,,,,,,,,,,,,,,,,,,,,0.005,,,,,,,,,,,,,,,,,,,,,,,,,,,,right,1,40,30,70,1,3402.576008,3402.576008,3402.576008,None,None,4,0,0.6213985,,,,,,,,,,,,,,,,,,,10,19,1,2024-11-11_12h23.02.864,uWM_experiment,2022.2.3,59.99044952
,,,,,,,,,,,,,,,,,,,,4,0,4,0,22,0,22,0,,,,,,,,,,,,,,,,,,,,,,,,,,,,,,,,,,,,,,,,,,,,,,,,,,,,,,,,,,,,,,,,,,,,,,0,,,,,,,,,,,,,,,,,,,,,,,,,,,,right,0,100,-30,70,0,3410.226299,3410.226299,3410.226299,None,None,4,0,0.5151599,,,,,,,,,,,,,,,,,,,10,19,1,2024-11-11_12h23.02.864,uWM_experiment,2022.2.3,59.99044952
,,,,,,,,,,,,,,,,,,,,4,0,4,0,23,0,23,0,,,,,,,,,,,,,,,,,,,,,,,,,,,,,,,,,,,,,,,,,,,,,,,,,,,,,,,,,,,,,,,,,,,,,,0.005,,,,,,,,,,,,,,,,,,,,,,,,,,,,left,1,100,-30,70,1,3418.493288,3418.493288,3418.493288,None,None,4,0,0.8640906,,,,,,,,,,,,,,,,,,,10,19,1,2024-11-11_12h23.02.864,uWM_experiment,2022.2.3,59.99044952
,,,,,,,,,,,,,,,,,,,,4,0,4,0,,,,,0,0,0,0,,,,,,,,,,,,,,,,,,,,,,,,,,,,,,,,,,,,,,,,,,,,,,,,,,,,,,,,,,,,,,,,,,,,,,,,,,,,,,,,,,,,,,,,,,,,,,,,,,,,,,,,,,,,3419.376605,3419.376605,space,32.8366917,None,None,,,,,,,,,,,,,10,19,1,2024-11-11_12h23.02.864,uWM_experiment,2022.2.3,59.99044952
,,,,,,,,,,,,,,,,,,,,4,0,4,0,,,,,1,0,1,0,,,,,,,,,,,,,,,,,,,,,,,,,,,,,,,,,,,,,,,,,,,,,,,,,,,,,,,,,,,,,,,,,,,,,,,,,,,,,,,,,,,,,,,,,,,,,,,,,,,,,,,,,,,,,,,,,,,,,,,,,,,,,,10,19,1,2024-11-11_12h23.02.864,uWM_experiment,2022.2.3,59.99044952
,,,,,,,,,,,,,,,,,,,,4,0,4,0,,,,,2,0,2,0,,,,,,,,,,,,,,,,,,,,,,,,,,,,,,,,,,,,,,,,,,,,,,,,,,,,,,,,,,,,,,,,,,,,,,,,,,,,,,,,,,,,,,,,,,,,,,,,,,,,,,,,,,,,,,,,,,,,,,,,,,,,,,10,19,1,2024-11-11_12h23.02.864,uWM_experiment,2022.2.3,59.99044952
,,,,,,,,,,,,,,,,,,,,5,0,5,0,0,0,0,0,,,,,,,,,,,,,,,,,,,,,,,,,,,,,,,,,,,,,,,,,,,,,,,,,,,,,,,,,,,,,,,,,,,,,,0,,,,,,,,,,,,,,,,,,,,3452.244543,3452.944578,3453.244588,3453.944613,3454.244618,3454.944651,3454.944651,3455.26133,right,1,70,30,100,0,3462.728292,3462.728292,3462.728292,None,None,4,0,5.5088783,,,,,,,None,,,,,,,,,,,,10,19,1,2024-11-11_12h23.02.864,uWM_experiment,2022.2.3,59.99044952
,,,,,,,,,,,,,,,,,,,,5,0,5,0,1,0,1,0,,,,,,,,,,,,,,,,,,,,,,,,,,,,,,,,,,,,,,,,,,,,,,,,,,,,,,,,,,,,,,,,,,,,,,0,,,,,,,,,,,,,,,,,,,,,,,,,,,,left,1,10,-30,-20,0,3475.878797,3475.878797,3475.878797,None,None,4,0,0.6783128,,,,,,,,,,,,,,,,,,,10,19,1,2024-11-11_12h23.02.864,uWM_experiment,2022.2.3,59.99044952
,,,,,,,,,,,,,,,,,,,,5,0,5,0,2,0,2,0,,,,,,,,,,,,,,,,,,,,,,,,,,,,,,,,,,,,,,,,,,,,,,,,,,,,,,,,,,,,,,,,,,,,,,0.005,,,,,,,,,,,,,,,,,,,,,,,,,,,,right,0,40,-30,10,1,3482.612388,3482.612388,3482.612388,None,None,4,0,0.6086058,,,,,,,,,,,,,,,,,,,10,19,1,2024-11-11_12h23.02.864,uWM_experiment,2022.2.3,59.99044952
,,,,,,,,,,,,,,,,,,,,5,0,5,0,3,0,3,0,,,,,,,,,,,,,,,,,,,,,,,,,,,,,,,,,,,,,,,,,,,,,,,,,,,,,,,,,,,,,,,,,,,,,,0.005,,,,,,,,,,,,,,,,,,,,,,,,,,,,right,0,100,-30,70,1,3489.262651,3489.262651,3489.262651,None,None,4,0,0.48626,,,,,,,,,,,,,,,,,,,10,19,1,2024-11-11_12h23.02.864,uWM_experiment,2022.2.3,59.99044952
,,,,,,,,,,,,,,,,,,,,5,0,5,0,4,0,4,0,,,,,,,,,,,,,,,,,,,,,,,,,,,,,,,,,,,,,,,,,,,,,,,,,,,,,,,,,,,,,,,,,,,,,,0.005,,,,,,,,,,,,,,,,,,,,,,,,,,,,right,1,100,30,130,1,3496.49626,3496.49626,3496.49626,None,None,4,0,0.4446575,,,,,,,,,,,,,,,,,,,10,19,1,2024-11-11_12h23.02.864,uWM_experiment,2022.2.3,59.99044952
,,,,,,,,,,,,,,,,,,,,5,0,5,0,5,0,5,0,,,,,,,,,,,,,,,,,,,,,,,,,,,,,,,,,,,,,,,,,,,,,,,,,,,,,,,,,,,,,,,,,,,,,,0.005,,,,,,,,,,,,,,,,,,,,,,,,,,,,left,0,70,30,100,1,3503.213164,3503.213164,3503.213164,None,None,4,0,0.4797968,,,,,,,,,,,,,,,,,,,10,19,1,2024-11-11_12h23.02.864,uWM_experiment,2022.2.3,59.99044952
,,,,,,,,,,,,,,,,,,,,5,0,5,0,6,0,6,0,,,,,,,,,,,,,,,,,,,,,,,,,,,,,,,,,,,,,,,,,,,,,,,,,,,,,,,,,,,,,,,,,,,,,,0.005,,,,,,,,,,,,,,,,,,,,,,,,,,,,right,0,10,-30,-20,1,3510.313464,3510.313464,3510.313464,None,None,4,0,0.5795055,,,,,,,,,,,,,,,,,,,10,19,1,2024-11-11_12h23.02.864,uWM_experiment,2022.2.3,59.99044952
,,,,,,,,,,,,,,,,,,,,5,0,5,0,7,0,7,0,,,,,,,,,,,,,,,,,,,,,,,,,,,,,,,,,,,,,,,,,,,,,,,,,,,,,,,,,,,,,,,,,,,,,,0.005,,,,,,,,,,,,,,,,,,,,,,,,,,,,right,1,10,30,40,1,3516.730371,3516.730371,3516.730371,None,None,4,0,0.6264224,,,,,,,,,,,,,,,,,,,10,19,1,2024-11-11_12h23.02.864,uWM_experiment,2022.2.3,59.99044952
,,,,,,,,,,,,,,,,,,,,5,0,5,0,8,0,8,0,,,,,,,,,,,,,,,,,,,,,,,,,,,,,,,,,,,,,,,,,,,,,,,,,,,,,,,,,,,,,,,,,,,,,,0.005,,,,,,,,,,,,,,,,,,,,,,,,,,,,left,0,130,30,160,1,3524.030642,3524.030642,3524.030642,None,None,4,0,0.4621381,,,,,,,,,,,,,,,,,,,10,19,1,2024-11-11_12h23.02.864,uWM_experiment,2022.2.3,59.99044952
,,,,,,,,,,,,,,,,,,,,5,0,5,0,9,0,9,0,,,,,,,,,,,,,,,,,,,,,,,,,,,,,,,,,,,,,,,,,,,,,,,,,,,,,,,,,,,,,,,,,,,,,,0.005,,,,,,,,,,,,,,,,,,,,,,,,,,,,left,1,160,-30,130,1,3532.647635,3532.647635,3532.647635,None,None,4,0,0.5411853,,,,,,,,,,,,,,,,,,,10,19,1,2024-11-11_12h23.02.864,uWM_experiment,2022.2.3,59.99044952
,,,,,,,,,,,,,,,,,,,,5,0,5,0,10,0,10,0,,,,,,,,,,,,,,,,,,,,,,,,,,,,,,,,,,,,,,,,,,,,,,,,,,,,,,,,,,,,,,,,,,,,,,0,,,,,,,,,,,,,,,,,,,,,,,,,,,,right,1,130,30,160,0,3540.547951,3540.547951,3540.547951,None,None,4,0,0.4407217,,,,,,,,,,,,,,,,,,,10,19,1,2024-11-11_12h23.02.864,uWM_experiment,2022.2.3,59.99044952
,,,,,,,,,,,,,,,,,,,,5,0,5,0,11,0,11,0,,,,,,,,,,,,,,,,,,,,,,,,,,,,,,,,,,,,,,,,,,,,,,,,,,,,,,,,,,,,,,,,,,,,,,0.005,,,,,,,,,,,,,,,,,,,,,,,,,,,,right,0,100,-30,70,1,3546.71484,3546.71484,3546.71484,None,None,4,0,0.4817711,,,,,,,,,,,,,,,,,,,10,19,1,2024-11-11_12h23.02.864,uWM_experiment,2022.2.3,59.99044952
,,,,,,,,,,,,,,,,,,,,5,0,5,0,12,0,12,0,,,,,,,,,,,,,,,,,,,,,,,,,,,,,,,,,,,,,,,,,,,,,,,,,,,,,,,,,,,,,,,,,,,,,,0.005,,,,,,,,,,,,,,,,,,,,,,,,,,,,right,0,130,-30,100,1,3553.148417,3553.148417,3553.148417,None,None,4,0,0.5441689,,,,,,,,,,,,,,,,,,,10,19,1,2024-11-11_12h23.02.864,uWM_experiment,2022.2.3,59.99044952
,,,,,,,,,,,,,,,,,,,,5,0,5,0,13,0,13,0,,,,,,,,,,,,,,,,,,,,,,,,,,,,,,,,,,,,,,,,,,,,,,,,,,,,,,,,,,,,,,,,,,,,,,0.005,,,,,,,,,,,,,,,,,,,,,,,,,,,,left,0,160,30,190,1,3567.165624,3567.165624,3567.165624,None,None,4,0,0.8868778,,,,,,,,,,,,,,,,,,,10,19,1,2024-11-11_12h23.02.864,uWM_experiment,2022.2.3,59.99044952
,,,,,,,,,,,,,,,,,,,,5,0,5,0,14,0,14,0,,,,,,,,,,,,,,,,,,,,,,,,,,,,,,,,,,,,,,,,,,,,,,,,,,,,,,,,,,,,,,,,,,,,,,0,,,,,,,,,,,,,,,,,,,,,,,,,,,,left,1,160,-30,130,0,3574.015894,3574.015894,3574.015894,None,None,4,0,0.4525129,,,,,,,,,,,,,,,,,,,10,19,1,2024-11-11_12h23.02.864,uWM_experiment,2022.2.3,59.99044952
,,,,,,,,,,,,,,,,,,,,5,0,5,0,15,0,15,0,,,,,,,,,,,,,,,,,,,,,,,,,,,,,,,,,,,,,,,,,,,,,,,,,,,,,,,,,,,,,,,,,,,,,,0.005,,,,,,,,,,,,,,,,,,,,,,,,,,,,right,1,70,30,100,1,3582.416221,3582.416221,3582.416221,None,None,4,0,0.5403052,,,,,,,,,,,,,,,,,,,10,19,1,2024-11-11_12h23.02.864,uWM_experiment,2022.2.3,59.99044952
,,,,,,,,,,,,,,,,,,,,5,0,5,0,16,0,16,0,,,,,,,,,,,,,,,,,,,,,,,,,,,,,,,,,,,,,,,,,,,,,,,,,,,,,,,,,,,,,,,,,,,,,,0.005,,,,,,,,,,,,,,,,,,,,,,,,,,,,right,0,10,-30,-20,1,3589.866486,3589.866486,3589.866486,None,None,4,0,1.4499722,,,,,,,,,,,,,,,,,,,10,19,1,2024-11-11_12h23.02.864,uWM_experiment,2022.2.3,59.99044952
,,,,,,,,,,,,,,,,,,,,5,0,5,0,17,0,17,0,,,,,,,,,,,,,,,,,,,,,,,,,,,,,,,,,,,,,,,,,,,,,,,,,,,,,,,,,,,,,,,,,,,,,,0.005,,,,,,,,,,,,,,,,,,,,,,,,,,,,left,1,130,-30,100,1,3598.216822,3598.216822,3598.216822,None,None,4,0,0.4274814,,,,,,,,,,,,,,,,,,,10,19,1,2024-11-11_12h23.02.864,uWM_experiment,2022.2.3,59.99044952
,,,,,,,,,,,,,,,,,,,,5,0,5,0,18,0,18,0,,,,,,,,,,,,,,,,,,,,,,,,,,,,,,,,,,,,,,,,,,,,,,,,,,,,,,,,,,,,,,,,,,,,,,0.005,,,,,,,,,,,,,,,,,,,,,,,,,,,,right,1,100,30,130,1,3604.733726,3604.733726,3604.733726,None,None,4,0,0.4386324,,,,,,,,,,,,,,,,,,,10,19,1,2024-11-11_12h23.02.864,uWM_experiment,2022.2.3,59.99044952
,,,,,,,,,,,,,,,,,,,,5,0,5,0,19,0,19,0,,,,,,,,,,,,,,,,,,,,,,,,,,,,,,,,,,,,,,,,,,,,,,,,,,,,,,,,,,,,,,,,,,,,,,0.005,,,,,,,,,,,,,,,,,,,,,,,,,,,,left,0,70,30,100,1,3611.484,3611.484,3611.484,None,None,4,0,0.4083556,,,,,,,,,,,,,,,,,,,10,19,1,2024-11-11_12h23.02.864,uWM_experiment,2022.2.3,59.99044952
,,,,,,,,,,,,,,,,,,,,5,0,5,0,20,0,20,0,,,,,,,,,,,,,,,,,,,,,,,,,,,,,,,,,,,,,,,,,,,,,,,,,,,,,,,,,,,,,,,,,,,,,,0.005,,,,,,,,,,,,,,,,,,,,,,,,,,,,right,1,40,30,70,1,3617.53422,3617.53422,3617.53422,None,None,4,0,0.5019296,,,,,,,,,,,,,,,,,,,10,19,1,2024-11-11_12h23.02.864,uWM_experiment,2022.2.3,59.99044952
,,,,,,,,,,,,,,,,,,,,5,0,5,0,21,0,21,0,,,,,,,,,,,,,,,,,,,,,,,,,,,,,,,,,,,,,,,,,,,,,,,,,,,,,,,,,,,,,,,,,,,,,,0.005,,,,,,,,,,,,,,,,,,,,,,,,,,,,left,1,160,-30,130,1,3623.817767,3623.817767,3623.817767,None,None,4,0,0.4584539,,,,,,,,,,,,,,,,,,,10,19,1,2024-11-11_12h23.02.864,uWM_experiment,2022.2.3,59.99044952
,,,,,,,,,,,,,,,,,,,,5,0,5,0,22,0,22,0,,,,,,,,,,,,,,,,,,,,,,,,,,,,,,,,,,,,,,,,,,,,,,,,,,,,,,,,,,,,,,,,,,,,,,0.005,,,,,,,,,,,,,,,,,,,,,,,,,,,,right,0,70,-30,40,1,3631.068069,3631.068069,3631.068069,None,None,4,0,0.7199957,,,,,,,,,,,,,,,,,,,10,19,1,2024-11-11_12h23.02.864,uWM_experiment,2022.2.3,59.99044952
,,,,,,,,,,,,,,,,,,,,5,0,5,0,23,0,23,0,,,,,,,,,,,,,,,,,,,,,,,,,,,,,,,,,,,,,,,,,,,,,,,,,,,,,,,,,,,,,,,,,,,,,,0,,,,,,,,,,,,,,,,,,,,,,,,,,,,right,0,100,-30,70,0,3637.468306,3637.468306,3637.468306,None,None,4,0,0.5677275,,,,,,,,,,,,,,,,,,,10,19,1,2024-11-11_12h23.02.864,uWM_experiment,2022.2.3,59.99044952
,,,,,,,,,,,,,,,,,,,,5,0,5,0,,,,,0,0,0,0,,,,,,,,,,,,,,,,,,,,,,,,,,,,,,,,,,,,,,,,,,,,,,,,,,,,,,,,,,,,,,,,,,,,,,,,,,,,,,,,,,,,,,,,,,,,,,,,,,,,,,,,,,,,3638.068328,3638.068328,space,41.5915281,space,None,,3679.686591,3679.686591,10.5813197,,,,,,,,,10,19,1,2024-11-11_12h23.02.864,uWM_experiment,2022.2.3,59.99044952
,,,,,,,,,,,,,,,,,,,,5,0,5,0,,,,,1,0,1,0,,,,,,,,,,,,,,,,,,,,,,,,,,,,,,,,,,,,,,,,,,,,,,,,,,,,,,,,,,,,,,,,,,,,,,,,,,,,,,,,,,,,,,,,,,,,,,,,,,,,,,,,,,,,,,,,,,,,,,,,,,,,,,10,19,1,2024-11-11_12h23.02.864,uWM_experiment,2022.2.3,59.99044952
,,,,,,,,,,,,,,,,,,,,5,0,5,0,,,,,2,0,2,0,,,,,,,,,,,,,,,,,,,,,,,,,,,,,,,,,,,,,,,,,,,,,,,,,,,,,,,,,,,,,,,,,,,,,,,,,,,,,,,,,,,,,,,,,,,,,,,,,,,,,,,,,,,,,,,,,,,,,,,,,,,,,,10,19,1,2024-11-11_12h23.02.864,uWM_experiment,2022.2.3,59.99044952
,,,,,,,,,,,,,,,,,,,,6,0,6,0,0,0,0,0,,,,,,,,,,,,,,,,,,,,,,,,,,,,,,,,,,,,,,,,,,,,,,,,,,,,,,,,,,,,,,,,,,,,,,0,,,,,,,,,,,,,,,,,,,,3690.286985,3690.987033,3691.287021,3691.987108,3692.287084,3692.987085,3692.987085,3693.303807,right,1,70,30,100,0,3698.937315,3698.937315,3698.937315,None,None,1,1,5.4343355,,,,,,,None,,,,,,,,,,,,10,19,1,2024-11-11_12h23.02.864,uWM_experiment,2022.2.3,59.99044952
,,,,,,,,,,,,,,,,,,,,6,0,6,0,1,0,1,0,,,,,,,,,,,,,,,,,,,,,,,,,,,,,,,,,,,,,,,,,,,,,,,,,,,,,,,,,,,,,,,,,,,,,,0.005,,,,,,,,,,,,,,,,,,,,,,,,,,,,right,1,40,30,70,1,3711.287785,3711.287785,3711.287785,None,None,4,0,2.2358594,,,,,,,,,,,,,,,,,,,10,19,1,2024-11-11_12h23.02.864,uWM_experiment,2022.2.3,59.99044952
,,,,,,,,,,,,,,,,,,,,6,0,6,0,2,0,2,0,,,,,,,,,,,,,,,,,,,,,,,,,,,,,,,,,,,,,,,,,,,,,,,,,,,,,,,,,,,,,,,,,,,,,,0.005,,,,,,,,,,,,,,,,,,,,,,,,,,,,left,1,160,-30,130,1,3721.338197,3721.338197,3721.338197,None,None,4,0,1.2173631,,,,,,,,,,,,,,,,,,,10,19,1,2024-11-11_12h23.02.864,uWM_experiment,2022.2.3,59.99044952
,,,,,,,,,,,,,,,,,,,,6,0,6,0,3,0,3,0,,,,,,,,,,,,,,,,,,,,,,,,,,,,,,,,,,,,,,,,,,,,,,,,,,,,,,,,,,,,,,,,,,,,,,0.005,,,,,,,,,,,,,,,,,,,,,,,,,,,,right,1,70,30,100,1,3729.571843,3729.571843,3729.571843,None,None,4,0,0.4958294,,,,,,,,,,,,,,,,,,,10,19,1,2024-11-11_12h23.02.864,uWM_experiment,2022.2.3,59.99044952
,,,,,,,,,,,,,,,,,,,,6,0,6,0,4,0,4,0,,,,,,,,,,,,,,,,,,,,,,,,,,,,,,,,,,,,,,,,,,,,,,,,,,,,,,,,,,,,,,,,,,,,,,0.005,,,,,,,,,,,,,,,,,,,,,,,,,,,,left,1,130,-30,100,1,3737.822161,3737.822161,3737.822161,None,None,4,0,0.5414043,,,,,,,,,,,,,,,,,,,10,19,1,2024-11-11_12h23.02.864,uWM_experiment,2022.2.3,59.99044952
,,,,,,,,,,,,,,,,,,,,6,0,6,0,5,0,5,0,,,,,,,,,,,,,,,,,,,,,,,,,,,,,,,,,,,,,,,,,,,,,,,,,,,,,,,,,,,,,,,,,,,,,,0.005,,,,,,,,,,,,,,,,,,,,,,,,,,,,right,1,40,30,70,1,3744.589075,3744.589075,3744.589075,None,None,4,0,0.5343513,,,,,,,,,,,,,,,,,,,10,19,1,2024-11-11_12h23.02.864,uWM_experiment,2022.2.3,59.99044952
,,,,,,,,,,,,,,,,,,,,6,0,6,0,6,0,6,0,,,,,,,,,,,,,,,,,,,,,,,,,,,,,,,,,,,,,,,,,,,,,,,,,,,,,,,,,,,,,,,,,,,,,,0.005,,,,,,,,,,,,,,,,,,,,,,,,,,,,right,1,40,30,70,1,3752.389351,3752.389351,3752.389351,None,None,4,0,0.4539896,,,,,,,,,,,,,,,,,,,10,19,1,2024-11-11_12h23.02.864,uWM_experiment,2022.2.3,59.99044952
,,,,,,,,,,,,,,,,,,,,6,0,6,0,7,0,7,0,,,,,,,,,,,,,,,,,,,,,,,,,,,,,,,,,,,,,,,,,,,,,,,,,,,,,,,,,,,,,,,,,,,,,,0.005,,,,,,,,,,,,,,,,,,,,,,,,,,,,left,1,10,-30,-20,1,3759.589633,3759.589633,3759.589633,None,None,4,0,0.3979014,,,,,,,,,,,,,,,,,,,10,19,1,2024-11-11_12h23.02.864,uWM_experiment,2022.2.3,59.99044952
,,,,,,,,,,,,,,,,,,,,6,0,6,0,8,0,8,0,,,,,,,,,,,,,,,,,,,,,,,,,,,,,,,,,,,,,,,,,,,,,,,,,,,,,,,,,,,,,,,,,,,,,,0.005,,,,,,,,,,,,,,,,,,,,,,,,,,,,left,0,100,30,130,1,3765.923226,3765.923226,3765.923226,None,None,4,0,0.4321459,,,,,,,,,,,,,,,,,,,10,19,1,2024-11-11_12h23.02.864,uWM_experiment,2022.2.3,59.99044952
,,,,,,,,,,,,,,,,,,,,6,0,6,0,9,0,9,0,,,,,,,,,,,,,,,,,,,,,,,,,,,,,,,,,,,,,,,,,,,,,,,,,,,,,,,,,,,,,,,,,,,,,,0.005,,,,,,,,,,,,,,,,,,,,,,,,,,,,right,1,160,30,190,1,3772.173445,3772.173445,3772.173445,None,None,4,0,0.4858554,,,,,,,,,,,,,,,,,,,10,19,1,2024-11-11_12h23.02.864,uWM_experiment,2022.2.3,59.99044952
,,,,,,,,,,,,,,,,,,,,6,0,6,0,10,0,10,0,,,,,,,,,,,,,,,,,,,,,,,,,,,,,,,,,,,,,,,,,,,,,,,,,,,,,,,,,,,,,,,,,,,,,,0.005,,,,,,,,,,,,,,,,,,,,,,,,,,,,right,0,100,-30,70,1,3778.673702,3778.673702,3778.673702,None,None,4,0,1.0816316,,,,,,,,,,,,,,,,,,,10,19,1,2024-11-11_12h23.02.864,uWM_experiment,2022.2.3,59.99044952
,,,,,,,,,,,,,,,,,,,,6,0,6,0,11,0,11,0,,,,,,,,,,,,,,,,,,,,,,,,,,,,,,,,,,,,,,,,,,,,,,,,,,,,,,,,,,,,,,,,,,,,,,0.005,,,,,,,,,,,,,,,,,,,,,,,,,,,,left,0,70,30,100,1,3786.190668,3786.190668,3786.190668,None,None,4,0,0.9325667,,,,,,,,,,,,,,,,,,,10,19,1,2024-11-11_12h23.02.864,uWM_experiment,2022.2.3,59.99044952
,,,,,,,,,,,,,,,,,,,,6,0,6,0,12,0,12,0,,,,,,,,,,,,,,,,,,,,,,,,,,,,,,,,,,,,,,,,,,,,,,,,,,,,,,,,,,,,,,,,,,,,,,0.005,,,,,,,,,,,,,,,,,,,,,,,,,,,,left,1,160,-30,130,1,3793.407613,3793.407613,3793.407613,None,None,4,0,0.5236386,,,,,,,,,,,,,,,,,,,10,19,1,2024-11-11_12h23.02.864,uWM_experiment,2022.2.3,59.99044952
,,,,,,,,,,,,,,,,,,,,6,0,6,0,13,0,13,0,,,,,,,,,,,,,,,,,,,,,,,,,,,,,,,,,,,,,,,,,,,,,,,,,,,,,,,,,,,,,,,,,,,,,,0,,,,,,,,,,,,,,,,,,,,,,,,,,,,right,0,40,-30,10,0,3800.357879,3800.357879,3800.357879,None,None,4,0,0.5892634,,,,,,,,,,,,,,,,,,,10,19,1,2024-11-11_12h23.02.864,uWM_experiment,2022.2.3,59.99044952
,,,,,,,,,,,,,,,,,,,,6,0,6,0,14,0,14,0,,,,,,,,,,,,,,,,,,,,,,,,,,,,,,,,,,,,,,,,,,,,,,,,,,,,,,,,,,,,,,,,,,,,,,0.005,,,,,,,,,,,,,,,,,,,,,,,,,,,,left,0,10,30,40,1,3807.791491,3807.791491,3807.791491,None,None,4,0,0.4275683,,,,,,,,,,,,,,,,,,,10,19,1,2024-11-11_12h23.02.864,uWM_experiment,2022.2.3,59.99044952
,,,,,,,,,,,,,,,,,,,,6,0,6,0,15,0,15,0,,,,,,,,,,,,,,,,,,,,,,,,,,,,,,,,,,,,,,,,,,,,,,,,,,,,,,,,,,,,,,,,,,,,,,0.005,,,,,,,,,,,,,,,,,,,,,,,,,,,,right,0,100,-30,70,1,3817.25852,3817.25852,3817.25852,None,None,4,0,2.4725259,,,,,,,,,,,,,,,,,,,10,19,1,2024-11-11_12h23.02.864,uWM_experiment,2022.2.3,59.99044952
,,,,,,,,,,,,,,,,,,,,6,0,6,0,16,0,16,0,,,,,,,,,,,,,,,,,,,,,,,,,,,,,,,,,,,,,,,,,,,,,,,,,,,,,,,,,,,,,,,,,,,,,,0.005,,,,,,,,,,,,,,,,,,,,,,,,,,,,right,1,100,30,130,1,3826.575544,3826.575544,3826.575544,None,None,4,0,1.7235419,,,,,,,,,,,,,,,,,,,10,19,1,2024-11-11_12h23.02.864,uWM_experiment,2022.2.3,59.99044952
,,,,,,,,,,,,,,,,,,,,6,0,6,0,17,0,17,0,,,,,,,,,,,,,,,,,,,,,,,,,,,,,,,,,,,,,,,,,,,,,,,,,,,,,,,,,,,,,,,,,,,,,,0.005,,,,,,,,,,,,,,,,,,,,,,,,,,,,right,0,130,-30,100,1,3834.559164,3834.559164,3834.559164,None,None,1,1,2.0517239,,,,,,,,,,,,,,,,,,,10,19,1,2024-11-11_12h23.02.864,uWM_experiment,2022.2.3,59.99044952
,,,,,,,,,,,,,,,,,,,,6,0,6,0,18,0,18,0,,,,,,,,,,,,,,,,,,,,,,,,,,,,,,,,,,,,,,,,,,,,,,,,,,,,,,,,,,,,,,,,,,,,,,0.015,,,,,,,,,,,,,,,,,,,,,,,,,,,,right,1,100,30,130,1,3843.576194,3843.576194,3843.576194,None,None,1,1,2.1627423,,,,,,,,,,,,,,,,,,,10,19,1,2024-11-11_12h23.02.864,uWM_experiment,2022.2.3,59.99044952
,,,,,,,,,,,,,,,,,,,,6,0,6,0,19,0,19,0,,,,,,,,,,,,,,,,,,,,,,,,,,,,,,,,,,,,,,,,,,,,,,,,,,,,,,,,,,,,,,,,,,,,,,0.025,,,,,,,,,,,,,,,,,,,,,,,,,,,,right,0,130,-30,100,1,3851.94318,3851.94318,3851.94318,None,None,1,1,0.6036346,,,,,,,,,,,,,,,,,,,10,19,1,2024-11-11_12h23.02.864,uWM_experiment,2022.2.3,59.99044952
,,,,,,,,,,,,,,,,,,,,6,0,6,0,20,0,20,0,,,,,,,,,,,,,,,,,,,,,,,,,,,,,,,,,,,,,,,,,,,,,,,,,,,,,,,,,,,,,,,,,,,,,,0.035,,,,,,,,,,,,,,,,,,,,,,,,,,,,right,1,40,30,70,1,3859.843461,3859.843461,3859.843461,None,None,4,0,1.3114187,,,,,,,,,,,,,,,,,,,10,19,1,2024-11-11_12h23.02.864,uWM_experiment,2022.2.3,59.99044952
,,,,,,,,,,,,,,,,,,,,6,0,6,0,21,0,21,0,,,,,,,,,,,,,,,,,,,,,,,,,,,,,,,,,,,,,,,,,,,,,,,,,,,,,,,,,,,,,,,,,,,,,,0.025,,,,,,,,,,,,,,,,,,,,,,,,,,,,right,0,100,-30,70,1,3867.193745,3867.193745,3867.193745,None,None,4,0,2.5049621,,,,,,,,,,,,,,,,,,,10,19,1,2024-11-11_12h23.02.864,uWM_experiment,2022.2.3,59.99044952
,,,,,,,,,,,,,,,,,,,,6,0,6,0,22,0,22,0,,,,,,,,,,,,,,,,,,,,,,,,,,,,,,,,,,,,,,,,,,,,,,,,,,,,,,,,,,,,,,,,,,,,,,0.015,,,,,,,,,,,,,,,,,,,,,,,,,,,,left,1,160,-30,130,1,3876.594097,3876.594097,3876.594097,None,None,4,0,0.8085789,,,,,,,,,,,,,,,,,,,10,19,1,2024-11-11_12h23.02.864,uWM_experiment,2022.2.3,59.99044952
,,,,,,,,,,,,,,,,,,,,6,0,6,0,23,0,23,0,,,,,,,,,,,,,,,,,,,,,,,,,,,,,,,,,,,,,,,,,,,,,,,,,,,,,,,,,,,,,,,,,,,,,,0.005,,,,,,,,,,,,,,,,,,,,,,,,,,,,right,0,70,-30,40,1,3883.244353,3883.244353,3883.244353,None,None,4,0,0.9022614,,,,,,,,,,,,,,,,,,,10,19,1,2024-11-11_12h23.02.864,uWM_experiment,2022.2.3,59.99044952
,,,,,,,,,,,,,,,,,,,,6,0,6,0,,,,,0,0,0,0,,,,,,,,,,,,,,,,,,,,,,,,,,,,,,,,,,,,,,,,,,,,,,,,,,,,,,,,,,,,,,,,,,,,,,,,,,,,,,,,,,,,,,,,,,,,,,,,,,,,,,,,,,,,3884.177715,3884.177715,space,196.3438935,None,space,,,,,4080.551877,4080.551877,11.6576323,,,,,,10,19,1,2024-11-11_12h23.02.864,uWM_experiment,2022.2.3,59.99044952
,,,,,,,,,,,,,,,,,,,,6,0,6,0,,,,,1,0,1,0,,,,,,,,,,,,,,,,,,,,,,,,,,,,,,,,,,,,,,,,,,,,,,,,,,,,,,,,,,,,,,,,,,,,,,,,,,,,,,,,,,,,,,,,,,,,,,,,,,,,,,,,,,,,,,,,,,,,,,,,,,,,,,10,19,1,2024-11-11_12h23.02.864,uWM_experiment,2022.2.3,59.99044952
,,,,,,,,,,,,,,,,,,,,6,0,6,0,,,,,2,0,2,0,,,,,,,,,,,,,,,,,,,,,,,,,,,,,,,,,,,,,,,,,,,,,,,,,,,,,,,,,,,,,,,,,,,,,,,,,,,,,,,,,,,,,,,,,,,,,,,,,,,,,,,,,,,,,,,,,,,,,,,,,,,,,,10,19,1,2024-11-11_12h23.02.864,uWM_experiment,2022.2.3,59.99044952
,,,,,,,,,,,,,,,,,,,,7,0,7,0,0,0,0,0,,,,,,,,,,,,,,,,,,,,,,,,,,,,,,,,,,,,,,,,,,,,,,,,,,,,,,,,,,,,,,,,,,,,,,0.005,,,,,,,,,,,,,,,,,,,,4113.453161,4114.153163,4114.43651,4115.136535,4115.436554,4116.13656,4116.13656,4116.453273,left,1,160,-30,130,1,4122.370166,4122.370166,4122.370166,None,None,4,0,1.1432428,,,,,,,space,,,,,,,4108.802969,4108.802969,4.6304977,,,10,19,1,2024-11-11_12h23.02.864,uWM_experiment,2022.2.3,59.99044952
,,,,,,,,,,,,,,,,,,,,7,0,7,0,1,0,1,0,,,,,,,,,,,,,,,,,,,,,,,,,,,,,,,,,,,,,,,,,,,,,,,,,,,,,,,,,,,,,,,,,,,,,,0.005,,,,,,,,,,,,,,,,,,,,,,,,,,,,left,1,130,-30,100,1,4129.587106,4129.587106,4129.587106,None,None,4,0,2.0780992,,,,,,,,,,,,,,,,,,,10,19,1,2024-11-11_12h23.02.864,uWM_experiment,2022.2.3,59.99044952
,,,,,,,,,,,,,,,,,,,,7,0,7,0,2,0,2,0,,,,,,,,,,,,,,,,,,,,,,,,,,,,,,,,,,,,,,,,,,,,,,,,,,,,,,,,,,,,,,,,,,,,,,0.005,,,,,,,,,,,,,,,,,,,,,,,,,,,,left,0,10,30,40,1,4141.604224,4141.604224,4141.604224,None,None,1,1,8.9249952,,,,,,,,,,,,,,,,,,,10,19,1,2024-11-11_12h23.02.864,uWM_experiment,2022.2.3,59.99044952
,,,,,,,,,,,,,,,,,,,,7,0,7,0,3,0,3,0,,,,,,,,,,,,,,,,,,,,,,,,,,,,,,,,,,,,,,,,,,,,,,,,,,,,,,,,,,,,,,,,,,,,,,0.015,,,,,,,,,,,,,,,,,,,,,,,,,,,,right,0,40,-30,10,1,4157.571502,4157.571502,4157.571502,None,None,4,0,1.1896233,,,,,,,,,,,,,,,,,,,10,19,1,2024-11-11_12h23.02.864,uWM_experiment,2022.2.3,59.99044952
,,,,,,,,,,,,,,,,,,,,7,0,7,0,4,0,4,0,,,,,,,,,,,,,,,,,,,,,,,,,,,,,,,,,,,,,,,,,,,,,,,,,,,,,,,,,,,,,,,,,,,,,,0.005,,,,,,,,,,,,,,,,,,,,,,,,,,,,right,0,40,-30,10,1,4165.405123,4165.405123,4165.405123,None,None,4,0,2.91601,,,,,,,,,,,,,,,,,,,10,19,1,2024-11-11_12h23.02.864,uWM_experiment,2022.2.3,59.99044952
,,,,,,,,,,,,,,,,,,,,7,0,7,0,5,0,5,0,,,,,,,,,,,,,,,,,,,,,,,,,,,,,,,,,,,,,,,,,,,,,,,,,,,,,,,,,,,,,,,,,,,,,,0,,,,,,,,,,,,,,,,,,,,,,,,,,,,left,1,10,-30,-20,0,4175.005472,4175.005472,4175.005472,None,None,4,0,2.2674737,,,,,,,,,,,,,,,,,,,10,19,1,2024-11-11_12h23.02.864,uWM_experiment,2022.2.3,59.99044952
,,,,,,,,,,,,,,,,,,,,7,0,7,0,6,0,6,0,,,,,,,,,,,,,,,,,,,,,,,,,,,,,,,,,,,,,,,,,,,,,,,,,,,,,,,,,,,,,,,,,,,,,,0.005,,,,,,,,,,,,,,,,,,,,,,,,,,,,right,1,160,30,190,1,4183.07248,4183.07248,4183.07248,None,None,4,0,5.2964742,,,,,,,,,,,,,,,,,,,10,19,1,2024-11-11_12h23.02.864,uWM_experiment,2022.2.3,59.99044952
,,,,,,,,,,,,,,,,,,,,7,0,7,0,7,0,7,0,,,,,,,,,,,,,,,,,,,,,,,,,,,,,,,,,,,,,,,,,,,,,,,,,,,,,,,,,,,,,,,,,,,,,,0.005,,,,,,,,,,,,,,,,,,,,,,,,,,,,right,0,70,-30,40,1,4194.306381,4194.306381,4194.306381,None,None,4,0,0.9745658,,,,,,,,,,,,,,,,,,,10,19,1,2024-11-11_12h23.02.864,uWM_experiment,2022.2.3,59.99044952
,,,,,,,,,,,,,,,,,,,,7,0,7,0,8,0,8,0,,,,,,,,,,,,,,,,,,,,,,,,,,,,,,,,,,,,,,,,,,,,,,,,,,,,,,,,,,,,,,,,,,,,,,0.005,,,,,,,,,,,,,,,,,,,,,,,,,,,,right,0,70,-30,40,1,4201.939871,4201.939871,4201.939871,None,None,4,0,1.5569753,,,,,,,,,,,,,,,,,,,10,19,1,2024-11-11_12h23.02.864,uWM_experiment,2022.2.3,59.99044952
,,,,,,,,,,,,,,,,,,,,7,0,7,0,9,0,9,0,,,,,,,,,,,,,,,,,,,,,,,,,,,,,,,,,,,,,,,,,,,,,,,,,,,,,,,,,,,,,,,,,,,,,,0,,,,,,,,,,,,,,,,,,,,,,,,,,,,right,0,10,-30,-20,0,4213.09027,4213.09027,4213.09027,None,None,4,0,2.0384289,,,,,,,,,,,,,,,,,,,10,19,1,2024-11-11_12h23.02.864,uWM_experiment,2022.2.3,59.99044952
,,,,,,,,,,,,,,,,,,,,7,0,7,0,10,0,10,0,,,,,,,,,,,,,,,,,,,,,,,,,,,,,,,,,,,,,,,,,,,,,,,,,,,,,,,,,,,,,,,,,,,,,,0,,,,,,,,,,,,,,,,,,,,,,,,,,,,left,0,70,30,100,0,4223.440697,4223.440697,4223.440697,None,None,4,0,1.0560338,,,,,,,,,,,,,,,,,,,10,19,1,2024-11-11_12h23.02.864,uWM_experiment,2022.2.3,59.99044952
,,,,,,,,,,,,,,,,,,,,7,0,7,0,11,0,11,0,,,,,,,,,,,,,,,,,,,,,,,,,,,,,,,,,,,,,,,,,,,,,,,,,,,,,,,,,,,,,,,,,,,,,,0.005,,,,,,,,,,,,,,,,,,,,,,,,,,,,right,1,160,30,190,1,4232.024355,4232.024355,4232.024355,None,None,4,0,1.9124184,,,,,,,,,,,,,,,,,,,10,19,1,2024-11-11_12h23.02.864,uWM_experiment,2022.2.3,59.99044952
,,,,,,,,,,,,,,,,,,,,7,0,7,0,12,0,12,0,,,,,,,,,,,,,,,,,,,,,,,,,,,,,,,,,,,,,,,,,,,,,,,,,,,,,,,,,,,,,,,,,,,,,,0,,,,,,,,,,,,,,,,,,,,,,,,,,,,right,1,40,30,70,0,4239.72465,4239.72465,4239.72465,None,None,4,0,0.540067,,,,,,,,,,,,,,,,,,,10,19,1,2024-11-11_12h23.02.864,uWM_experiment,2022.2.3,59.99044952
,,,,,,,,,,,,,,,,,,,,7,0,7,0,13,0,13,0,,,,,,,,,,,,,,,,,,,,,,,,,,,,,,,,,,,,,,,,,,,,,,,,,,,,,,,,,,,,,,,,,,,,,,0.005,,,,,,,,,,,,,,,,,,,,,,,,,,,,right,0,70,-30,40,1,4246.691578,4246.691578,4246.691578,None,None,4,0,1.6450552,,,,,,,,,,,,,,,,,,,10,19,1,2024-11-11_12h23.02.864,uWM_experiment,2022.2.3,59.99044952
,,,,,,,,,,,,,,,,,,,,7,0,7,0,14,0,14,0,,,,,,,,,,,,,,,,,,,,,,,,,,,,,,,,,,,,,,,,,,,,,,,,,,,,,,,,,,,,,,,,,,,,,,0.005,,,,,,,,,,,,,,,,,,,,,,,,,,,,right,1,40,30,70,1,4254.241869,4254.241869,4254.241869,None,None,4,0,0.6947698,,,,,,,,,,,,,,,,,,,10,19,1,2024-11-11_12h23.02.864,uWM_experiment,2022.2.3,59.99044952
,,,,,,,,,,,,,,,,,,,,7,0,7,0,15,0,15,0,,,,,,,,,,,,,,,,,,,,,,,,,,,,,,,,,,,,,,,,,,,,,,,,,,,,,,,,,,,,,,,,,,,,,,0,,,,,,,,,,,,,,,,,,,,,,,,,,,,right,1,70,30,100,0,4261.758803,4261.758803,4261.758803,None,None,4,0,0.4657865,,,,,,,,,,,,,,,,,,,10,19,1,2024-11-11_12h23.02.864,uWM_experiment,2022.2.3,59.99044952
,,,,,,,,,,,,,,,,,,,,7,0,7,0,16,0,16,0,,,,,,,,,,,,,,,,,,,,,,,,,,,,,,,,,,,,,,,,,,,,,,,,,,,,,,,,,,,,,,,,,,,,,,0,,,,,,,,,,,,,,,,,,,,,,,,,,,,right,0,100,-30,70,0,4269.2091,4269.2091,4269.2091,None,None,1,1,7.1914095,,,,,,,,,,,,,,,,,,,10,19,1,2024-11-11_12h23.02.864,uWM_experiment,2022.2.3,59.99044952
,,,,,,,,,,,,,,,,,,,,7,0,7,0,17,0,17,0,,,,,,,,,,,,,,,,,,,,,,,,,,,,,,,,,,,,,,,,,,,,,,,,,,,,,,,,,,,,,,,,,,,,,,0.005,,,,,,,,,,,,,,,,,,,,,,,,,,,,right,1,10,30,40,1,4283.30963,4283.30963,4283.30963,None,None,4,0,0.4908637,,,,,,,,,,,,,,,,,,,10,19,1,2024-11-11_12h23.02.864,uWM_experiment,2022.2.3,59.99044952
,,,,,,,,,,,,,,,,,,,,7,0,7,0,18,0,18,0,,,,,,,,,,,,,,,,,,,,,,,,,,,,,,,,,,,,,,,,,,,,,,,,,,,,,,,,,,,,,,,,,,,,,,0.005,,,,,,,,,,,,,,,,,,,,,,,,,,,,right,1,70,30,100,1,4290.626575,4290.626575,4290.626575,None,None,1,1,2.9257196,,,,,,,,,,,,,,,,,,,10,19,1,2024-11-11_12h23.02.864,uWM_experiment,2022.2.3,59.99044952
,,,,,,,,,,,,,,,,,,,,7,0,7,0,19,0,19,0,,,,,,,,,,,,,,,,,,,,,,,,,,,,,,,,,,,,,,,,,,,,,,,,,,,,,,,,,,,,,,,,,,,,,,0.015,,,,,,,,,,,,,,,,,,,,,,,,,,,,right,0,130,-30,100,1,4299.443594,4299.443594,4299.443594,None,None,1,1,0.6607224,,,,,,,,,,,,,,,,,,,10,19,1,2024-11-11_12h23.02.864,uWM_experiment,2022.2.3,59.99044952
,,,,,,,,,,,,,,,,,,,,7,0,7,0,20,0,20,0,,,,,,,,,,,,,,,,,,,,,,,,,,,,,,,,,,,,,,,,,,,,,,,,,,,,,,,,,,,,,,,,,,,,,,0.1,,,,,,,,,,,,,,,,,,,,,,,,,,,,right,1,10,30,40,2,4306.643838,4306.643838,4306.643838,None,None,4,0,3.0363428,,,,,,,,,,,,,,,,,,,10,19,1,2024-11-11_12h23.02.864,uWM_experiment,2022.2.3,59.99044952
,,,,,,,,,,,,,,,,,,,,7,0,7,0,21,0,21,0,,,,,,,,,,,,,,,,,,,,,,,,,,,,,,,,,,,,,,,,,,,,,,,,,,,,,,,,,,,,,,,,,,,,,,0.025,,,,,,,,,,,,,,,,,,,,,,,,,,,,right,0,100,-30,70,1,4316.460929,4316.460929,4316.460929,None,None,4,0,0.8832979,,,,,,,,,,,,,,,,,,,10,19,1,2024-11-11_12h23.02.864,uWM_experiment,2022.2.3,59.99044952
,,,,,,,,,,,,,,,,,,,,7,0,7,0,22,0,22,0,,,,,,,,,,,,,,,,,,,,,,,,,,,,,,,,,,,,,,,,,,,,,,,,,,,,,,,,,,,,,,,,,,,,,,0.015,,,,,,,,,,,,,,,,,,,,,,,,,,,,left,0,100,30,130,1,4325.36124,4325.36124,4325.36124,None,None,4,0,0.7750197,,,,,,,,,,,,,,,,,,,10,19,1,2024-11-11_12h23.02.864,uWM_experiment,2022.2.3,59.99044952
,,,,,,,,,,,,,,,,,,,,7,0,7,0,23,0,23,0,,,,,,,,,,,,,,,,,,,,,,,,,,,,,,,,,,,,,,,,,,,,,,,,,,,,,,,,,,,,,,,,,,,,,,0.005,,,,,,,,,,,,,,,,,,,,,,,,,,,,right,1,10,30,40,1,4332.044841,4332.044841,4332.044841,None,None,4,0,1.7633422,,,,,,,,,,,,,,,,,,,10,19,1,2024-11-11_12h23.02.864,uWM_experiment,2022.2.3,59.99044952
,,,,,,,,,,,,,,,,,,,,7,0,7,0,,,,,0,0,0,0,,,,,,,,,,,,,,,,,,,,,,,,,,,,,,,,,,,,,,,,,,,,,,,,,,,,,,,,,,,,,,,,,,,,,,,,,,,,,,,,,,,,,,,,,,,,,,,,,,,,,,,,,,,,4333.828217,4333.828217,space,46.5396179,None,None,,,,,,,,,,,,,10,19,1,2024-11-11_12h23.02.864,uWM_experiment,2022.2.3,59.99044952
,,,,,,,,,,,,,,,,,,,,7,0,7,0,,,,,1,0,1,0,,,,,,,,,,,,,,,,,,,,,,,,,,,,,,,,,,,,,,,,,,,,,,,,,,,,,,,,,,,,,,,,,,,,,,,,,,,,,,,,,,,,,,,,,,,,,,,,,,,,,,,,,,,,,,,,,,,,,,,,,,,,,,10,19,1,2024-11-11_12h23.02.864,uWM_experiment,2022.2.3,59.99044952
,,,,,,,,,,,,,,,,,,,,7,0,7,0,,,,,2,0,2,0,,,,,,,,,,,,,,,,,,,,,,,,,,,,,,,,,,,,,,,,,,,,,,,,,,,,,,,,,,,,,,,,,,,,,,,,,,,,,,,,,,,,,,,,,,,,,,,,,,,,,,,,,,,,,,,,,,,,,,,,,,,,,,10,19,1,2024-11-11_12h23.02.864,uWM_experiment,2022.2.3,59.99044952
,,,,,,,,,,,,,,,,,,,,8,0,8,0,0,0,0,0,,,,,,,,,,,,,,,,,,,,,,,,,,,,,,,,,,,,,,,,,,,,,,,,,,,,,,,,,,,,,,,,,,,,,,0.005,,,,,,,,,,,,,,,,,,,,4380.396674,4381.096717,4381.396713,4382.096731,4382.396767,4383.09677,4383.09677,4383.413459,right,1,10,30,40,1,4389.31372,4389.31372,4389.31372,None,None,1,1,5.2141054,,,,,,,None,,,,,,,,,,,,10,19,1,2024-11-11_12h23.02.864,uWM_experiment,2022.2.3,59.99044952
,,,,,,,,,,,,,,,,,,,,8,0,8,0,1,0,1,0,,,,,,,,,,,,,,,,,,,,,,,,,,,,,,,,,,,,,,,,,,,,,,,,,,,,,,,,,,,,,,,,,,,,,,0.015,,,,,,,,,,,,,,,,,,,,,,,,,,,,left,0,130,30,160,1,4403.314255,4403.314255,4403.314255,None,None,4,0,0.6053525,,,,,,,,,,,,,,,,,,,10,19,1,2024-11-11_12h23.02.864,uWM_experiment,2022.2.3,59.99044952
,,,,,,,,,,,,,,,,,,,,8,0,8,0,2,0,2,0,,,,,,,,,,,,,,,,,,,,,,,,,,,,,,,,,,,,,,,,,,,,,,,,,,,,,,,,,,,,,,,,,,,,,,0.005,,,,,,,,,,,,,,,,,,,,,,,,,,,,left,1,10,-30,-20,1,4411.497876,4411.497876,4411.497876,None,None,4,0,0.9977386,,,,,,,,,,,,,,,,,,,10,19,1,2024-11-11_12h23.02.864,uWM_experiment,2022.2.3,59.99044952
,,,,,,,,,,,,,,,,,,,,8,0,8,0,3,0,3,0,,,,,,,,,,,,,,,,,,,,,,,,,,,,,,,,,,,,,,,,,,,,,,,,,,,,,,,,,,,,,,,,,,,,,,0.1,,,,,,,,,,,,,,,,,,,,,,,,,,,,right,0,40,-30,10,2,4418.664822,4418.664822,4418.664822,None,None,4,0,0.6148498,,,,,,,,,,,,,,,,,,,10,19,1,2024-11-11_12h23.02.864,uWM_experiment,2022.2.3,59.99044952
,,,,,,,,,,,,,,,,,,,,8,0,8,0,4,0,4,0,,,,,,,,,,,,,,,,,,,,,,,,,,,,,,,,,,,,,,,,,,,,,,,,,,,,,,,,,,,,,,,,,,,,,,0,,,,,,,,,,,,,,,,,,,,,,,,,,,,right,1,70,30,100,0,4427.965145,4427.965145,4427.965145,None,None,4,0,1.2983761,,,,,,,,,,,,,,,,,,,10,19,1,2024-11-11_12h23.02.864,uWM_experiment,2022.2.3,59.99044952
,,,,,,,,,,,,,,,,,,,,8,0,8,0,5,0,5,0,,,,,,,,,,,,,,,,,,,,,,,,,,,,,,,,,,,,,,,,,,,,,,,,,,,,,,,,,,,,,,,,,,,,,,0.005,,,,,,,,,,,,,,,,,,,,,,,,,,,,right,0,10,-30,-20,1,4437.648858,4437.648858,4437.648858,None,None,4,0,0.614717,,,,,,,,,,,,,,,,,,,10,19,1,2024-11-11_12h23.02.864,uWM_experiment,2022.2.3,59.99044952
,,,,,,,,,,,,,,,,,,,,8,0,8,0,6,0,6,0,,,,,,,,,,,,,,,,,,,,,,,,,,,,,,,,,,,,,,,,,,,,,,,,,,,,,,,,,,,,,,,,,,,,,,0.005,,,,,,,,,,,,,,,,,,,,,,,,,,,,right,0,70,-30,40,1,4444.515794,4444.515794,4444.515794,None,None,4,0,0.515613,,,,,,,,,,,,,,,,,,,10,19,1,2024-11-11_12h23.02.864,uWM_experiment,2022.2.3,59.99044952
,,,,,,,,,,,,,,,,,,,,8,0,8,0,7,0,7,0,,,,,,,,,,,,,,,,,,,,,,,,,,,,,,,,,,,,,,,,,,,,,,,,,,,,,,,,,,,,,,,,,,,,,,0.005,,,,,,,,,,,,,,,,,,,,,,,,,,,,left,1,40,-30,10,1,4451.799429,4451.799429,4451.799429,None,None,4,0,1.0400393,,,,,,,,,,,,,,,,,,,10,19,1,2024-11-11_12h23.02.864,uWM_experiment,2022.2.3,59.99044952
,,,,,,,,,,,,,,,,,,,,8,0,8,0,8,0,8,0,,,,,,,,,,,,,,,,,,,,,,,,,,,,,,,,,,,,,,,,,,,,,,,,,,,,,,,,,,,,,,,,,,,,,,0,,,,,,,,,,,,,,,,,,,,,,,,,,,,left,1,160,-30,130,0,4460.183065,4460.183065,4460.183065,None,None,4,0,0.8882188,,,,,,,,,,,,,,,,,,,10,19,1,2024-11-11_12h23.02.864,uWM_experiment,2022.2.3,59.99044952
,,,,,,,,,,,,,,,,,,,,8,0,8,0,9,0,9,0,,,,,,,,,,,,,,,,,,,,,,,,,,,,,,,,,,,,,,,,,,,,,,,,,,,,,,,,,,,,,,,,,,,,,,0.005,,,,,,,,,,,,,,,,,,,,,,,,,,,,left,0,100,30,130,1,4467.233326,4467.233326,4467.233326,None,None,4,0,0.4940211,,,,,,,,,,,,,,,,,,,10,19,1,2024-11-11_12h23.02.864,uWM_experiment,2022.2.3,59.99044952
,,,,,,,,,,,,,,,,,,,,8,0,8,0,10,0,10,0,,,,,,,,,,,,,,,,,,,,,,,,,,,,,,,,,,,,,,,,,,,,,,,,,,,,,,,,,,,,,,,,,,,,,,0.005,,,,,,,,,,,,,,,,,,,,,,,,,,,,right,1,160,30,190,1,4475.583662,4475.583662,4475.583662,None,None,4,0,4.9756773,,,,,,,,,,,,,,,,,,,10,19,1,2024-11-11_12h23.02.864,uWM_experiment,2022.2.3,59.99044952
,,,,,,,,,,,,,,,,,,,,8,0,8,0,11,0,11,0,,,,,,,,,,,,,,,,,,,,,,,,,,,,,,,,,,,,,,,,,,,,,,,,,,,,,,,,,,,,,,,,,,,,,,0.005,,,,,,,,,,,,,,,,,,,,,,,,,,,,right,1,40,30,70,1,4486.834526,4486.834526,4486.834526,None,None,4,0,1.8446294,,,,,,,,,,,,,,,,,,,10,19,1,2024-11-11_12h23.02.864,uWM_experiment,2022.2.3,59.99044952
,,,,,,,,,,,,,,,,,,,,8,0,8,0,12,0,12,0,,,,,,,,,,,,,,,,,,,,,,,,,,,,,,,,,,,,,,,,,,,,,,,,,,,,,,,,,,,,,,,,,,,,,,0.005,,,,,,,,,,,,,,,,,,,,,,,,,,,,right,0,130,-30,100,1,4495.534423,4495.534423,4495.534423,None,None,4,0,0.4968079,,,,,,,,,,,,,,,,,,,10,19,1,2024-11-11_12h23.02.864,uWM_experiment,2022.2.3,59.99044952
,,,,,,,,,,,,,,,,,,,,8,0,8,0,13,0,13,0,,,,,,,,,,,,,,,,,,,,,,,,,,,,,,,,,,,,,,,,,,,,,,,,,,,,,,,,,,,,,,,,,,,,,,0,,,,,,,,,,,,,,,,,,,,,,,,,,,,left,0,70,30,100,0,4502.051331,4502.051331,4502.051331,None,None,4,0,2.5077334,,,,,,,,,,,,,,,,,,,10,19,1,2024-11-11_12h23.02.864,uWM_experiment,2022.2.3,59.99044952
,,,,,,,,,,,,,,,,,,,,8,0,8,0,14,0,14,0,,,,,,,,,,,,,,,,,,,,,,,,,,,,,,,,,,,,,,,,,,,,,,,,,,,,,,,,,,,,,,,,,,,,,,0.005,,,,,,,,,,,,,,,,,,,,,,,,,,,,right,1,10,30,40,1,4510.701698,4510.701698,4510.701698,None,None,4,0,0.8253336,,,,,,,,,,,,,,,,,,,10,19,1,2024-11-11_12h23.02.864,uWM_experiment,2022.2.3,59.99044952
,,,,,,,,,,,,,,,,,,,,8,0,8,0,15,0,15,0,,,,,,,,,,,,,,,,,,,,,,,,,,,,,,,,,,,,,,,,,,,,,,,,,,,,,,,,,,,,,,,,,,,,,,0.005,,,,,,,,,,,,,,,,,,,,,,,,,,,,left,0,100,30,130,1,4518.28526,4518.28526,4518.28526,None,None,4,0,0.609855,,,,,,,,,,,,,,,,,,,10,19,1,2024-11-11_12h23.02.864,uWM_experiment,2022.2.3,59.99044952
,,,,,,,,,,,,,,,,,,,,8,0,8,0,16,0,16,0,,,,,,,,,,,,,,,,,,,,,,,,,,,,,,,,,,,,,,,,,,,,,,,,,,,,,,,,,,,,,,,,,,,,,,0.005,,,,,,,,,,,,,,,,,,,,,,,,,,,,right,1,40,30,70,1,4524.602189,4524.602189,4524.602189,None,None,4,0,0.5169922,,,,,,,,,,,,,,,,,,,10,19,1,2024-11-11_12h23.02.864,uWM_experiment,2022.2.3,59.99044952
,,,,,,,,,,,,,,,,,,,,8,0,8,0,17,0,17,0,,,,,,,,,,,,,,,,,,,,,,,,,,,,,,,,,,,,,,,,,,,,,,,,,,,,,,,,,,,,,,,,,,,,,,0.005,,,,,,,,,,,,,,,,,,,,,,,,,,,,left,0,160,30,190,1,4531.985801,4531.985801,4531.985801,None,None,4,0,0.5251774,,,,,,,,,,,,,,,,,,,10,19,1,2024-11-11_12h23.02.864,uWM_experiment,2022.2.3,59.99044952
,,,,,,,,,,,,,,,,,,,,8,0,8,0,18,0,18,0,,,,,,,,,,,,,,,,,,,,,,,,,,,,,,,,,,,,,,,,,,,,,,,,,,,,,,,,,,,,,,,,,,,,,,0.005,,,,,,,,,,,,,,,,,,,,,,,,,,,,left,1,130,-30,100,1,4538.836086,4538.836086,4538.836086,None,None,4,0,0.4507387,,,,,,,,,,,,,,,,,,,10,19,1,2024-11-11_12h23.02.864,uWM_experiment,2022.2.3,59.99044952
,,,,,,,,,,,,,,,,,,,,8,0,8,0,19,0,19,0,,,,,,,,,,,,,,,,,,,,,,,,,,,,,,,,,,,,,,,,,,,,,,,,,,,,,,,,,,,,,,,,,,,,,,0,,,,,,,,,,,,,,,,,,,,,,,,,,,,left,1,10,-30,-20,0,4546.236354,4546.236354,4546.236354,None,None,4,0,2.8745884,,,,,,,,,,,,,,,,,,,10,19,1,2024-11-11_12h23.02.864,uWM_experiment,2022.2.3,59.99044952
,,,,,,,,,,,,,,,,,,,,8,0,8,0,20,0,20,0,,,,,,,,,,,,,,,,,,,,,,,,,,,,,,,,,,,,,,,,,,,,,,,,,,,,,,,,,,,,,,,,,,,,,,0.1,,,,,,,,,,,,,,,,,,,,,,,,,,,,right,1,70,30,100,2,4558.536821,4558.536821,4558.536821,None,None,4,0,3.1900099,,,,,,,,,,,,,,,,,,,10,19,1,2024-11-11_12h23.02.864,uWM_experiment,2022.2.3,59.99044952
,,,,,,,,,,,,,,,,,,,,8,0,8,0,21,0,21,0,,,,,,,,,,,,,,,,,,,,,,,,,,,,,,,,,,,,,,,,,,,,,,,,,,,,,,,,,,,,,,,,,,,,,,0,,,,,,,,,,,,,,,,,,,,,,,,,,,,right,0,40,-30,10,0,4570.053941,4570.053941,4570.053941,None,None,1,1,4.6408644,,,,,,,,,,,,,,,,,,,10,19,1,2024-11-11_12h23.02.864,uWM_experiment,2022.2.3,59.99044952
,,,,,,,,,,,,,,,,,,,,8,0,8,0,22,0,22,0,,,,,,,,,,,,,,,,,,,,,,,,,,,,,,,,,,,,,,,,,,,,,,,,,,,,,,,,,,,,,,,,,,,,,,0,,,,,,,,,,,,,,,,,,,,,,,,,,,,right,1,10,30,40,0,4581.054364,4581.054364,4581.054364,None,None,4,0,2.6642995,,,,,,,,,,,,,,,,,,,10,19,1,2024-11-11_12h23.02.864,uWM_experiment,2022.2.3,59.99044952
,,,,,,,,,,,,,,,,,,,,8,0,8,0,23,0,23,0,,,,,,,,,,,,,,,,,,,,,,,,,,,,,,,,,,,,,,,,,,,,,,,,,,,,,,,,,,,,,,,,,,,,,,0.005,,,,,,,,,,,,,,,,,,,,,,,,,,,,left,0,70,30,100,1,4591.621416,4591.621416,4591.621416,None,None,4,0,0.4892013,,,,,,,,,,,,,,,,,,,10,19,1,2024-11-11_12h23.02.864,uWM_experiment,2022.2.3,59.99044952
,,,,,,,,,,,,,,,,,,,,8,0,8,0,,,,,0,0,0,0,,,,,,,,,,,,,,,,,,,,,,,,,,,,,,,,,,,,,,,,,,,,,,,,,,,,,,,,,,,,,,,,,,,,,,,,,,,,,,,,,,,,,,,,,,,,,,,,,,,,,,,,,,,,4592.138076,4592.138076,space,70.4041574,space,None,,4662.574101,4662.574101,4.352254,,,,,,,,,10,19,1,2024-11-11_12h23.02.864,uWM_experiment,2022.2.3,59.99044952
,,,,,,,,,,,,,,,,,,,,8,0,8,0,,,,,1,0,1,0,,,,,,,,,,,,,,,,,,,,,,,,,,,,,,,,,,,,,,,,,,,,,,,,,,,,,,,,,,,,,,,,,,,,,,,,,,,,,,,,,,,,,,,,,,,,,,,,,,,,,,,,,,,,,,,,,,,,,,,,,,,,,,10,19,1,2024-11-11_12h23.02.864,uWM_experiment,2022.2.3,59.99044952
,,,,,,,,,,,,,,,,,,,,8,0,8,0,,,,,2,0,2,0,,,,,,,,,,,,,,,,,,,,,,,,,,,,,,,,,,,,,,,,,,,,,,,,,,,,,,,,,,,,,,,,,,,,,,,,,,,,,,,,,,,,,,,,,,,,,,,,,,,,,,,,,,,,,,,,,,,,,,,,,,,,,,10,19,1,2024-11-11_12h23.02.864,uWM_experiment,2022.2.3,59.99044952
,,,,,,,,,,,,,,,,,,,,9,0,9,0,0,0,0,0,,,,,,,,,,,,,,,,,,,,,,,,,,,,,,,,,,,,,,,,,,,,,,,,,,,,,,,,,,,,,,,,,,,,,,0,,,,,,,,,,,,,,,,,,,,4666.957607,4667.65763,4667.957642,4668.657672,4668.957684,4669.657705,4669.657705,4669.974403,left,1,160,-30,130,0,4676.057967,4676.057967,4676.057967,None,None,4,0,1.9720497,,,,,,,None,,,,,,,,,,,,10,19,1,2024-11-11_12h23.02.864,uWM_experiment,2022.2.3,59.99044952
,,,,,,,,,,,,,,,,,,,,9,0,9,0,1,0,1,0,,,,,,,,,,,,,,,,,,,,,,,,,,,,,,,,,,,,,,,,,,,,,,,,,,,,,,,,,,,,,,,,,,,,,,0.005,,,,,,,,,,,,,,,,,,,,,,,,,,,,left,0,70,30,100,1,4684.324955,4684.324955,4684.324955,None,None,4,0,0.889026,,,,,,,,,,,,,,,,,,,10,19,1,2024-11-11_12h23.02.864,uWM_experiment,2022.2.3,59.99044952
,,,,,,,,,,,,,,,,,,,,9,0,9,0,2,0,2,0,,,,,,,,,,,,,,,,,,,,,,,,,,,,,,,,,,,,,,,,,,,,,,,,,,,,,,,,,,,,,,,,,,,,,,0.1,,,,,,,,,,,,,,,,,,,,,,,,,,,,right,0,100,-30,70,2,4692.641919,4692.641919,4692.641919,None,None,4,0,0.8040171,,,,,,,,,,,,,,,,,,,10,19,1,2024-11-11_12h23.02.864,uWM_experiment,2022.2.3,59.99044952
,,,,,,,,,,,,,,,,,,,,9,0,9,0,3,0,3,0,,,,,,,,,,,,,,,,,,,,,,,,,,,,,,,,,,,,,,,,,,,,,,,,,,,,,,,,,,,,,,,,,,,,,,0.005,,,,,,,,,,,,,,,,,,,,,,,,,,,,left,1,100,-30,70,1,4700.258905,4700.258905,4700.258905,None,None,4,0,0.4991185,,,,,,,,,,,,,,,,,,,10,19,1,2024-11-11_12h23.02.864,uWM_experiment,2022.2.3,59.99044952
,,,,,,,,,,,,,,,,,,,,9,0,9,0,4,0,4,0,,,,,,,,,,,,,,,,,,,,,,,,,,,,,,,,,,,,,,,,,,,,,,,,,,,,,,,,,,,,,,,,,,,,,,0.005,,,,,,,,,,,,,,,,,,,,,,,,,,,,left,1,160,-30,130,1,4707.159151,4707.159151,4707.159151,None,None,4,0,0.6947836,,,,,,,,,,,,,,,,,,,10,19,1,2024-11-11_12h23.02.864,uWM_experiment,2022.2.3,59.99044952
,,,,,,,,,,,,,,,,,,,,9,0,9,0,5,0,5,0,,,,,,,,,,,,,,,,,,,,,,,,,,,,,,,,,,,,,,,,,,,,,,,,,,,,,,,,,,,,,,,,,,,,,,0,,,,,,,,,,,,,,,,,,,,,,,,,,,,right,0,40,-30,10,0,4714.059417,4714.059417,4714.059417,None,None,4,0,0.5064393,,,,,,,,,,,,,,,,,,,10,19,1,2024-11-11_12h23.02.864,uWM_experiment,2022.2.3,59.99044952
,,,,,,,,,,,,,,,,,,,,9,0,9,0,6,0,6,0,,,,,,,,,,,,,,,,,,,,,,,,,,,,,,,,,,,,,,,,,,,,,,,,,,,,,,,,,,,,,,,,,,,,,,0.005,,,,,,,,,,,,,,,,,,,,,,,,,,,,left,0,130,30,160,1,4721.109693,4721.109693,4721.109693,None,None,4,0,1.0641969,,,,,,,,,,,,,,,,,,,10,19,1,2024-11-11_12h23.02.864,uWM_experiment,2022.2.3,59.99044952
,,,,,,,,,,,,,,,,,,,,9,0,9,0,7,0,7,0,,,,,,,,,,,,,,,,,,,,,,,,,,,,,,,,,,,,,,,,,,,,,,,,,,,,,,,,,,,,,,,,,,,,,,0.005,,,,,,,,,,,,,,,,,,,,,,,,,,,,right,1,40,30,70,1,4728.759959,4728.759959,4728.759959,None,None,4,0,0.5659186,,,,,,,,,,,,,,,,,,,10,19,1,2024-11-11_12h23.02.864,uWM_experiment,2022.2.3,59.99044952
,,,,,,,,,,,,,,,,,,,,9,0,9,0,8,0,8,0,,,,,,,,,,,,,,,,,,,,,,,,,,,,,,,,,,,,,,,,,,,,,,,,,,,,,,,,,,,,,,,,,,,,,,0.005,,,,,,,,,,,,,,,,,,,,,,,,,,,,right,0,70,-30,40,1,4736.310284,4736.310284,4736.310284,None,None,4,0,0.5915475,,,,,,,,,,,,,,,,,,,10,19,1,2024-11-11_12h23.02.864,uWM_experiment,2022.2.3,59.99044952
