PreTrainingPAS4_loop.thisRepN,PreTrainingPAS4_loop.thisTrialN,PreTrainingPAS4_loop.thisN,PreTrainingPAS4_loop.thisIndex,PreTrainingPAS1_loop.thisRepN,PreTrainingPAS1_loop.thisTrialN,PreTrainingPAS1_loop.thisN,PreTrainingPAS1_loop.thisIndex,RepeatCV_loop.thisRepN,RepeatCV_loop.thisTrialN,RepeatCV_loop.thisN,RepeatCV_loop.thisIndex,TrainingCV_loop.thisRepN,TrainingCV_loop.thisTrialN,TrainingCV_loop.thisN,TrainingCV_loop.thisIndex,TrainingCAL_loop.thisRepN,TrainingCAL_loop.thisTrialN,TrainingCAL_loop.thisN,TrainingCAL_loop.thisIndex,blocks_loop.thisRepN,blocks_loop.thisTrialN,blocks_loop.thisN,blocks_loop.thisIndex,trials_loop.thisRepN,trials_loop.thisTrialN,trials_loop.thisN,trials_loop.thisIndex,TrainingPAS1_loop.thisRepN,TrainingPAS1_loop.thisTrialN,TrainingPAS1_loop.thisN,TrainingPAS1_loop.thisIndex,spacebarWelcome0.started,spacebarWelcome0.keys,spacebarWelcome0.rt,spacebarWelcome1.started,gaborWelcome1.started,maskWelcome1.started,textMaskWelcome1.started,spacebarWelcome1.keys,spacebarWelcome1.rt,spacebarWelcome2.started,spacebarWelcome2.keys,spacebarWelcome2.rt,textInst_PreTrainingPAS4.started,spacebarPreTrainingPAS4.started,spacebarPreTrainingPAS4.keys,spacebarPreTrainingPAS4.rt,textPreTrainingPAS1.started,spacebarPreTrainingPAS1.started,spacebarPreTrainingPAS1.keys,spacebarPreTrainingPAS1.rt,textQUEST0.started,spacebarQUEST0.started,spacebarQUEST0.keys,spacebarQUEST0.rt,spacebar0.started,spacebar0.keys,spacebar0.rt,spacebar1.started,spacebar1.keys,spacebar1.rt,textInstructions2.started,spacebar2.started,Gabor1Inst2.started,Gabor2Inst2.started,Gabor3Inst2.started,Gabor4Inst2.started,spacebar2.keys,spacebar2.rt,textInstructionsPAS.started,spacebarInstPAS.started,spacebarInstPAS.keys,spacebarInstPAS.rt,textInstructions3.started,spacebar3.started,spacebar3.keys,spacebar3.rt,WMresp_CV,WMresp_CV_acc,oriMemo_CV,gyre_CV,oriTest_CV,feedbackText.started,sliderCV.started,PAStextCV.started,PASkeyCV.started,sliderCV.response,sliderCV.rt,PASkeyCV.keys,PASkeyCV.corr,PASkeyCV.rt,feedbackText.stopped,TextInstructionsCAL.started,spacebarCAL.started,spacebarCAL.keys,spacebarCAL.rt,contrast,WMresp_CAL,WMresp_CAL_acc,oriMemo_CAL,gyre_CAL,oriTest_CAL,cue_CAL,sliderCAL.started,PAStextCAL.started,PASkeyCAL.started,sliderCAL.response,sliderCAL.rt,PASkeyCAL.keys,PASkeyCAL.corr,PASkeyCAL.rt,propUnseen_CAL,textStart.started,spacebar4.started,spacebar4.keys,spacebar4.rt,three.started,three.stopped,two.started,two.stopped,one.started,one.stopped,blank_countdown.started,blank_countdown.stopped,WMresp,WMresp_acc,oriMemo,gyre,oriTest,cue,slider.started,textPAS_firstGabor.started,PASkey.started,slider.response,slider.rt,PASkey.keys,PASkey.corr,PASkey.rt,spacebarContinue.started,textBreak.started,spacebarContinue.keys,spacebarContinue.rt,spacebar_reminder.keys,spacebar_TrainingPAS1.keys,spacebar_endpractice.keys,spacebar_reminder.started,textReminder.started,spacebar_reminder.rt,textInst_TrainingPAS1.started,spacebar_TrainingPAS1.started,spacebar_TrainingPAS1.rt,textend_practicePAS1.started,spacebar_endpractice.started,spacebar_endpractice.rt,textThanks.started,buttonURL.started,buttonURL.numClicks,buttonURL.timesOn,buttonURL.timesOff,laboratory,participant,session,date,expName,psychopyVersion,frameRate
,,,,,,,,,,,,,,,,,,,,,,,,,,,,,,,,23.8697807,space,29.8974133,,,,,,,,,,,,,,,,,,,,,,,,,,,,,,,,,,,,,,,,,,,,,,,,,,,,,,,,,,,,,,,,,,,,,,,,,,,,,,,,,,,,,,,,,,,,,,,,,,,,,,,,,,,,,,,,,,,,,,,,,,,,,,10,19,2,2024-11-20_12h07.57.269,uWM_experiment,2022.2.3,60.00729689
,,,,,,,,,,,,,,,,,,,,,,,,,,,,,,,,,,,53.8040304,53.8040304,53.8040304,53.8040304,space,22.8589633,,,,,,,,,,,,,,,,,,,,,,,,,,,,,,,,,,,,,,,,,,,,,,,,,,,,,,,,,,,,,,,,,,,,,,,,,,,,,,,,,,,,,,,,,,,,,,,,,,,,,,,,,,,,,,,,,,,,,,,,10,19,2,2024-11-20_12h07.57.269,uWM_experiment,2022.2.3,60.00729689
,,,,,,,,,,,,,,,,,,,,,,,,,,,,,,,,,,,,,,,,,76.6882077,space,6.8467781,,,,,,,,,,,,,,,,,,,,,,,,,,,,,,,,,,,,,,,,,,,,,,,,,,,,,,,,,,,,,,,,,,,,,,,,,,,,,,,,,,,,,,,,,,,,,,,,,,,,,,,,,,,,,,,,,,,,,10,19,2,2024-11-20_12h07.57.269,uWM_experiment,2022.2.3,60.00729689
,,,,,,,,,,,,,,,,,,,,,,,,,,,,,,,,,,,,,,,,,,,,83.5551703,83.5551703,space,4.6598099,,,,,,,,,,,,,,,,,,,,,,,,,,,,,,,,,,,,,,,,,,,,,,,,,,,,,,,,,,,,,,,,,,,,,,,,,,,,,,,,,,,,,,,,,,,,,,,,,,,,,,,,,,,,,,,,,10,19,2,2024-11-20_12h07.57.269,uWM_experiment,2022.2.3,60.00729689
0,0,0,0,,,,,,,,,,,,,,,,,,,,,,,,,,,,,,,,,,,,,,,,,,,,,,,,,,,,,,,,,,,,,,,,,,,,,,,,,,,,,,,,,,,,,,,,,,,,,,,,,,,,,,,,,,,,,,,,,,,,,,,,,,,,,,,,,,,,,,,,,,,,,,,,,,,,,,,,,,,,,10,19,2,2024-11-20_12h07.57.269,uWM_experiment,2022.2.3,60.00729689
1,0,1,0,,,,,,,,,,,,,,,,,,,,,,,,,,,,,,,,,,,,,,,,,,,,,,,,,,,,,,,,,,,,,,,,,,,,,,,,,,,,,,,,,,,,,,,,,,,,,,,,,,,,,,,,,,,,,,,,,,,,,,,,,,,,,,,,,,,,,,,,,,,,,,,,,,,,,,,,,,,,,10,19,2,2024-11-20_12h07.57.269,uWM_experiment,2022.2.3,60.00729689
2,0,2,0,,,,,,,,,,,,,,,,,,,,,,,,,,,,,,,,,,,,,,,,,,,,,,,,,,,,,,,,,,,,,,,,,,,,,,,,,,,,,,,,,,,,,,,,,,,,,,,,,,,,,,,,,,,,,,,,,,,,,,,,,,,,,,,,,,,,,,,,,,,,,,,,,,,,,,,,,,,,,10,19,2,2024-11-20_12h07.57.269,uWM_experiment,2022.2.3,60.00729689
,,,,,,,,,,,,,,,,,,,,,,,,,,,,,,,,,,,,,,,,,,,,,,,,122.8900018,122.8900018,space,7.2848466,,,,,,,,,,,,,,,,,,,,,,,,,,,,,,,,,,,,,,,,,,,,,,,,,,,,,,,,,,,,,,,,,,,,,,,,,,,,,,,,,,,,,,,,,,,,,,,,,,,,,,,,,,,,,10,19,2,2024-11-20_12h07.57.269,uWM_experiment,2022.2.3,60.00729689
,,,,0,0,0,0,,,,,,,,,,,,,,,,,,,,,,,,,,,,,,,,,,,,,,,,,,,,,,,,,,,,,,,,,,,,,,,,,,,,,,,,,,,,,,,,,,,,,,,,,,,,,,,,,,,,,,,,,,,,,,,,,,,,,,,,,,,,,,,,,,,,,,,,,,,,,,,,,,,,,,,,,10,19,2,2024-11-20_12h07.57.269,uWM_experiment,2022.2.3,60.00729689
,,,,1,0,1,0,,,,,,,,,,,,,,,,,,,,,,,,,,,,,,,,,,,,,,,,,,,,,,,,,,,,,,,,,,,,,,,,,,,,,,,,,,,,,,,,,,,,,,,,,,,,,,,,,,,,,,,,,,,,,,,,,,,,,,,,,,,,,,,,,,,,,,,,,,,,,,,,,,,,,,,,,10,19,2,2024-11-20_12h07.57.269,uWM_experiment,2022.2.3,60.00729689
,,,,2,0,2,0,,,,,,,,,,,,,,,,,,,,,,,,,,,,,,,,,,,,,,,,,,,,,,,,,,,,,,,,,,,,,,,,,,,,,,,,,,,,,,,,,,,,,,,,,,,,,,,,,,,,,,,,,,,,,,,,,,,,,,,,,,,,,,,,,,,,,,,,,,,,,,,,,,,,,,,,,10,19,2,2024-11-20_12h07.57.269,uWM_experiment,2022.2.3,60.00729689
,,,,,,,,,,,,,,,,,,,,,,,,,,,,,,,,,,,,,,,,,,,,,,,,,,,,142.9574885,142.9574885,space,1.7452026,,,,,,,,,,,,,,,,,,,,,,,,,,,,,,,,,,,,,,,,,,,,,,,,,,,,,,,,,,,,,,,,,,,,,,,,,,,,,,,,,,,,,,,,,,,,,,,,,,,,,,,,,10,19,2,2024-11-20_12h07.57.269,uWM_experiment,2022.2.3,60.00729689
,,,,,,,,,,,,,,,,,,,,,,,,,,,,,,,,,,,,,,,,,,,,,,,,,,,,,,,,282.1294568,space,5.084464,,,,,,,,,,,,,,,,,,,,,,,,,,,,,,,,,,,,,,,,,,,,,,,,,,,,,,,,,,,,,,,,,,,,,,,,,,,,,,,,,,,,,,,,,,,,,,,,,,,,,,10,19,2,2024-11-20_12h07.57.269,uWM_experiment,2022.2.3,60.00729689
,,,,,,,,,,,,,,,,,,,,,,,,,,,,,,,,,,,,,,,,,,,,,,,,,,,,,,,,,,,287.2462827,space,29.9595575,,,,,,,,,,,,,,,,,,,,,,,,,,,,,,,,,,,,,,,,,,,,,,,,,,,,,,,,,,,,,,,,,,,,,,,,,,,,,,,,,,,,,,,,,,,,,,,,,,,10,19,2,2024-11-20_12h07.57.269,uWM_experiment,2022.2.3,60.00729689
,,,,,,,,,,,,,,,,,,,,,,,,,,,,,,,,,,,,,,,,,,,,,,,,,,,,,,,,,,,,,,317.2307893,317.2307893,317.2307893,317.2307893,317.2307893,317.2307893,space,15.2229437,,,,,,,,,,,,,,,,,,,,,,,,,,,,,,,,,,,,,,,,,,,,,,,,,,,,,,,,,,,,,,,,,,,,,,,,,,,,,,,,,,,,,,,,,,,10,19,2,2024-11-20_12h07.57.269,uWM_experiment,2022.2.3,60.00729689
,,,,,,,,,,,,,,,,,,,,,,,,,,,,,,,,,,,,,,,,,,,,,,,,,,,,,,,,,,,,,,,,,,,,,,332.4813689,332.4813689,space,4.1162699,,,,,,,,,,,,,,,,,,,,,,,,,,,,,,,,,,,,,,,,,,,,,,,,,,,,,,,,,,,,,,,,,,,,,,,,,,,,,,,,,,,,,,,10,19,2,2024-11-20_12h07.57.269,uWM_experiment,2022.2.3,60.00729689
,,,,,,,,,,,,,,,,,,,,,,,,,,,,,,,,,,,,,,,,,,,,,,,,,,,,,,,,,,,,,,,,,,,,,,,,,,336.6148624,336.6148624,space,8.542738,,,,,,,,,,,,,,,,,,,,,,,,,,,,,,,,,,,,,,,,,,,,,,,,,,,,,,,,,,,,,,,,,,,,,,,,,,,,,,,,,,,10,19,2,2024-11-20_12h07.57.269,uWM_experiment,2022.2.3,60.00729689
,,,,,,,,0,0,0,0,0,0,0,0,,,,,,,,,,,,,,,,,,,,,,,,,,,,,,,,,,,,,,,,,,,,,,,,,,,,,,,,,,,,,,,left,0,10,30,40,352.6488442,353.6488685,353.6488685,353.6488685,None,None,4,0,3.2525719,,,,,,,,,,,,,,,,,,,,,,,,,,,,,,,,,,,,,,,,,,,,,,,,,,,,,,,,,,,,,,,,,,,,,10,19,2,2024-11-20_12h07.57.269,uWM_experiment,2022.2.3,60.00729689
,,,,,,,,0,0,0,0,1,0,1,0,,,,,,,,,,,,,,,,,,,,,,,,,,,,,,,,,,,,,,,,,,,,,,,,,,,,,,,,,,,,,,,right,0,100,-30,70,363.5659133,364.5659524,364.5659524,364.5659524,None,None,4,0,1.0794439,364.5659524,,,,,,,,,,,,,,,,,,,,,,,,,,,,,,,,,,,,,,,,,,,,,,,,,,,,,,,,,,,,,,,,,,,,10,19,2,2024-11-20_12h07.57.269,uWM_experiment,2022.2.3,60.00729689
,,,,,,,,0,0,0,0,2,0,2,0,,,,,,,,,,,,,,,,,,,,,,,,,,,,,,,,,,,,,,,,,,,,,,,,,,,,,,,,,,,,,,,right,0,130,-30,100,375.3997302,376.3997345,376.3997345,376.3997345,None,None,4,0,1.4457067,,,,,,,,,,,,,,,,,,,,,,,,,,,,,,,,,,,,,,,,,,,,,,,,,,,,,,,,,,,,,,,,,,,,,10,19,2,2024-11-20_12h07.57.269,uWM_experiment,2022.2.3,60.00729689
,,,,,,,,0,0,0,0,3,0,3,0,,,,,,,,,,,,,,,,,,,,,,,,,,,,,,,,,,,,,,,,,,,,,,,,,,,,,,,,,,,,,,,left,1,40,-30,10,384.2500544,385.2500757,385.2500757,385.2500757,None,None,4,0,0.899295,385.2500757,,,,,,,,,,,,,,,,,,,,,,,,,,,,,,,,,,,,,,,,,,,,,,,,,,,,,,,,,,,,,,,,,,,,10,19,2,2024-11-20_12h07.57.269,uWM_experiment,2022.2.3,60.00729689
,,,,,,,,0,0,0,0,4,0,4,0,,,,,,,,,,,,,,,,,,,,,,,,,,,,,,,,,,,,,,,,,,,,,,,,,,,,,,,,,,,,,,,left,1,130,-30,100,392.6004157,393.6004077,393.6004077,393.6004077,None,None,4,0,0.5649088,393.6004077,,,,,,,,,,,,,,,,,,,,,,,,,,,,,,,,,,,,,,,,,,,,,,,,,,,,,,,,,,,,,,,,,,,,10,19,2,2024-11-20_12h07.57.269,uWM_experiment,2022.2.3,60.00729689
,,,,,,,,0,0,0,0,5,0,5,0,,,,,,,,,,,,,,,,,,,,,,,,,,,,,,,,,,,,,,,,,,,,,,,,,,,,,,,,,,,,,,,left,1,100,-30,70,401.000682,402.0007278,402.0007278,402.0007278,None,None,4,0,0.5485939,,,,,,,,,,,,,,,,,,,,,,,,,,,,,,,,,,,,,,,,,,,,,,,,,,,,,,,,,,,,,,,,,,,,,10,19,2,2024-11-20_12h07.57.269,uWM_experiment,2022.2.3,60.00729689
,,,,,,,,0,0,0,0,,,,,,,,,,,,,,,,,,,,,,,,,,,,,,,,,,,,,,,,,,,,,,,,,,,,,,,,,,,,,,,,,,,,,,,,,,,,,,,,,,,,,,,,,,,,,,,,,,,,,,,,,,,,,,,,,,,,,,,,,,,,,,,,,,,,,,,,,,,,,,,,,,,,,10,19,2,2024-11-20_12h07.57.269,uWM_experiment,2022.2.3,60.00729689
,,,,,,,,,,,,,,,,,,,,,,,,,,,,,,,,,,,,,,,,,,,,,,,,,,,,,,,,,,,,,,,,,,,,,,,,,,,,,,,,,,,,,,,,,,,,,410.0010476,410.0010476,space,12.4761178,,,,,,,,,,,,,,,,,,,,,,,,,,,,,,,,,,,,,,,,,,,,,,,,,,,,,,,,,,,,,,,,10,19,2,2024-11-20_12h07.57.269,uWM_experiment,2022.2.3,60.00729689
,,,,,,,,,,,,,,,,0,0,0,0,,,,,,,,,,,,,,,,,,,,,,,,,,,,,,,,,,,,,,,,,,,,,,,,,,,,,,,,,,,,,,,,,,,,,,,,,,,,,,0.163244701,left,0,40,30,70,1,429.4018044,429.4018044,429.4018044,None,None,4,0,0.9232992,,,,,,,,,,,,,,,,,,,,,,,,,,,,,,,,,,,,,,,,,,,,,,,,,10,19,2,2024-11-20_12h07.57.269,uWM_experiment,2022.2.3,60.00729689
,,,,,,,,,,,,,,,,1,0,1,0,,,,,,,,,,,,,,,,,,,,,,,,,,,,,,,,,,,,,,,,,,,,,,,,,,,,,,,,,,,,,,,,,,,,,,,,,,,,,,0.1,left,1,10,-30,-20,2,436.7687366,436.7687366,436.7687366,None,None,4,0,0.5163522,0,,,,,,,,,,,,,,,,,,,,,,,,,,,,,,,,,,,,,,,,,,,,,,,,10,19,2,2024-11-20_12h07.57.269,uWM_experiment,2022.2.3,60.00729689
,,,,,,,,,,,,,,,,2,0,2,0,,,,,,,,,,,,,,,,,,,,,,,,,,,,,,,,,,,,,,,,,,,,,,,,,,,,,,,,,,,,,,,,,,,,,,,,,,,,,,0.153244701,left,1,70,-30,40,1,444.9524118,444.9524118,444.9524118,None,None,4,0,0.8365688,0,,,,,,,,,,,,,,,,,,,,,,,,,,,,,,,,,,,,,,,,,,,,,,,,10,19,2,2024-11-20_12h07.57.269,uWM_experiment,2022.2.3,60.00729689
,,,,,,,,,,,,,,,,3,0,3,0,,,,,,,,,,,,,,,,,,,,,,,,,,,,,,,,,,,,,,,,,,,,,,,,,,,,,,,,,,,,,,,,,,,,,,,,,,,,,,0.1,left,1,100,-30,70,2,452.5527011,452.5527011,452.5527011,None,None,4,0,0.7002832,0,,,,,,,,,,,,,,,,,,,,,,,,,,,,,,,,,,,,,,,,,,,,,,,,10,19,2,2024-11-20_12h07.57.269,uWM_experiment,2022.2.3,60.00729689
,,,,,,,,,,,,,,,,4,0,4,0,,,,,,,,,,,,,,,,,,,,,,,,,,,,,,,,,,,,,,,,,,,,,,,,,,,,,,,,,,,,,,,,,,,,,,,,,,,,,,0.143244701,right,1,130,30,160,1,459.6196405,459.6196405,459.6196405,None,None,4,0,0.6012474,0,,,,,,,,,,,,,,,,,,,,,,,,,,,,,,,,,,,,,,,,,,,,,,,,10,19,2,2024-11-20_12h07.57.269,uWM_experiment,2022.2.3,60.00729689
,,,,,,,,,,,,,,,,5,0,5,0,,,,,,,,,,,,,,,,,,,,,,,,,,,,,,,,,,,,,,,,,,,,,,,,,,,,,,,,,,,,,,,,,,,,,,,,,,,,,,0.1,left,0,160,30,190,2,468.1699533,468.1699533,468.1699533,None,None,4,0,0.88294,0,,,,,,,,,,,,,,,,,,,,,,,,,,,,,,,,,,,,,,,,,,,,,,,,10,19,2,2024-11-20_12h07.57.269,uWM_experiment,2022.2.3,60.00729689
,,,,,,,,,,,,,,,,,,,,,,,,,,,,,,,,,,,,,,,,,,,,,,,,,,,,,,,,,,,,,,,,,,,,,,,,,,,,,,,,,,,,,,,,,,,,,,,,,,,,,,,,,,,,,,,,,469.0699943,470.0533511,space,3.5355563,,,,,,,,,,,,,,,,,,,,,,,,,,,,,,,,,,,,,,,,,,,,10,19,2,2024-11-20_12h07.57.269,uWM_experiment,2022.2.3,60.00729689
,,,,,,,,,,,,,,,,,,,,0,0,0,0,0,0,0,0,,,,,,,,,,,,,,,,,,,,,,,,,,,,,,,,,,,,,,,,,,,,,,,,,,,,,,,,,,,,,,,,,,,,,,0.143244701,,,,,,,,,,,,,,,,,,,,473.6201659,474.3201902,474.6035278,475.3035562,475.6035925,476.3035982,476.3035982,476.6536319,right,0,10,-30,-20,1,485.2706207,485.2706207,485.2706207,None,None,4,0,9.262142,,,,,,,,,,,,,,,,,,,,,,10,19,2,2024-11-20_12h07.57.269,uWM_experiment,2022.2.3,60.00729689
,,,,,,,,,,,,,,,,,,,,0,0,0,0,1,0,1,0,,,,,,,,,,,,,,,,,,,,,,,,,,,,,,,,,,,,,,,,,,,,,,,,,,,,,,,,,,,,,,,,,,,,,,0.133244701,,,,,,,,,,,,,,,,,,,,,,,,,,,,left,1,130,-30,100,1,505.7880597,505.7880597,505.7880597,None,None,4,0,0.9365688,,,,,,,,,,,,,,,,,,,,,,10,19,2,2024-11-20_12h07.57.269,uWM_experiment,2022.2.3,60.00729689
,,,,,,,,,,,,,,,,,,,,0,0,0,0,2,0,2,0,,,,,,,,,,,,,,,,,,,,,,,,,,,,,,,,,,,,,,,,,,,,,,,,,,,,,,,,,,,,,,,,,,,,,,0.123244701,,,,,,,,,,,,,,,,,,,,,,,,,,,,left,1,40,-30,10,1,516.4218436,516.4218436,516.4218436,None,None,4,0,0.478817,,,,,,,,,,,,,,,,,,,,,,10,19,2,2024-11-20_12h07.57.269,uWM_experiment,2022.2.3,60.00729689
,,,,,,,,,,,,,,,,,,,,0,0,0,0,3,0,3,0,,,,,,,,,,,,,,,,,,,,,,,,,,,,,,,,,,,,,,,,,,,,,,,,,,,,,,,,,,,,,,,,,,,,,,0.113244701,,,,,,,,,,,,,,,,,,,,,,,,,,,,right,1,10,30,40,1,523.8054514,523.8054514,523.8054514,None,None,4,0,0.5433981,,,,,,,,,,,,,,,,,,,,,,10,19,2,2024-11-20_12h07.57.269,uWM_experiment,2022.2.3,60.00729689
,,,,,,,,,,,,,,,,,,,,0,0,0,0,4,0,4,0,,,,,,,,,,,,,,,,,,,,,,,,,,,,,,,,,,,,,,,,,,,,,,,,,,,,,,,,,,,,,,,,,,,,,,0.103244701,,,,,,,,,,,,,,,,,,,,,,,,,,,,left,1,160,-30,130,1,531.8890809,531.8890809,531.8890809,None,None,4,0,0.4354122,,,,,,,,,,,,,,,,,,,,,,10,19,2,2024-11-20_12h07.57.269,uWM_experiment,2022.2.3,60.00729689
,,,,,,,,,,,,,,,,,,,,0,0,0,0,5,0,5,0,,,,,,,,,,,,,,,,,,,,,,,,,,,,,,,,,,,,,,,,,,,,,,,,,,,,,,,,,,,,,,,,,,,,,,0.093244701,,,,,,,,,,,,,,,,,,,,,,,,,,,,left,1,40,-30,10,1,539.3726965,539.3726965,539.3726965,None,None,4,0,0.5278766,,,,,,,,,,,,,,,,,,,,,,10,19,2,2024-11-20_12h07.57.269,uWM_experiment,2022.2.3,60.00729689
,,,,,,,,,,,,,,,,,,,,0,0,0,0,6,0,6,0,,,,,,,,,,,,,,,,,,,,,,,,,,,,,,,,,,,,,,,,,,,,,,,,,,,,,,,,,,,,,,,,,,,,,,0.083244701,,,,,,,,,,,,,,,,,,,,,,,,,,,,right,1,160,30,190,1,546.1896563,546.1896563,546.1896563,None,None,4,0,5.9107683,,,,,,,,,,,,,,,,,,,,,,10,19,2,2024-11-20_12h07.57.269,uWM_experiment,2022.2.3,60.00729689
,,,,,,,,,,,,,,,,,,,,0,0,0,0,7,0,7,0,,,,,,,,,,,,,,,,,,,,,,,,,,,,,,,,,,,,,,,,,,,,,,,,,,,,,,,,,,,,,,,,,,,,,,0.073244701,,,,,,,,,,,,,,,,,,,,,,,,,,,,right,1,10,30,40,1,558.7401425,558.7401425,558.7401425,None,None,4,0,0.720245,,,,,,,,,,,,,,,,,,,,,,10,19,2,2024-11-20_12h07.57.269,uWM_experiment,2022.2.3,60.00729689
,,,,,,,,,,,,,,,,,,,,0,0,0,0,8,0,8,0,,,,,,,,,,,,,,,,,,,,,,,,,,,,,,,,,,,,,,,,,,,,,,,,,,,,,,,,,,,,,,,,,,,,,,0.063244701,,,,,,,,,,,,,,,,,,,,,,,,,,,,right,1,100,30,130,1,566.4404346,566.4404346,566.4404346,None,None,4,0,0.4358867,,,,,,,,,,,,,,,,,,,,,,10,19,2,2024-11-20_12h07.57.269,uWM_experiment,2022.2.3,60.00729689
,,,,,,,,,,,,,,,,,,,,0,0,0,0,9,0,9,0,,,,,,,,,,,,,,,,,,,,,,,,,,,,,,,,,,,,,,,,,,,,,,,,,,,,,,,,,,,,,,,,,,,,,,0.053244701,,,,,,,,,,,,,,,,,,,,,,,,,,,,right,1,10,30,40,1,574.1073757,574.1073757,574.1073757,None,None,4,0,0.6250164,,,,,,,,,,,,,,,,,,,,,,10,19,2,2024-11-20_12h07.57.269,uWM_experiment,2022.2.3,60.00729689
,,,,,,,,,,,,,,,,,,,,0,0,0,0,10,0,10,0,,,,,,,,,,,,,,,,,,,,,,,,,,,,,,,,,,,,,,,,,,,,,,,,,,,,,,,,,,,,,,,,,,,,,,0.043244701,,,,,,,,,,,,,,,,,,,,,,,,,,,,left,1,40,-30,10,1,580.8576508,580.8576508,580.8576508,None,None,4,0,0.4266467,,,,,,,,,,,,,,,,,,,,,,10,19,2,2024-11-20_12h07.57.269,uWM_experiment,2022.2.3,60.00729689
,,,,,,,,,,,,,,,,,,,,0,0,0,0,11,0,11,0,,,,,,,,,,,,,,,,,,,,,,,,,,,,,,,,,,,,,,,,,,,,,,,,,,,,,,,,,,,,,,,,,,,,,,0.033244701,,,,,,,,,,,,,,,,,,,,,,,,,,,,left,1,40,-30,10,1,587.3245605,587.3245605,587.3245605,None,None,4,0,0.4957454,,,,,,,,,,,,,,,,,,,,,,10,19,2,2024-11-20_12h07.57.269,uWM_experiment,2022.2.3,60.00729689
,,,,,,,,,,,,,,,,,,,,0,0,0,0,12,0,12,0,,,,,,,,,,,,,,,,,,,,,,,,,,,,,,,,,,,,,,,,,,,,,,,,,,,,,,,,,,,,,,,,,,,,,,0.023244701,,,,,,,,,,,,,,,,,,,,,,,,,,,,left,1,40,-30,10,1,593.9914922,593.9914922,593.9914922,None,None,4,0,0.9087087,,,,,,,,,,,,,,,,,,,,,,10,19,2,2024-11-20_12h07.57.269,uWM_experiment,2022.2.3,60.00729689
,,,,,,,,,,,,,,,,,,,,0,0,0,0,13,0,13,0,,,,,,,,,,,,,,,,,,,,,,,,,,,,,,,,,,,,,,,,,,,,,,,,,,,,,,,,,,,,,,,,,,,,,,0,,,,,,,,,,,,,,,,,,,,,,,,,,,,left,0,160,30,190,0,601.3917794,601.3917794,601.3917794,None,None,4,0,0.4043508,,,,,,,,,,,,,,,,,,,,,,10,19,2,2024-11-20_12h07.57.269,uWM_experiment,2022.2.3,60.00729689
,,,,,,,,,,,,,,,,,,,,0,0,0,0,14,0,14,0,,,,,,,,,,,,,,,,,,,,,,,,,,,,,,,,,,,,,,,,,,,,,,,,,,,,,,,,,,,,,,,,,,,,,,0.013244701,,,,,,,,,,,,,,,,,,,,,,,,,,,,left,0,160,30,190,1,608.6420508,608.6420508,608.6420508,None,None,4,0,0.5941027,,,,,,,,,,,,,,,,,,,,,,10,19,2,2024-11-20_12h07.57.269,uWM_experiment,2022.2.3,60.00729689
,,,,,,,,,,,,,,,,,,,,0,0,0,0,15,0,15,0,,,,,,,,,,,,,,,,,,,,,,,,,,,,,,,,,,,,,,,,,,,,,,,,,,,,,,,,,,,,,,,,,,,,,,0.005,,,,,,,,,,,,,,,,,,,,,,,,,,,,right,0,100,-30,70,1,615.5923361,615.5923361,615.5923361,None,None,4,0,0.5077466,,,,,,,,,,,,,,,,,,,,,,10,19,2,2024-11-20_12h07.57.269,uWM_experiment,2022.2.3,60.00729689
,,,,,,,,,,,,,,,,,,,,0,0,0,0,16,0,16,0,,,,,,,,,,,,,,,,,,,,,,,,,,,,,,,,,,,,,,,,,,,,,,,,,,,,,,,,,,,,,,,,,,,,,,0.005,,,,,,,,,,,,,,,,,,,,,,,,,,,,left,1,40,-30,10,1,622.7425749,622.7425749,622.7425749,None,None,4,0,0.4775059,,,,,,,,,,,,,,,,,,,,,,10,19,2,2024-11-20_12h07.57.269,uWM_experiment,2022.2.3,60.00729689
,,,,,,,,,,,,,,,,,,,,0,0,0,0,17,0,17,0,,,,,,,,,,,,,,,,,,,,,,,,,,,,,,,,,,,,,,,,,,,,,,,,,,,,,,,,,,,,,,,,,,,,,,0.1,,,,,,,,,,,,,,,,,,,,,,,,,,,,right,0,70,-30,40,2,628.5928253,628.5928253,628.5928253,None,None,4,0,0.6752108,,,,,,,,,,,,,,,,,,,,,,10,19,2,2024-11-20_12h07.57.269,uWM_experiment,2022.2.3,60.00729689
,,,,,,,,,,,,,,,,,,,,0,0,0,0,18,0,18,0,,,,,,,,,,,,,,,,,,,,,,,,,,,,,,,,,,,,,,,,,,,,,,,,,,,,,,,,,,,,,,,,,,,,,,0,,,,,,,,,,,,,,,,,,,,,,,,,,,,left,0,160,30,190,0,635.1764123,635.1764123,635.1764123,None,None,4,0,0.4115848,,,,,,,,,,,,,,,,,,,,,,10,19,2,2024-11-20_12h07.57.269,uWM_experiment,2022.2.3,60.00729689
,,,,,,,,,,,,,,,,,,,,0,0,0,0,19,0,19,0,,,,,,,,,,,,,,,,,,,,,,,,,,,,,,,,,,,,,,,,,,,,,,,,,,,,,,,,,,,,,,,,,,,,,,0,,,,,,,,,,,,,,,,,,,,,,,,,,,,left,1,130,-30,100,0,645.9601717,645.9601717,645.9601717,None,None,4,0,0.7237998,,,,,,,,,,,,,,,,,,,,,,10,19,2,2024-11-20_12h07.57.269,uWM_experiment,2022.2.3,60.00729689
,,,,,,,,,,,,,,,,,,,,0,0,0,0,20,0,20,0,,,,,,,,,,,,,,,,,,,,,,,,,,,,,,,,,,,,,,,,,,,,,,,,,,,,,,,,,,,,,,,,,,,,,,0.005,,,,,,,,,,,,,,,,,,,,,,,,,,,,right,1,40,30,70,1,653.4437901,653.4437901,653.4437901,None,None,4,0,1.5120992,,,,,,,,,,,,,,,,,,,,,,10,19,2,2024-11-20_12h07.57.269,uWM_experiment,2022.2.3,60.00729689
,,,,,,,,,,,,,,,,,,,,0,0,0,0,21,0,21,0,,,,,,,,,,,,,,,,,,,,,,,,,,,,,,,,,,,,,,,,,,,,,,,,,,,,,,,,,,,,,,,,,,,,,,0.005,,,,,,,,,,,,,,,,,,,,,,,,,,,,left,1,70,-30,40,1,661.3774338,661.3774338,661.3774338,None,None,4,0,0.5304221,,,,,,,,,,,,,,,,,,,,,,10,19,2,2024-11-20_12h07.57.269,uWM_experiment,2022.2.3,60.00729689
,,,,,,,,,,,,,,,,,,,,0,0,0,0,22,0,22,0,,,,,,,,,,,,,,,,,,,,,,,,,,,,,,,,,,,,,,,,,,,,,,,,,,,,,,,,,,,,,,,,,,,,,,0.005,,,,,,,,,,,,,,,,,,,,,,,,,,,,left,0,130,30,160,1,667.6443338,667.6443338,667.6443338,None,None,4,0,0.4234839,,,,,,,,,,,,,,,,,,,,,,10,19,2,2024-11-20_12h07.57.269,uWM_experiment,2022.2.3,60.00729689
,,,,,,,,,,,,,,,,,,,,0,0,0,0,23,0,23,0,,,,,,,,,,,,,,,,,,,,,,,,,,,,,,,,,,,,,,,,,,,,,,,,,,,,,,,,,,,,,,,,,,,,,,0.005,,,,,,,,,,,,,,,,,,,,,,,,,,,,left,1,160,-30,130,1,673.8779575,673.8779575,673.8779575,None,None,4,0,0.4458527,,,,,,,,,,,,,,,,,,,,,,10,19,2,2024-11-20_12h07.57.269,uWM_experiment,2022.2.3,60.00729689
,,,,,,,,,,,,,,,,,,,,0,0,0,0,,,,,0,0,0,0,,,,,,,,,,,,,,,,,,,,,,,,,,,,,,,,,,,,,,,,,,,,,,,,,,,,,,,,,,,,,,,,,,,,,,,,,,,,,,,,,,,,,,,,,,,,,,,,,,,,,,,,,,,,674.3445423,674.3445423,space,28.0510992,None,None,,,,,,,,,,,,,,,,10,19,2,2024-11-20_12h07.57.269,uWM_experiment,2022.2.3,60.00729689
,,,,,,,,,,,,,,,,,,,,0,0,0,0,,,,,1,0,1,0,,,,,,,,,,,,,,,,,,,,,,,,,,,,,,,,,,,,,,,,,,,,,,,,,,,,,,,,,,,,,,,,,,,,,,,,,,,,,,,,,,,,,,,,,,,,,,,,,,,,,,,,,,,,,,,,,,,,,,,,,,,,,,,,,10,19,2,2024-11-20_12h07.57.269,uWM_experiment,2022.2.3,60.00729689
,,,,,,,,,,,,,,,,,,,,0,0,0,0,,,,,2,0,2,0,,,,,,,,,,,,,,,,,,,,,,,,,,,,,,,,,,,,,,,,,,,,,,,,,,,,,,,,,,,,,,,,,,,,,,,,,,,,,,,,,,,,,,,,,,,,,,,,,,,,,,,,,,,,,,,,,,,,,,,,,,,,,,,,,10,19,2,2024-11-20_12h07.57.269,uWM_experiment,2022.2.3,60.00729689
,,,,,,,,,,,,,,,,,,,,1,0,1,0,0,0,0,0,,,,,,,,,,,,,,,,,,,,,,,,,,,,,,,,,,,,,,,,,,,,,,,,,,,,,,,,,,,,,,,,,,,,,,0.005,,,,,,,,,,,,,,,,,,,,702.4123162,703.112345,703.4123587,704.1124133,704.4123957,705.112429,705.112429,705.4291485,left,1,130,-30,100,1,710.5960593,710.5960593,710.5960593,None,None,4,0,0.6555302,,,,,,,None,,,,,,,,,,,,,,,10,19,2,2024-11-20_12h07.57.269,uWM_experiment,2022.2.3,60.00729689
,,,,,,,,,,,,,,,,,,,,1,0,1,0,1,0,1,0,,,,,,,,,,,,,,,,,,,,,,,,,,,,,,,,,,,,,,,,,,,,,,,,,,,,,,,,,,,,,,,,,,,,,,0.005,,,,,,,,,,,,,,,,,,,,,,,,,,,,right,0,70,-30,40,1,716.9629124,716.9629124,716.9629124,None,None,4,0,0.5286955,,,,,,,,,,,,,,,,,,,,,,10,19,2,2024-11-20_12h07.57.269,uWM_experiment,2022.2.3,60.00729689
,,,,,,,,,,,,,,,,,,,,1,0,1,0,2,0,2,0,,,,,,,,,,,,,,,,,,,,,,,,,,,,,,,,,,,,,,,,,,,,,,,,,,,,,,,,,,,,,,,,,,,,,,0.005,,,,,,,,,,,,,,,,,,,,,,,,,,,,left,0,70,30,100,1,723.4131371,723.4131371,723.4131371,None,None,4,0,0.4463697,,,,,,,,,,,,,,,,,,,,,,10,19,2,2024-11-20_12h07.57.269,uWM_experiment,2022.2.3,60.00729689
,,,,,,,,,,,,,,,,,,,,1,0,1,0,3,0,3,0,,,,,,,,,,,,,,,,,,,,,,,,,,,,,,,,,,,,,,,,,,,,,,,,,,,,,,,,,,,,,,,,,,,,,,0.005,,,,,,,,,,,,,,,,,,,,,,,,,,,,left,0,70,30,100,1,729.7300576,729.7300576,729.7300576,None,None,4,0,0.5853639,,,,,,,,,,,,,,,,,,,,,,10,19,2,2024-11-20_12h07.57.269,uWM_experiment,2022.2.3,60.00729689
,,,,,,,,,,,,,,,,,,,,1,0,1,0,4,0,4,0,,,,,,,,,,,,,,,,,,,,,,,,,,,,,,,,,,,,,,,,,,,,,,,,,,,,,,,,,,,,,,,,,,,,,,0.005,,,,,,,,,,,,,,,,,,,,,,,,,,,,right,1,130,30,160,1,736.2470287,736.2470287,736.2470287,None,None,4,0,0.4523691,,,,,,,,,,,,,,,,,,,,,,10,19,2,2024-11-20_12h07.57.269,uWM_experiment,2022.2.3,60.00729689
,,,,,,,,,,,,,,,,,,,,1,0,1,0,5,0,5,0,,,,,,,,,,,,,,,,,,,,,,,,,,,,,,,,,,,,,,,,,,,,,,,,,,,,,,,,,,,,,,,,,,,,,,0.005,,,,,,,,,,,,,,,,,,,,,,,,,,,,left,0,130,30,160,1,743.6639048,743.6639048,743.6639048,None,None,4,0,0.4434948,,,,,,,,,,,,,,,,,,,,,,10,19,2,2024-11-20_12h07.57.269,uWM_experiment,2022.2.3,60.00729689
,,,,,,,,,,,,,,,,,,,,1,0,1,0,6,0,6,0,,,,,,,,,,,,,,,,,,,,,,,,,,,,,,,,,,,,,,,,,,,,,,,,,,,,,,,,,,,,,,,,,,,,,,0.005,,,,,,,,,,,,,,,,,,,,,,,,,,,,left,1,130,-30,100,1,749.8808244,749.8808244,749.8808244,None,None,4,0,0.4505885,,,,,,,,,,,,,,,,,,,,,,10,19,2,2024-11-20_12h07.57.269,uWM_experiment,2022.2.3,60.00729689
,,,,,,,,,,,,,,,,,,,,1,0,1,0,7,0,7,0,,,,,,,,,,,,,,,,,,,,,,,,,,,,,,,,,,,,,,,,,,,,,,,,,,,,,,,,,,,,,,,,,,,,,,0.005,,,,,,,,,,,,,,,,,,,,,,,,,,,,right,1,130,30,160,1,756.3144015,756.3144015,756.3144015,None,None,4,0,0.504855,,,,,,,,,,,,,,,,,,,,,,10,19,2,2024-11-20_12h07.57.269,uWM_experiment,2022.2.3,60.00729689
,,,,,,,,,,,,,,,,,,,,1,0,1,0,8,0,8,0,,,,,,,,,,,,,,,,,,,,,,,,,,,,,,,,,,,,,,,,,,,,,,,,,,,,,,,,,,,,,,,,,,,,,,0.005,,,,,,,,,,,,,,,,,,,,,,,,,,,,right,0,100,-30,70,1,762.8146342,762.8146342,762.8146342,None,None,4,0,0.4686382,,,,,,,,,,,,,,,,,,,,,,10,19,2,2024-11-20_12h07.57.269,uWM_experiment,2022.2.3,60.00729689
,,,,,,,,,,,,,,,,,,,,1,0,1,0,9,0,9,0,,,,,,,,,,,,,,,,,,,,,,,,,,,,,,,,,,,,,,,,,,,,,,,,,,,,,,,,,,,,,,,,,,,,,,0.005,,,,,,,,,,,,,,,,,,,,,,,,,,,,right,1,40,30,70,1,769.6149274,769.6149274,769.6149274,None,None,4,0,0.4923497,,,,,,,,,,,,,,,,,,,,,,10,19,2,2024-11-20_12h07.57.269,uWM_experiment,2022.2.3,60.00729689
,,,,,,,,,,,,,,,,,,,,1,0,1,0,10,0,10,0,,,,,,,,,,,,,,,,,,,,,,,,,,,,,,,,,,,,,,,,,,,,,,,,,,,,,,,,,,,,,,,,,,,,,,0.005,,,,,,,,,,,,,,,,,,,,,,,,,,,,left,0,160,30,190,1,775.9485093,775.9485093,775.9485093,None,None,4,0,0.4147669,,,,,,,,,,,,,,,,,,,,,,10,19,2,2024-11-20_12h07.57.269,uWM_experiment,2022.2.3,60.00729689
,,,,,,,,,,,,,,,,,,,,1,0,1,0,11,0,11,0,,,,,,,,,,,,,,,,,,,,,,,,,,,,,,,,,,,,,,,,,,,,,,,,,,,,,,,,,,,,,,,,,,,,,,0.005,,,,,,,,,,,,,,,,,,,,,,,,,,,,left,1,10,-30,-20,1,782.0987232,782.0987232,782.0987232,None,None,4,0,0.464447,,,,,,,,,,,,,,,,,,,,,,10,19,2,2024-11-20_12h07.57.269,uWM_experiment,2022.2.3,60.00729689
,,,,,,,,,,,,,,,,,,,,1,0,1,0,12,0,12,0,,,,,,,,,,,,,,,,,,,,,,,,,,,,,,,,,,,,,,,,,,,,,,,,,,,,,,,,,,,,,,,,,,,,,,0,,,,,,,,,,,,,,,,,,,,,,,,,,,,left,0,100,30,130,0,789.8990261,789.8990261,789.8990261,None,None,4,0,0.4720736,,,,,,,,,,,,,,,,,,,,,,10,19,2,2024-11-20_12h07.57.269,uWM_experiment,2022.2.3,60.00729689
,,,,,,,,,,,,,,,,,,,,1,0,1,0,13,0,13,0,,,,,,,,,,,,,,,,,,,,,,,,,,,,,,,,,,,,,,,,,,,,,,,,,,,,,,,,,,,,,,,,,,,,,,0,,,,,,,,,,,,,,,,,,,,,,,,,,,,right,1,70,30,100,0,798.8160144,798.8160144,798.8160144,None,None,4,0,0.4431283,,,,,,,,,,,,,,,,,,,,,,10,19,2,2024-11-20_12h07.57.269,uWM_experiment,2022.2.3,60.00729689
,,,,,,,,,,,,,,,,,,,,1,0,1,0,14,0,14,0,,,,,,,,,,,,,,,,,,,,,,,,,,,,,,,,,,,,,,,,,,,,,,,,,,,,,,,,,,,,,,,,,,,,,,0.1,,,,,,,,,,,,,,,,,,,,,,,,,,,,right,1,130,30,160,2,809.8831467,809.8831467,809.8831467,None,None,4,0,0.7678576,,,,,,,,,,,,,,,,,,,,,,10,19,2,2024-11-20_12h07.57.269,uWM_experiment,2022.2.3,60.00729689
,,,,,,,,,,,,,,,,,,,,1,0,1,0,15,0,15,0,,,,,,,,,,,,,,,,,,,,,,,,,,,,,,,,,,,,,,,,,,,,,,,,,,,,,,,,,,,,,,,,,,,,,,0.005,,,,,,,,,,,,,,,,,,,,,,,,,,,,left,0,160,30,190,1,817.7167549,817.7167549,817.7167549,None,None,4,0,0.4783224,,,,,,,,,,,,,,,,,,,,,,10,19,2,2024-11-20_12h07.57.269,uWM_experiment,2022.2.3,60.00729689
,,,,,,,,,,,,,,,,,,,,1,0,1,0,16,0,16,0,,,,,,,,,,,,,,,,,,,,,,,,,,,,,,,,,,,,,,,,,,,,,,,,,,,,,,,,,,,,,,,,,,,,,,0.005,,,,,,,,,,,,,,,,,,,,,,,,,,,,left,1,160,-30,130,1,824.0836966,824.0836966,824.0836966,None,None,4,0,0.4632793,,,,,,,,,,,,,,,,,,,,,,10,19,2,2024-11-20_12h07.57.269,uWM_experiment,2022.2.3,60.00729689
,,,,,,,,,,,,,,,,,,,,1,0,1,0,17,0,17,0,,,,,,,,,,,,,,,,,,,,,,,,,,,,,,,,,,,,,,,,,,,,,,,,,,,,,,,,,,,,,,,,,,,,,,0.1,,,,,,,,,,,,,,,,,,,,,,,,,,,,left,0,100,30,130,2,833.1673679,833.1673679,833.1673679,None,None,4,0,0.5395821,,,,,,,,,,,,,,,,,,,,,,10,19,2,2024-11-20_12h07.57.269,uWM_experiment,2022.2.3,60.00729689
,,,,,,,,,,,,,,,,,,,,1,0,1,0,18,0,18,0,,,,,,,,,,,,,,,,,,,,,,,,,,,,,,,,,,,,,,,,,,,,,,,,,,,,,,,,,,,,,,,,,,,,,,0.005,,,,,,,,,,,,,,,,,,,,,,,,,,,,right,1,40,30,70,1,839.4509335,839.4509335,839.4509335,None,None,4,0,0.5599657,,,,,,,,,,,,,,,,,,,,,,10,19,2,2024-11-20_12h07.57.269,uWM_experiment,2022.2.3,60.00729689
,,,,,,,,,,,,,,,,,,,,1,0,1,0,19,0,19,0,,,,,,,,,,,,,,,,,,,,,,,,,,,,,,,,,,,,,,,,,,,,,,,,,,,,,,,,,,,,,,,,,,,,,,0.005,,,,,,,,,,,,,,,,,,,,,,,,,,,,left,1,160,-30,130,1,845.8011815,845.8011815,845.8011815,None,None,4,0,0.4337527,,,,,,,,,,,,,,,,,,,,,,10,19,2,2024-11-20_12h07.57.269,uWM_experiment,2022.2.3,60.00729689
,,,,,,,,,,,,,,,,,,,,1,0,1,0,20,0,20,0,,,,,,,,,,,,,,,,,,,,,,,,,,,,,,,,,,,,,,,,,,,,,,,,,,,,,,,,,,,,,,,,,,,,,,0,,,,,,,,,,,,,,,,,,,,,,,,,,,,right,1,10,30,40,0,852.3014199,852.3014199,852.3014199,None,None,4,0,0.4853634,,,,,,,,,,,,,,,,,,,,,,10,19,2,2024-11-20_12h07.57.269,uWM_experiment,2022.2.3,60.00729689
,,,,,,,,,,,,,,,,,,,,1,0,1,0,21,0,21,0,,,,,,,,,,,,,,,,,,,,,,,,,,,,,,,,,,,,,,,,,,,,,,,,,,,,,,,,,,,,,,,,,,,,,,0.005,,,,,,,,,,,,,,,,,,,,,,,,,,,,right,0,70,-30,40,1,858.5683496,858.5683496,858.5683496,None,None,4,0,0.5304765,,,,,,,,,,,,,,,,,,,,,,10,19,2,2024-11-20_12h07.57.269,uWM_experiment,2022.2.3,60.00729689
,,,,,,,,,,,,,,,,,,,,1,0,1,0,22,0,22,0,,,,,,,,,,,,,,,,,,,,,,,,,,,,,,,,,,,,,,,,,,,,,,,,,,,,,,,,,,,,,,,,,,,,,,0.005,,,,,,,,,,,,,,,,,,,,,,,,,,,,right,0,100,-30,70,1,865.0019191,865.0019191,865.0019191,None,None,4,0,0.5527558,,,,,,,,,,,,,,,,,,,,,,10,19,2,2024-11-20_12h07.57.269,uWM_experiment,2022.2.3,60.00729689
,,,,,,,,,,,,,,,,,,,,1,0,1,0,23,0,23,0,,,,,,,,,,,,,,,,,,,,,,,,,,,,,,,,,,,,,,,,,,,,,,,,,,,,,,,,,,,,,,,,,,,,,,0,,,,,,,,,,,,,,,,,,,,,,,,,,,,left,1,130,-30,100,0,871.9855025,871.9855025,871.9855025,None,None,4,0,0.4412452,,,,,,,,,,,,,,,,,,,,,,10,19,2,2024-11-20_12h07.57.269,uWM_experiment,2022.2.3,60.00729689
,,,,,,,,,,,,,,,,,,,,1,0,1,0,,,,,0,0,0,0,,,,,,,,,,,,,,,,,,,,,,,,,,,,,,,,,,,,,,,,,,,,,,,,,,,,,,,,,,,,,,,,,,,,,,,,,,,,,,,,,,,,,,,,,,,,,,,,,,,,,,,,,,,,872.4522196,872.4522196,space,47.0382941,None,None,,,,,,,,,,,,,,,,10,19,2,2024-11-20_12h07.57.269,uWM_experiment,2022.2.3,60.00729689
,,,,,,,,,,,,,,,,,,,,1,0,1,0,,,,,1,0,1,0,,,,,,,,,,,,,,,,,,,,,,,,,,,,,,,,,,,,,,,,,,,,,,,,,,,,,,,,,,,,,,,,,,,,,,,,,,,,,,,,,,,,,,,,,,,,,,,,,,,,,,,,,,,,,,,,,,,,,,,,,,,,,,,,,10,19,2,2024-11-20_12h07.57.269,uWM_experiment,2022.2.3,60.00729689
,,,,,,,,,,,,,,,,,,,,1,0,1,0,,,,,2,0,2,0,,,,,,,,,,,,,,,,,,,,,,,,,,,,,,,,,,,,,,,,,,,,,,,,,,,,,,,,,,,,,,,,,,,,,,,,,,,,,,,,,,,,,,,,,,,,,,,,,,,,,,,,,,,,,,,,,,,,,,,,,,,,,,,,,10,19,2,2024-11-20_12h07.57.269,uWM_experiment,2022.2.3,60.00729689
,,,,,,,,,,,,,,,,,,,,2,0,2,0,0,0,0,0,,,,,,,,,,,,,,,,,,,,,,,,,,,,,,,,,,,,,,,,,,,,,,,,,,,,,,,,,,,,,,,,,,,,,,0.005,,,,,,,,,,,,,,,,,,,,919.5207308,920.2207024,920.5207214,921.2207413,921.5207546,922.220773,922.220773,922.5374836,left,1,130,-30,100,1,928.1543519,928.1543519,928.1543519,None,None,4,0,1.4721135,,,,,,,None,,,,,,,,,,,,,,,10,19,2,2024-11-20_12h07.57.269,uWM_experiment,2022.2.3,60.00729689
,,,,,,,,,,,,,,,,,,,,2,0,2,0,1,0,1,0,,,,,,,,,,,,,,,,,,,,,,,,,,,,,,,,,,,,,,,,,,,,,,,,,,,,,,,,,,,,,,,,,,,,,,0.005,,,,,,,,,,,,,,,,,,,,,,,,,,,,right,0,40,-30,10,1,935.8046303,935.8046303,935.8046303,None,None,4,0,0.5896986,,,,,,,,,,,,,,,,,,,,,,10,19,2,2024-11-20_12h07.57.269,uWM_experiment,2022.2.3,60.00729689
,,,,,,,,,,,,,,,,,,,,2,0,2,0,2,0,2,0,,,,,,,,,,,,,,,,,,,,,,,,,,,,,,,,,,,,,,,,,,,,,,,,,,,,,,,,,,,,,,,,,,,,,,0.005,,,,,,,,,,,,,,,,,,,,,,,,,,,,left,0,160,30,190,1,942.2548944,942.2548944,942.2548944,None,None,4,0,0.4513351,,,,,,,,,,,,,,,,,,,,,,10,19,2,2024-11-20_12h07.57.269,uWM_experiment,2022.2.3,60.00729689
,,,,,,,,,,,,,,,,,,,,2,0,2,0,3,0,3,0,,,,,,,,,,,,,,,,,,,,,,,,,,,,,,,,,,,,,,,,,,,,,,,,,,,,,,,,,,,,,,,,,,,,,,0.005,,,,,,,,,,,,,,,,,,,,,,,,,,,,right,0,100,-30,70,1,948.5384744,948.5384744,948.5384744,None,None,4,0,0.5357646,,,,,,,,,,,,,,,,,,,,,,10,19,2,2024-11-20_12h07.57.269,uWM_experiment,2022.2.3,60.00729689
,,,,,,,,,,,,,,,,,,,,2,0,2,0,4,0,4,0,,,,,,,,,,,,,,,,,,,,,,,,,,,,,,,,,,,,,,,,,,,,,,,,,,,,,,,,,,,,,,,,,,,,,,0,,,,,,,,,,,,,,,,,,,,,,,,,,,,left,1,130,-30,100,0,955.1053877,955.1053877,955.1053877,None,None,4,0,0.5528325,,,,,,,,,,,,,,,,,,,,,,10,19,2,2024-11-20_12h07.57.269,uWM_experiment,2022.2.3,60.00729689
,,,,,,,,,,,,,,,,,,,,2,0,2,0,5,0,5,0,,,,,,,,,,,,,,,,,,,,,,,,,,,,,,,,,,,,,,,,,,,,,,,,,,,,,,,,,,,,,,,,,,,,,,0.005,,,,,,,,,,,,,,,,,,,,,,,,,,,,left,0,130,30,160,1,964.1724497,964.1724497,964.1724497,None,None,4,0,0.5016975,,,,,,,,,,,,,,,,,,,,,,10,19,2,2024-11-20_12h07.57.269,uWM_experiment,2022.2.3,60.00729689
,,,,,,,,,,,,,,,,,,,,2,0,2,0,6,0,6,0,,,,,,,,,,,,,,,,,,,,,,,,,,,,,,,,,,,,,,,,,,,,,,,,,,,,,,,,,,,,,,,,,,,,,,0.005,,,,,,,,,,,,,,,,,,,,,,,,,,,,right,0,160,-30,130,1,974.6895069,974.6895069,974.6895069,None,None,4,0,0.4486584,,,,,,,,,,,,,,,,,,,,,,10,19,2,2024-11-20_12h07.57.269,uWM_experiment,2022.2.3,60.00729689
,,,,,,,,,,,,,,,,,,,,2,0,2,0,7,0,7,0,,,,,,,,,,,,,,,,,,,,,,,,,,,,,,,,,,,,,,,,,,,,,,,,,,,,,,,,,,,,,,,,,,,,,,0.005,,,,,,,,,,,,,,,,,,,,,,,,,,,,left,1,40,-30,10,1,981.0563767,981.0563767,981.0563767,None,None,4,0,0.4657998,,,,,,,,,,,,,,,,,,,,,,10,19,2,2024-11-20_12h07.57.269,uWM_experiment,2022.2.3,60.00729689
,,,,,,,,,,,,,,,,,,,,2,0,2,0,8,0,8,0,,,,,,,,,,,,,,,,,,,,,,,,,,,,,,,,,,,,,,,,,,,,,,,,,,,,,,,,,,,,,,,,,,,,,,0,,,,,,,,,,,,,,,,,,,,,,,,,,,,left,1,130,-30,100,0,987.4233014,987.4233014,987.4233014,None,None,4,0,0.4670903,,,,,,,,,,,,,,,,,,,,,,10,19,2,2024-11-20_12h07.57.269,uWM_experiment,2022.2.3,60.00729689
,,,,,,,,,,,,,,,,,,,,2,0,2,0,9,0,9,0,,,,,,,,,,,,,,,,,,,,,,,,,,,,,,,,,,,,,,,,,,,,,,,,,,,,,,,,,,,,,,,,,,,,,,0.005,,,,,,,,,,,,,,,,,,,,,,,,,,,,left,0,100,30,130,1,993.9568776,993.9568776,993.9568776,None,None,4,0,0.4772815,,,,,,,,,,,,,,,,,,,,,,10,19,2,2024-11-20_12h07.57.269,uWM_experiment,2022.2.3,60.00729689
,,,,,,,,,,,,,,,,,,,,2,0,2,0,10,0,10,0,,,,,,,,,,,,,,,,,,,,,,,,,,,,,,,,,,,,,,,,,,,,,,,,,,,,,,,,,,,,,,,,,,,,,,0,,,,,,,,,,,,,,,,,,,,,,,,,,,,left,1,100,-30,70,0,1001.023856,1001.023856,1001.023856,None,None,4,0,0.4662192,,,,,,,,,,,,,,,,,,,,,,10,19,2,2024-11-20_12h07.57.269,uWM_experiment,2022.2.3,60.00729689
,,,,,,,,,,,,,,,,,,,,2,0,2,0,11,0,11,0,,,,,,,,,,,,,,,,,,,,,,,,,,,,,,,,,,,,,,,,,,,,,,,,,,,,,,,,,,,,,,,,,,,,,,0.005,,,,,,,,,,,,,,,,,,,,,,,,,,,,right,0,100,-30,70,1,1009.640828,1009.640828,1009.640828,None,None,4,0,0.5611275,,,,,,,,,,,,,,,,,,,,,,10,19,2,2024-11-20_12h07.57.269,uWM_experiment,2022.2.3,60.00729689
,,,,,,,,,,,,,,,,,,,,2,0,2,0,12,0,12,0,,,,,,,,,,,,,,,,,,,,,,,,,,,,,,,,,,,,,,,,,,,,,,,,,,,,,,,,,,,,,,,,,,,,,,0,,,,,,,,,,,,,,,,,,,,,,,,,,,,left,1,40,-30,10,0,1016.557739,1016.557739,1016.557739,None,None,4,0,0.5082563,,,,,,,,,,,,,,,,,,,,,,10,19,2,2024-11-20_12h07.57.269,uWM_experiment,2022.2.3,60.00729689
,,,,,,,,,,,,,,,,,,,,2,0,2,0,13,0,13,0,,,,,,,,,,,,,,,,,,,,,,,,,,,,,,,,,,,,,,,,,,,,,,,,,,,,,,,,,,,,,,,,,,,,,,0.005,,,,,,,,,,,,,,,,,,,,,,,,,,,,left,0,70,30,100,1,1025.491423,1025.491423,1025.491423,None,None,4,0,0.4383809,,,,,,,,,,,,,,,,,,,,,,10,19,2,2024-11-20_12h07.57.269,uWM_experiment,2022.2.3,60.00729689
,,,,,,,,,,,,,,,,,,,,2,0,2,0,14,0,14,0,,,,,,,,,,,,,,,,,,,,,,,,,,,,,,,,,,,,,,,,,,,,,,,,,,,,,,,,,,,,,,,,,,,,,,0.005,,,,,,,,,,,,,,,,,,,,,,,,,,,,right,1,100,30,130,1,1033.691728,1033.691728,1033.691728,None,None,4,0,0.4700462,,,,,,,,,,,,,,,,,,,,,,10,19,2,2024-11-20_12h07.57.269,uWM_experiment,2022.2.3,60.00729689
,,,,,,,,,,,,,,,,,,,,2,0,2,0,15,0,15,0,,,,,,,,,,,,,,,,,,,,,,,,,,,,,,,,,,,,,,,,,,,,,,,,,,,,,,,,,,,,,,,,,,,,,,0.005,,,,,,,,,,,,,,,,,,,,,,,,,,,,left,0,100,30,130,1,1040.425341,1040.425341,1040.425341,None,None,4,0,0.4804682,,,,,,,,,,,,,,,,,,,,,,10,19,2,2024-11-20_12h07.57.269,uWM_experiment,2022.2.3,60.00729689
,,,,,,,,,,,,,,,,,,,,2,0,2,0,16,0,16,0,,,,,,,,,,,,,,,,,,,,,,,,,,,,,,,,,,,,,,,,,,,,,,,,,,,,,,,,,,,,,,,,,,,,,,0.005,,,,,,,,,,,,,,,,,,,,,,,,,,,,right,1,160,30,190,1,1046.725558,1046.725558,1046.725558,None,None,4,0,0.4762069,,,,,,,,,,,,,,,,,,,,,,10,19,2,2024-11-20_12h07.57.269,uWM_experiment,2022.2.3,60.00729689
,,,,,,,,,,,,,,,,,,,,2,0,2,0,17,0,17,0,,,,,,,,,,,,,,,,,,,,,,,,,,,,,,,,,,,,,,,,,,,,,,,,,,,,,,,,,,,,,,,,,,,,,,0,,,,,,,,,,,,,,,,,,,,,,,,,,,,left,0,10,30,40,0,1060.40942,1060.40942,1060.40942,None,None,1,1,0.9361954,,,,,,,,,,,,,,,,,,,,,,10,19,2,2024-11-20_12h07.57.269,uWM_experiment,2022.2.3,60.00729689
,,,,,,,,,,,,,,,,,,,,2,0,2,0,18,0,18,0,,,,,,,,,,,,,,,,,,,,,,,,,,,,,,,,,,,,,,,,,,,,,,,,,,,,,,,,,,,,,,,,,,,,,,0.005,,,,,,,,,,,,,,,,,,,,,,,,,,,,right,1,130,30,160,1,1068.259714,1068.259714,1068.259714,None,None,4,0,1.4698766,,,,,,,,,,,,,,,,,,,,,,10,19,2,2024-11-20_12h07.57.269,uWM_experiment,2022.2.3,60.00729689
,,,,,,,,,,,,,,,,,,,,2,0,2,0,19,0,19,0,,,,,,,,,,,,,,,,,,,,,,,,,,,,,,,,,,,,,,,,,,,,,,,,,,,,,,,,,,,,,,,,,,,,,,0.005,,,,,,,,,,,,,,,,,,,,,,,,,,,,left,0,160,30,190,1,1075.760018,1075.760018,1075.760018,None,None,4,0,0.8655865,,,,,,,,,,,,,,,,,,,,,,10,19,2,2024-11-20_12h07.57.269,uWM_experiment,2022.2.3,60.00729689
,,,,,,,,,,,,,,,,,,,,2,0,2,0,20,0,20,0,,,,,,,,,,,,,,,,,,,,,,,,,,,,,,,,,,,,,,,,,,,,,,,,,,,,,,,,,,,,,,,,,,,,,,0.005,,,,,,,,,,,,,,,,,,,,,,,,,,,,left,0,100,30,130,1,1082.560277,1082.560277,1082.560277,None,None,4,0,0.5133183,,,,,,,,,,,,,,,,,,,,,,10,19,2,2024-11-20_12h07.57.269,uWM_experiment,2022.2.3,60.00729689
,,,,,,,,,,,,,,,,,,,,2,0,2,0,21,0,21,0,,,,,,,,,,,,,,,,,,,,,,,,,,,,,,,,,,,,,,,,,,,,,,,,,,,,,,,,,,,,,,,,,,,,,,0.005,,,,,,,,,,,,,,,,,,,,,,,,,,,,right,1,40,30,70,1,1088.810534,1088.810534,1088.810534,None,None,4,0,0.5269824,,,,,,,,,,,,,,,,,,,,,,10,19,2,2024-11-20_12h07.57.269,uWM_experiment,2022.2.3,60.00729689
,,,,,,,,,,,,,,,,,,,,2,0,2,0,22,0,22,0,,,,,,,,,,,,,,,,,,,,,,,,,,,,,,,,,,,,,,,,,,,,,,,,,,,,,,,,,,,,,,,,,,,,,,0.1,,,,,,,,,,,,,,,,,,,,,,,,,,,,right,1,10,30,40,2,1099.06094,1099.06094,1099.06094,None,None,4,0,0.7085771,,,,,,,,,,,,,,,,,,,,,,10,19,2,2024-11-20_12h07.57.269,uWM_experiment,2022.2.3,60.00729689
,,,,,,,,,,,,,,,,,,,,2,0,2,0,23,0,23,0,,,,,,,,,,,,,,,,,,,,,,,,,,,,,,,,,,,,,,,,,,,,,,,,,,,,,,,,,,,,,,,,,,,,,,0.005,,,,,,,,,,,,,,,,,,,,,,,,,,,,left,1,130,-30,100,1,1105.827851,1105.827851,1105.827851,None,None,4,0,0.4695279,,,,,,,,,,,,,,,,,,,,,,10,19,2,2024-11-20_12h07.57.269,uWM_experiment,2022.2.3,60.00729689
,,,,,,,,,,,,,,,,,,,,2,0,2,0,,,,,0,0,0,0,,,,,,,,,,,,,,,,,,,,,,,,,,,,,,,,,,,,,,,,,,,,,,,,,,,,,,,,,,,,,,,,,,,,,,,,,,,,,,,,,,,,,,,,,,,,,,,,,,,,,,,,,,,,1106.327835,1106.327835,space,64.9932957,space,None,,1171.347033,1171.347033,7.1500605,,,,,,,,,,,,10,19,2,2024-11-20_12h07.57.269,uWM_experiment,2022.2.3,60.00729689
,,,,,,,,,,,,,,,,,,,,2,0,2,0,,,,,1,0,1,0,,,,,,,,,,,,,,,,,,,,,,,,,,,,,,,,,,,,,,,,,,,,,,,,,,,,,,,,,,,,,,,,,,,,,,,,,,,,,,,,,,,,,,,,,,,,,,,,,,,,,,,,,,,,,,,,,,,,,,,,,,,,,,,,,10,19,2,2024-11-20_12h07.57.269,uWM_experiment,2022.2.3,60.00729689
,,,,,,,,,,,,,,,,,,,,2,0,2,0,,,,,2,0,2,0,,,,,,,,,,,,,,,,,,,,,,,,,,,,,,,,,,,,,,,,,,,,,,,,,,,,,,,,,,,,,,,,,,,,,,,,,,,,,,,,,,,,,,,,,,,,,,,,,,,,,,,,,,,,,,,,,,,,,,,,,,,,,,,,,10,19,2,2024-11-20_12h07.57.269,uWM_experiment,2022.2.3,60.00729689
,,,,,,,,,,,,,,,,,,,,3,0,3,0,0,0,0,0,,,,,,,,,,,,,,,,,,,,,,,,,,,,,,,,,,,,,,,,,,,,,,,,,,,,,,,,,,,,,,,,,,,,,,0.005,,,,,,,,,,,,,,,,,,,,1178.513979,1179.214005,1179.51406,1180.214032,1180.514066,1181.214077,1181.214077,1181.530773,right,0,70,-30,40,1,1190.631145,1190.631145,1190.631145,None,None,1,1,3.2177918,,,,,,,None,,,,,,,,,,,,,,,10,19,2,2024-11-20_12h07.57.269,uWM_experiment,2022.2.3,60.00729689
,,,,,,,,,,,,,,,,,,,,3,0,3,0,1,0,1,0,,,,,,,,,,,,,,,,,,,,,,,,,,,,,,,,,,,,,,,,,,,,,,,,,,,,,,,,,,,,,,,,,,,,,,0,,,,,,,,,,,,,,,,,,,,,,,,,,,,left,0,130,30,160,0,1202.114927,1202.114927,1202.114927,None,None,4,0,1.8140585,,,,,,,,,,,,,,,,,,,,,,10,19,2,2024-11-20_12h07.57.269,uWM_experiment,2022.2.3,60.00729689
,,,,,,,,,,,,,,,,,,,,3,0,3,0,2,0,2,0,,,,,,,,,,,,,,,,,,,,,,,,,,,,,,,,,,,,,,,,,,,,,,,,,,,,,,,,,,,,,,,,,,,,,,0.015,,,,,,,,,,,,,,,,,,,,,,,,,,,,left,0,70,30,100,1,1209.96521,1209.96521,1209.96521,None,None,4,0,0.4117014,,,,,,,,,,,,,,,,,,,,,,10,19,2,2024-11-20_12h07.57.269,uWM_experiment,2022.2.3,60.00729689
,,,,,,,,,,,,,,,,,,,,3,0,3,0,3,0,3,0,,,,,,,,,,,,,,,,,,,,,,,,,,,,,,,,,,,,,,,,,,,,,,,,,,,,,,,,,,,,,,,,,,,,,,0.1,,,,,,,,,,,,,,,,,,,,,,,,,,,,right,0,160,-30,130,2,1217.382154,1217.382154,1217.382154,None,None,4,0,0.4026516,,,,,,,,,,,,,,,,,,,,,,10,19,2,2024-11-20_12h07.57.269,uWM_experiment,2022.2.3,60.00729689
,,,,,,,,,,,,,,,,,,,,3,0,3,0,4,0,4,0,,,,,,,,,,,,,,,,,,,,,,,,,,,,,,,,,,,,,,,,,,,,,,,,,,,,,,,,,,,,,,,,,,,,,,0.005,,,,,,,,,,,,,,,,,,,,,,,,,,,,right,0,70,-30,40,1,1223.632383,1223.632383,1223.632383,None,None,4,0,0.4725173,,,,,,,,,,,,,,,,,,,,,,10,19,2,2024-11-20_12h07.57.269,uWM_experiment,2022.2.3,60.00729689
,,,,,,,,,,,,,,,,,,,,3,0,3,0,5,0,5,0,,,,,,,,,,,,,,,,,,,,,,,,,,,,,,,,,,,,,,,,,,,,,,,,,,,,,,,,,,,,,,,,,,,,,,0.005,,,,,,,,,,,,,,,,,,,,,,,,,,,,right,1,100,30,130,1,1229.982646,1229.982646,1229.982646,None,None,4,0,4.170073,,,,,,,,,,,,,,,,,,,,,,10,19,2,2024-11-20_12h07.57.269,uWM_experiment,2022.2.3,60.00729689
,,,,,,,,,,,,,,,,,,,,3,0,3,0,6,0,6,0,,,,,,,,,,,,,,,,,,,,,,,,,,,,,,,,,,,,,,,,,,,,,,,,,,,,,,,,,,,,,,,,,,,,,,0,,,,,,,,,,,,,,,,,,,,,,,,,,,,right,0,40,-30,10,0,1241.616437,1241.616437,1241.616437,None,None,1,1,2.8242831,,,,,,,,,,,,,,,,,,,,,,10,19,2,2024-11-20_12h07.57.269,uWM_experiment,2022.2.3,60.00729689
,,,,,,,,,,,,,,,,,,,,3,0,3,0,7,0,7,0,,,,,,,,,,,,,,,,,,,,,,,,,,,,,,,,,,,,,,,,,,,,,,,,,,,,,,,,,,,,,,,,,,,,,,0,,,,,,,,,,,,,,,,,,,,,,,,,,,,right,0,70,-30,40,0,1250.400108,1250.400108,1250.400108,None,None,4,0,0.4565396,,,,,,,,,,,,,,,,,,,,,,10,19,2,2024-11-20_12h07.57.269,uWM_experiment,2022.2.3,60.00729689
,,,,,,,,,,,,,,,,,,,,3,0,3,0,8,0,8,0,,,,,,,,,,,,,,,,,,,,,,,,,,,,,,,,,,,,,,,,,,,,,,,,,,,,,,,,,,,,,,,,,,,,,,0,,,,,,,,,,,,,,,,,,,,,,,,,,,,left,1,130,-30,100,0,1257.100366,1257.100366,1257.100366,None,None,4,0,0.4682781,,,,,,,,,,,,,,,,,,,,,,10,19,2,2024-11-20_12h07.57.269,uWM_experiment,2022.2.3,60.00729689
,,,,,,,,,,,,,,,,,,,,3,0,3,0,9,0,9,0,,,,,,,,,,,,,,,,,,,,,,,,,,,,,,,,,,,,,,,,,,,,,,,,,,,,,,,,,,,,,,,,,,,,,,0.005,,,,,,,,,,,,,,,,,,,,,,,,,,,,left,1,130,-30,100,1,1263.883958,1263.883958,1263.883958,None,None,4,0,0.4606377,,,,,,,,,,,,,,,,,,,,,,10,19,2,2024-11-20_12h07.57.269,uWM_experiment,2022.2.3,60.00729689
,,,,,,,,,,,,,,,,,,,,3,0,3,0,10,0,10,0,,,,,,,,,,,,,,,,,,,,,,,,,,,,,,,,,,,,,,,,,,,,,,,,,,,,,,,,,,,,,,,,,,,,,,0.005,,,,,,,,,,,,,,,,,,,,,,,,,,,,left,0,70,30,100,1,1272.634275,1272.634275,1272.634275,None,None,4,0,0.4063883,,,,,,,,,,,,,,,,,,,,,,10,19,2,2024-11-20_12h07.57.269,uWM_experiment,2022.2.3,60.00729689
,,,,,,,,,,,,,,,,,,,,3,0,3,0,11,0,11,0,,,,,,,,,,,,,,,,,,,,,,,,,,,,,,,,,,,,,,,,,,,,,,,,,,,,,,,,,,,,,,,,,,,,,,0.005,,,,,,,,,,,,,,,,,,,,,,,,,,,,right,1,70,30,100,1,1279.81791,1279.81791,1279.81791,None,None,4,0,0.4385238,,,,,,,,,,,,,,,,,,,,,,10,19,2,2024-11-20_12h07.57.269,uWM_experiment,2022.2.3,60.00729689
,,,,,,,,,,,,,,,,,,,,3,0,3,0,12,0,12,0,,,,,,,,,,,,,,,,,,,,,,,,,,,,,,,,,,,,,,,,,,,,,,,,,,,,,,,,,,,,,,,,,,,,,,0,,,,,,,,,,,,,,,,,,,,,,,,,,,,right,0,160,-30,130,0,1287.001504,1287.001504,1287.001504,None,None,4,0,0.3429812,,,,,,,,,,,,,,,,,,,,,,10,19,2,2024-11-20_12h07.57.269,uWM_experiment,2022.2.3,60.00729689
,,,,,,,,,,,,,,,,,,,,3,0,3,0,13,0,13,0,,,,,,,,,,,,,,,,,,,,,,,,,,,,,,,,,,,,,,,,,,,,,,,,,,,,,,,,,,,,,,,,,,,,,,0,,,,,,,,,,,,,,,,,,,,,,,,,,,,left,0,100,30,130,0,1293.118414,1293.118414,1293.118414,None,None,4,0,0.385949,,,,,,,,,,,,,,,,,,,,,,10,19,2,2024-11-20_12h07.57.269,uWM_experiment,2022.2.3,60.00729689
,,,,,,,,,,,,,,,,,,,,3,0,3,0,14,0,14,0,,,,,,,,,,,,,,,,,,,,,,,,,,,,,,,,,,,,,,,,,,,,,,,,,,,,,,,,,,,,,,,,,,,,,,0.005,,,,,,,,,,,,,,,,,,,,,,,,,,,,right,0,10,-30,-20,1,1299.318648,1299.318648,1299.318648,None,None,4,0,0.4257465,,,,,,,,,,,,,,,,,,,,,,10,19,2,2024-11-20_12h07.57.269,uWM_experiment,2022.2.3,60.00729689
,,,,,,,,,,,,,,,,,,,,3,0,3,0,15,0,15,0,,,,,,,,,,,,,,,,,,,,,,,,,,,,,,,,,,,,,,,,,,,,,,,,,,,,,,,,,,,,,,,,,,,,,,0.005,,,,,,,,,,,,,,,,,,,,,,,,,,,,right,0,100,-30,70,1,1305.385535,1305.385535,1305.385535,None,None,4,0,0.5187748,,,,,,,,,,,,,,,,,,,,,,10,19,2,2024-11-20_12h07.57.269,uWM_experiment,2022.2.3,60.00729689
,,,,,,,,,,,,,,,,,,,,3,0,3,0,16,0,16,0,,,,,,,,,,,,,,,,,,,,,,,,,,,,,,,,,,,,,,,,,,,,,,,,,,,,,,,,,,,,,,,,,,,,,,0,,,,,,,,,,,,,,,,,,,,,,,,,,,,left,1,10,-30,-20,0,1311.652456,1311.652456,1311.652456,None,None,4,0,0.4518141,,,,,,,,,,,,,,,,,,,,,,10,19,2,2024-11-20_12h07.57.269,uWM_experiment,2022.2.3,60.00729689
,,,,,,,,,,,,,,,,,,,,3,0,3,0,17,0,17,0,,,,,,,,,,,,,,,,,,,,,,,,,,,,,,,,,,,,,,,,,,,,,,,,,,,,,,,,,,,,,,,,,,,,,,0.005,,,,,,,,,,,,,,,,,,,,,,,,,,,,left,1,130,-30,100,1,1317.736065,1317.736065,1317.736065,None,None,4,0,0.4321867,,,,,,,,,,,,,,,,,,,,,,10,19,2,2024-11-20_12h07.57.269,uWM_experiment,2022.2.3,60.00729689
,,,,,,,,,,,,,,,,,,,,3,0,3,0,18,0,18,0,,,,,,,,,,,,,,,,,,,,,,,,,,,,,,,,,,,,,,,,,,,,,,,,,,,,,,,,,,,,,,,,,,,,,,0,,,,,,,,,,,,,,,,,,,,,,,,,,,,left,0,100,30,130,0,1323.919605,1323.919605,1323.919605,None,None,4,0,0.4005957,,,,,,,,,,,,,,,,,,,,,,10,19,2,2024-11-20_12h07.57.269,uWM_experiment,2022.2.3,60.00729689
,,,,,,,,,,,,,,,,,,,,3,0,3,0,19,0,19,0,,,,,,,,,,,,,,,,,,,,,,,,,,,,,,,,,,,,,,,,,,,,,,,,,,,,,,,,,,,,,,,,,,,,,,0.005,,,,,,,,,,,,,,,,,,,,,,,,,,,,right,0,100,-30,70,1,1329.936504,1329.936504,1329.936504,None,None,4,0,0.7277967,,,,,,,,,,,,,,,,,,,,,,10,19,2,2024-11-20_12h07.57.269,uWM_experiment,2022.2.3,60.00729689
,,,,,,,,,,,,,,,,,,,,3,0,3,0,20,0,20,0,,,,,,,,,,,,,,,,,,,,,,,,,,,,,,,,,,,,,,,,,,,,,,,,,,,,,,,,,,,,,,,,,,,,,,0,,,,,,,,,,,,,,,,,,,,,,,,,,,,left,1,10,-30,-20,0,1336.420092,1336.420092,1336.420092,None,None,4,0,0.4681143,,,,,,,,,,,,,,,,,,,,,,10,19,2,2024-11-20_12h07.57.269,uWM_experiment,2022.2.3,60.00729689
,,,,,,,,,,,,,,,,,,,,3,0,3,0,21,0,21,0,,,,,,,,,,,,,,,,,,,,,,,,,,,,,,,,,,,,,,,,,,,,,,,,,,,,,,,,,,,,,,,,,,,,,,0,,,,,,,,,,,,,,,,,,,,,,,,,,,,left,1,130,-30,100,0,1342.553647,1342.553647,1342.553647,None,None,4,0,0.4384812,,,,,,,,,,,,,,,,,,,,,,10,19,2,2024-11-20_12h07.57.269,uWM_experiment,2022.2.3,60.00729689
,,,,,,,,,,,,,,,,,,,,3,0,3,0,22,0,22,0,,,,,,,,,,,,,,,,,,,,,,,,,,,,,,,,,,,,,,,,,,,,,,,,,,,,,,,,,,,,,,,,,,,,,,0.005,,,,,,,,,,,,,,,,,,,,,,,,,,,,left,0,100,30,130,1,1348.637229,1348.637229,1348.637229,None,None,4,0,0.4749867,,,,,,,,,,,,,,,,,,,,,,10,19,2,2024-11-20_12h07.57.269,uWM_experiment,2022.2.3,60.00729689
,,,,,,,,,,,,,,,,,,,,3,0,3,0,23,0,23,0,,,,,,,,,,,,,,,,,,,,,,,,,,,,,,,,,,,,,,,,,,,,,,,,,,,,,,,,,,,,,,,,,,,,,,0.005,,,,,,,,,,,,,,,,,,,,,,,,,,,,right,1,160,30,190,1,1357.937592,1357.937592,1357.937592,None,None,4,0,0.4864562,,,,,,,,,,,,,,,,,,,,,,10,19,2,2024-11-20_12h07.57.269,uWM_experiment,2022.2.3,60.00729689
,,,,,,,,,,,,,,,,,,,,3,0,3,0,,,,,0,0,0,0,,,,,,,,,,,,,,,,,,,,,,,,,,,,,,,,,,,,,,,,,,,,,,,,,,,,,,,,,,,,,,,,,,,,,,,,,,,,,,,,,,,,,,,,,,,,,,,,,,,,,,,,,,,,1358.45427,1358.45427,space,56.0895329,None,None,,,,,,,,,,,,,,,,10,19,2,2024-11-20_12h07.57.269,uWM_experiment,2022.2.3,60.00729689
,,,,,,,,,,,,,,,,,,,,3,0,3,0,,,,,1,0,1,0,,,,,,,,,,,,,,,,,,,,,,,,,,,,,,,,,,,,,,,,,,,,,,,,,,,,,,,,,,,,,,,,,,,,,,,,,,,,,,,,,,,,,,,,,,,,,,,,,,,,,,,,,,,,,,,,,,,,,,,,,,,,,,,,,10,19,2,2024-11-20_12h07.57.269,uWM_experiment,2022.2.3,60.00729689
,,,,,,,,,,,,,,,,,,,,3,0,3,0,,,,,2,0,2,0,,,,,,,,,,,,,,,,,,,,,,,,,,,,,,,,,,,,,,,,,,,,,,,,,,,,,,,,,,,,,,,,,,,,,,,,,,,,,,,,,,,,,,,,,,,,,,,,,,,,,,,,,,,,,,,,,,,,,,,,,,,,,,,,,10,19,2,2024-11-20_12h07.57.269,uWM_experiment,2022.2.3,60.00729689
,,,,,,,,,,,,,,,,,,,,4,0,4,0,0,0,0,0,,,,,,,,,,,,,,,,,,,,,,,,,,,,,,,,,,,,,,,,,,,,,,,,,,,,,,,,,,,,,,,,,,,,,,0,,,,,,,,,,,,,,,,,,,,1414.573089,1415.27311,1415.573226,1416.273145,1416.57318,1417.273191,1417.273191,1417.589872,right,1,160,30,190,0,1428.340286,1428.340286,1428.340286,None,None,4,0,0.5474842,,,,,,,None,,,,,,,,,,,,,,,10,19,2,2024-11-20_12h07.57.269,uWM_experiment,2022.2.3,60.00729689
,,,,,,,,,,,,,,,,,,,,4,0,4,0,1,0,1,0,,,,,,,,,,,,,,,,,,,,,,,,,,,,,,,,,,,,,,,,,,,,,,,,,,,,,,,,,,,,,,,,,,,,,,0.005,,,,,,,,,,,,,,,,,,,,,,,,,,,,left,1,40,-30,10,1,1434.840542,1434.840542,1434.840542,None,None,4,0,0.6390558,,,,,,,,,,,,,,,,,,,,,,10,19,2,2024-11-20_12h07.57.269,uWM_experiment,2022.2.3,60.00729689
,,,,,,,,,,,,,,,,,,,,4,0,4,0,2,0,2,0,,,,,,,,,,,,,,,,,,,,,,,,,,,,,,,,,,,,,,,,,,,,,,,,,,,,,,,,,,,,,,,,,,,,,,0,,,,,,,,,,,,,,,,,,,,,,,,,,,,right,0,100,-30,70,0,1441.090787,1441.090787,1441.090787,None,None,4,0,0.4609154,,,,,,,,,,,,,,,,,,,,,,10,19,2,2024-11-20_12h07.57.269,uWM_experiment,2022.2.3,60.00729689
,,,,,,,,,,,,,,,,,,,,4,0,4,0,3,0,3,0,,,,,,,,,,,,,,,,,,,,,,,,,,,,,,,,,,,,,,,,,,,,,,,,,,,,,,,,,,,,,,,,,,,,,,0.005,,,,,,,,,,,,,,,,,,,,,,,,,,,,left,0,160,30,190,1,1447.274348,1447.274348,1447.274348,None,None,4,0,0.4772437,,,,,,,,,,,,,,,,,,,,,,10,19,2,2024-11-20_12h07.57.269,uWM_experiment,2022.2.3,60.00729689
,,,,,,,,,,,,,,,,,,,,4,0,4,0,4,0,4,0,,,,,,,,,,,,,,,,,,,,,,,,,,,,,,,,,,,,,,,,,,,,,,,,,,,,,,,,,,,,,,,,,,,,,,0,,,,,,,,,,,,,,,,,,,,,,,,,,,,left,1,40,-30,10,0,1454.007941,1454.007941,1454.007941,None,None,4,0,0.4476417,,,,,,,,,,,,,,,,,,,,,,10,19,2,2024-11-20_12h07.57.269,uWM_experiment,2022.2.3,60.00729689
,,,,,,,,,,,,,,,,,,,,4,0,4,0,5,0,5,0,,,,,,,,,,,,,,,,,,,,,,,,,,,,,,,,,,,,,,,,,,,,,,,,,,,,,,,,,,,,,,,,,,,,,,0.005,,,,,,,,,,,,,,,,,,,,,,,,,,,,right,1,10,30,40,1,1461.091559,1461.091559,1461.091559,None,None,4,0,0.5160158,,,,,,,,,,,,,,,,,,,,,,10,19,2,2024-11-20_12h07.57.269,uWM_experiment,2022.2.3,60.00729689
,,,,,,,,,,,,,,,,,,,,4,0,4,0,6,0,6,0,,,,,,,,,,,,,,,,,,,,,,,,,,,,,,,,,,,,,,,,,,,,,,,,,,,,,,,,,,,,,,,,,,,,,,0.005,,,,,,,,,,,,,,,,,,,,,,,,,,,,right,1,70,30,100,1,1467.975138,1467.975138,1467.975138,None,None,4,0,0.4403559,,,,,,,,,,,,,,,,,,,,,,10,19,2,2024-11-20_12h07.57.269,uWM_experiment,2022.2.3,60.00729689
,,,,,,,,,,,,,,,,,,,,4,0,4,0,7,0,7,0,,,,,,,,,,,,,,,,,,,,,,,,,,,,,,,,,,,,,,,,,,,,,,,,,,,,,,,,,,,,,,,,,,,,,,0.005,,,,,,,,,,,,,,,,,,,,,,,,,,,,left,1,130,-30,100,1,1475.458791,1475.458791,1475.458791,None,None,4,0,0.4366216,,,,,,,,,,,,,,,,,,,,,,10,19,2,2024-11-20_12h07.57.269,uWM_experiment,2022.2.3,60.00729689
,,,,,,,,,,,,,,,,,,,,4,0,4,0,8,0,8,0,,,,,,,,,,,,,,,,,,,,,,,,,,,,,,,,,,,,,,,,,,,,,,,,,,,,,,,,,,,,,,,,,,,,,,0,,,,,,,,,,,,,,,,,,,,,,,,,,,,right,0,100,-30,70,0,1481.509014,1481.509014,1481.509014,None,None,4,0,0.4423969,,,,,,,,,,,,,,,,,,,,,,10,19,2,2024-11-20_12h07.57.269,uWM_experiment,2022.2.3,60.00729689
,,,,,,,,,,,,,,,,,,,,4,0,4,0,9,0,9,0,,,,,,,,,,,,,,,,,,,,,,,,,,,,,,,,,,,,,,,,,,,,,,,,,,,,,,,,,,,,,,,,,,,,,,0.005,,,,,,,,,,,,,,,,,,,,,,,,,,,,right,1,70,30,100,1,1489.075975,1489.075975,1489.075975,None,None,4,0,0.4434921,,,,,,,,,,,,,,,,,,,,,,10,19,2,2024-11-20_12h07.57.269,uWM_experiment,2022.2.3,60.00729689
,,,,,,,,,,,,,,,,,,,,4,0,4,0,10,0,10,0,,,,,,,,,,,,,,,,,,,,,,,,,,,,,,,,,,,,,,,,,,,,,,,,,,,,,,,,,,,,,,,,,,,,,,0,,,,,,,,,,,,,,,,,,,,,,,,,,,,left,0,130,30,160,0,1496.476259,1496.476259,1496.476259,None,None,4,0,0.4991275,,,,,,,,,,,,,,,,,,,,,,10,19,2,2024-11-20_12h07.57.269,uWM_experiment,2022.2.3,60.00729689
,,,,,,,,,,,,,,,,,,,,4,0,4,0,11,0,11,0,,,,,,,,,,,,,,,,,,,,,,,,,,,,,,,,,,,,,,,,,,,,,,,,,,,,,,,,,,,,,,,,,,,,,,0.005,,,,,,,,,,,,,,,,,,,,,,,,,,,,right,1,10,30,40,1,1502.659865,1502.659865,1502.659865,None,None,4,0,0.4836265,,,,,,,,,,,,,,,,,,,,,,10,19,2,2024-11-20_12h07.57.269,uWM_experiment,2022.2.3,60.00729689
,,,,,,,,,,,,,,,,,,,,4,0,4,0,12,0,12,0,,,,,,,,,,,,,,,,,,,,,,,,,,,,,,,,,,,,,,,,,,,,,,,,,,,,,,,,,,,,,,,,,,,,,,0,,,,,,,,,,,,,,,,,,,,,,,,,,,,left,0,100,30,130,0,1508.960065,1508.960065,1508.960065,None,None,4,0,0.4471818,,,,,,,,,,,,,,,,,,,,,,10,19,2,2024-11-20_12h07.57.269,uWM_experiment,2022.2.3,60.00729689
,,,,,,,,,,,,,,,,,,,,4,0,4,0,13,0,13,0,,,,,,,,,,,,,,,,,,,,,,,,,,,,,,,,,,,,,,,,,,,,,,,,,,,,,,,,,,,,,,,,,,,,,,0.005,,,,,,,,,,,,,,,,,,,,,,,,,,,,left,1,130,-30,100,1,1516.760381,1516.760381,1516.760381,None,None,4,0,0.4228396,,,,,,,,,,,,,,,,,,,,,,10,19,2,2024-11-20_12h07.57.269,uWM_experiment,2022.2.3,60.00729689
,,,,,,,,,,,,,,,,,,,,4,0,4,0,14,0,14,0,,,,,,,,,,,,,,,,,,,,,,,,,,,,,,,,,,,,,,,,,,,,,,,,,,,,,,,,,,,,,,,,,,,,,,0,,,,,,,,,,,,,,,,,,,,,,,,,,,,right,0,70,-30,40,0,1522.860619,1522.860619,1522.860619,None,None,4,0,0.4905443,,,,,,,,,,,,,,,,,,,,,,10,19,2,2024-11-20_12h07.57.269,uWM_experiment,2022.2.3,60.00729689
,,,,,,,,,,,,,,,,,,,,4,0,4,0,15,0,15,0,,,,,,,,,,,,,,,,,,,,,,,,,,,,,,,,,,,,,,,,,,,,,,,,,,,,,,,,,,,,,,,,,,,,,,0.005,,,,,,,,,,,,,,,,,,,,,,,,,,,,left,1,10,-30,-20,1,1529.577562,1529.577562,1529.577562,None,None,4,0,0.4455555,,,,,,,,,,,,,,,,,,,,,,10,19,2,2024-11-20_12h07.57.269,uWM_experiment,2022.2.3,60.00729689
,,,,,,,,,,,,,,,,,,,,4,0,4,0,16,0,16,0,,,,,,,,,,,,,,,,,,,,,,,,,,,,,,,,,,,,,,,,,,,,,,,,,,,,,,,,,,,,,,,,,,,,,,0.1,,,,,,,,,,,,,,,,,,,,,,,,,,,,right,1,40,30,70,2,1535.911092,1535.911092,1535.911092,None,None,4,0,0.4560916,,,,,,,,,,,,,,,,,,,,,,10,19,2,2024-11-20_12h07.57.269,uWM_experiment,2022.2.3,60.00729689
,,,,,,,,,,,,,,,,,,,,4,0,4,0,17,0,17,0,,,,,,,,,,,,,,,,,,,,,,,,,,,,,,,,,,,,,,,,,,,,,,,,,,,,,,,,,,,,,,,,,,,,,,0.005,,,,,,,,,,,,,,,,,,,,,,,,,,,,right,0,100,-30,70,1,1542.011355,1542.011355,1542.011355,None,None,4,0,0.5157307,,,,,,,,,,,,,,,,,,,,,,10,19,2,2024-11-20_12h07.57.269,uWM_experiment,2022.2.3,60.00729689
,,,,,,,,,,,,,,,,,,,,4,0,4,0,18,0,18,0,,,,,,,,,,,,,,,,,,,,,,,,,,,,,,,,,,,,,,,,,,,,,,,,,,,,,,,,,,,,,,,,,,,,,,0.005,,,,,,,,,,,,,,,,,,,,,,,,,,,,left,0,130,30,160,1,1548.944934,1548.944934,1548.944934,None,None,4,0,0.462184,,,,,,,,,,,,,,,,,,,,,,10,19,2,2024-11-20_12h07.57.269,uWM_experiment,2022.2.3,60.00729689
,,,,,,,,,,,,,,,,,,,,4,0,4,0,19,0,19,0,,,,,,,,,,,,,,,,,,,,,,,,,,,,,,,,,,,,,,,,,,,,,,,,,,,,,,,,,,,,,,,,,,,,,,0.005,,,,,,,,,,,,,,,,,,,,,,,,,,,,left,1,10,-30,-20,1,1555.561856,1555.561856,1555.561856,None,None,4,0,0.4210862,,,,,,,,,,,,,,,,,,,,,,10,19,2,2024-11-20_12h07.57.269,uWM_experiment,2022.2.3,60.00729689
,,,,,,,,,,,,,,,,,,,,4,0,4,0,20,0,20,0,,,,,,,,,,,,,,,,,,,,,,,,,,,,,,,,,,,,,,,,,,,,,,,,,,,,,,,,,,,,,,,,,,,,,,0.005,,,,,,,,,,,,,,,,,,,,,,,,,,,,right,0,100,-30,70,1,1561.378752,1561.378752,1561.378752,None,None,4,0,0.6361628,,,,,,,,,,,,,,,,,,,,,,10,19,2,2024-11-20_12h07.57.269,uWM_experiment,2022.2.3,60.00729689
,,,,,,,,,,,,,,,,,,,,4,0,4,0,21,0,21,0,,,,,,,,,,,,,,,,,,,,,,,,,,,,,,,,,,,,,,,,,,,,,,,,,,,,,,,,,,,,,,,,,,,,,,0.005,,,,,,,,,,,,,,,,,,,,,,,,,,,,right,1,40,30,70,1,1568.829059,1568.829059,1568.829059,None,None,4,0,0.4579681,,,,,,,,,,,,,,,,,,,,,,10,19,2,2024-11-20_12h07.57.269,uWM_experiment,2022.2.3,60.00729689
,,,,,,,,,,,,,,,,,,,,4,0,4,0,22,0,22,0,,,,,,,,,,,,,,,,,,,,,,,,,,,,,,,,,,,,,,,,,,,,,,,,,,,,,,,,,,,,,,,,,,,,,,0.1,,,,,,,,,,,,,,,,,,,,,,,,,,,,right,1,10,30,40,2,1575.362618,1575.362618,1575.362618,None,None,4,0,0.5003083,,,,,,,,,,,,,,,,,,,,,,10,19,2,2024-11-20_12h07.57.269,uWM_experiment,2022.2.3,60.00729689
,,,,,,,,,,,,,,,,,,,,4,0,4,0,23,0,23,0,,,,,,,,,,,,,,,,,,,,,,,,,,,,,,,,,,,,,,,,,,,,,,,,,,,,,,,,,,,,,,,,,,,,,,0.005,,,,,,,,,,,,,,,,,,,,,,,,,,,,right,1,10,30,40,1,1581.47953,1581.47953,1581.47953,None,None,4,0,0.4313882,,,,,,,,,,,,,,,,,,,,,,10,19,2,2024-11-20_12h07.57.269,uWM_experiment,2022.2.3,60.00729689
,,,,,,,,,,,,,,,,,,,,4,0,4,0,,,,,0,0,0,0,,,,,,,,,,,,,,,,,,,,,,,,,,,,,,,,,,,,,,,,,,,,,,,,,,,,,,,,,,,,,,,,,,,,,,,,,,,,,,,,,,,,,,,,,,,,,,,,,,,,,,,,,,,,1581.929528,1581.929528,space,121.6686783,None,None,,,,,,,,,,,,,,,,10,19,2,2024-11-20_12h07.57.269,uWM_experiment,2022.2.3,60.00729689
,,,,,,,,,,,,,,,,,,,,4,0,4,0,,,,,1,0,1,0,,,,,,,,,,,,,,,,,,,,,,,,,,,,,,,,,,,,,,,,,,,,,,,,,,,,,,,,,,,,,,,,,,,,,,,,,,,,,,,,,,,,,,,,,,,,,,,,,,,,,,,,,,,,,,,,,,,,,,,,,,,,,,,,,10,19,2,2024-11-20_12h07.57.269,uWM_experiment,2022.2.3,60.00729689
,,,,,,,,,,,,,,,,,,,,4,0,4,0,,,,,2,0,2,0,,,,,,,,,,,,,,,,,,,,,,,,,,,,,,,,,,,,,,,,,,,,,,,,,,,,,,,,,,,,,,,,,,,,,,,,,,,,,,,,,,,,,,,,,,,,,,,,,,,,,,,,,,,,,,,,,,,,,,,,,,,,,,,,,10,19,2,2024-11-20_12h07.57.269,uWM_experiment,2022.2.3,60.00729689
,,,,,,,,,,,,,,,,,,,,5,0,5,0,0,0,0,0,,,,,,,,,,,,,,,,,,,,,,,,,,,,,,,,,,,,,,,,,,,,,,,,,,,,,,,,,,,,,,,,,,,,,,0.005,,,,,,,,,,,,,,,,,,,,1703.617548,1704.317589,1704.617615,1705.317618,1705.617626,1706.317675,1706.317675,1706.634333,right,0,10,-30,-20,1,1714.468,1714.468,1714.468,None,None,4,0,0.7941697,,,,,,,None,,,,,,,,,,,,,,,10,19,2,2024-11-20_12h07.57.269,uWM_experiment,2022.2.3,60.00729689
,,,,,,,,,,,,,,,,,,,,5,0,5,0,1,0,1,0,,,,,,,,,,,,,,,,,,,,,,,,,,,,,,,,,,,,,,,,,,,,,,,,,,,,,,,,,,,,,,,,,,,,,,0.005,,,,,,,,,,,,,,,,,,,,,,,,,,,,left,1,40,-30,10,1,1721.784928,1721.784928,1721.784928,None,None,4,0,1.3492099,,,,,,,,,,,,,,,,,,,,,,10,19,2,2024-11-20_12h07.57.269,uWM_experiment,2022.2.3,60.00729689
,,,,,,,,,,,,,,,,,,,,5,0,5,0,2,0,2,0,,,,,,,,,,,,,,,,,,,,,,,,,,,,,,,,,,,,,,,,,,,,,,,,,,,,,,,,,,,,,,,,,,,,,,0,,,,,,,,,,,,,,,,,,,,,,,,,,,,left,1,130,-30,100,0,1729.485232,1729.485232,1729.485232,None,None,4,0,0.5129565,,,,,,,,,,,,,,,,,,,,,,10,19,2,2024-11-20_12h07.57.269,uWM_experiment,2022.2.3,60.00729689
,,,,,,,,,,,,,,,,,,,,5,0,5,0,3,0,3,0,,,,,,,,,,,,,,,,,,,,,,,,,,,,,,,,,,,,,,,,,,,,,,,,,,,,,,,,,,,,,,,,,,,,,,0.005,,,,,,,,,,,,,,,,,,,,,,,,,,,,left,1,70,-30,40,1,1736.28548,1736.28548,1736.28548,None,None,4,0,0.4646647,,,,,,,,,,,,,,,,,,,,,,10,19,2,2024-11-20_12h07.57.269,uWM_experiment,2022.2.3,60.00729689
,,,,,,,,,,,,,,,,,,,,5,0,5,0,4,0,4,0,,,,,,,,,,,,,,,,,,,,,,,,,,,,,,,,,,,,,,,,,,,,,,,,,,,,,,,,,,,,,,,,,,,,,,0,,,,,,,,,,,,,,,,,,,,,,,,,,,,right,1,40,30,70,0,1743.585775,1743.585775,1743.585775,None,None,4,0,0.5322413,,,,,,,,,,,,,,,,,,,,,,10,19,2,2024-11-20_12h07.57.269,uWM_experiment,2022.2.3,60.00729689
,,,,,,,,,,,,,,,,,,,,5,0,5,0,5,0,5,0,,,,,,,,,,,,,,,,,,,,,,,,,,,,,,,,,,,,,,,,,,,,,,,,,,,,,,,,,,,,,,,,,,,,,,0,,,,,,,,,,,,,,,,,,,,,,,,,,,,left,0,10,30,40,0,1750.352695,1750.352695,1750.352695,None,None,4,0,0.4292599,,,,,,,,,,,,,,,,,,,,,,10,19,2,2024-11-20_12h07.57.269,uWM_experiment,2022.2.3,60.00729689
,,,,,,,,,,,,,,,,,,,,5,0,5,0,6,0,6,0,,,,,,,,,,,,,,,,,,,,,,,,,,,,,,,,,,,,,,,,,,,,,,,,,,,,,,,,,,,,,,,,,,,,,,0.005,,,,,,,,,,,,,,,,,,,,,,,,,,,,left,1,40,-30,10,1,1756.569587,1756.569587,1756.569587,None,None,4,0,0.4923017,,,,,,,,,,,,,,,,,,,,,,10,19,2,2024-11-20_12h07.57.269,uWM_experiment,2022.2.3,60.00729689
,,,,,,,,,,,,,,,,,,,,5,0,5,0,7,0,7,0,,,,,,,,,,,,,,,,,,,,,,,,,,,,,,,,,,,,,,,,,,,,,,,,,,,,,,,,,,,,,,,,,,,,,,0.005,,,,,,,,,,,,,,,,,,,,,,,,,,,,left,1,40,-30,10,1,1762.8365,1762.8365,1762.8365,None,None,4,0,0.425442,,,,,,,,,,,,,,,,,,,,,,10,19,2,2024-11-20_12h07.57.269,uWM_experiment,2022.2.3,60.00729689
,,,,,,,,,,,,,,,,,,,,5,0,5,0,8,0,8,0,,,,,,,,,,,,,,,,,,,,,,,,,,,,,,,,,,,,,,,,,,,,,,,,,,,,,,,,,,,,,,,,,,,,,,0.005,,,,,,,,,,,,,,,,,,,,,,,,,,,,right,0,40,-30,10,1,1772.153512,1772.153512,1772.153512,None,None,4,0,0.4362737,,,,,,,,,,,,,,,,,,,,,,10,19,2,2024-11-20_12h07.57.269,uWM_experiment,2022.2.3,60.00729689
,,,,,,,,,,,,,,,,,,,,5,0,5,0,9,0,9,0,,,,,,,,,,,,,,,,,,,,,,,,,,,,,,,,,,,,,,,,,,,,,,,,,,,,,,,,,,,,,,,,,,,,,,0.005,,,,,,,,,,,,,,,,,,,,,,,,,,,,left,1,40,-30,10,1,1778.720475,1778.720475,1778.720475,None,None,4,0,0.4213105,,,,,,,,,,,,,,,,,,,,,,10,19,2,2024-11-20_12h07.57.269,uWM_experiment,2022.2.3,60.00729689
,,,,,,,,,,,,,,,,,,,,5,0,5,0,10,0,10,0,,,,,,,,,,,,,,,,,,,,,,,,,,,,,,,,,,,,,,,,,,,,,,,,,,,,,,,,,,,,,,,,,,,,,,0.005,,,,,,,,,,,,,,,,,,,,,,,,,,,,right,1,10,30,40,1,1784.970693,1784.970693,1784.970693,None,None,4,0,0.4671149,,,,,,,,,,,,,,,,,,,,,,10,19,2,2024-11-20_12h07.57.269,uWM_experiment,2022.2.3,60.00729689
,,,,,,,,,,,,,,,,,,,,5,0,5,0,11,0,11,0,,,,,,,,,,,,,,,,,,,,,,,,,,,,,,,,,,,,,,,,,,,,,,,,,,,,,,,,,,,,,,,,,,,,,,0.005,,,,,,,,,,,,,,,,,,,,,,,,,,,,left,1,160,-30,130,1,1791.737622,1791.737622,1791.737622,None,None,4,0,0.4761243,,,,,,,,,,,,,,,,,,,,,,10,19,2,2024-11-20_12h07.57.269,uWM_experiment,2022.2.3,60.00729689
,,,,,,,,,,,,,,,,,,,,5,0,5,0,12,0,12,0,,,,,,,,,,,,,,,,,,,,,,,,,,,,,,,,,,,,,,,,,,,,,,,,,,,,,,,,,,,,,,,,,,,,,,0,,,,,,,,,,,,,,,,,,,,,,,,,,,,left,1,70,-30,40,0,1798.221204,1798.221204,1798.221204,None,None,4,0,0.4645442,,,,,,,,,,,,,,,,,,,,,,10,19,2,2024-11-20_12h07.57.269,uWM_experiment,2022.2.3,60.00729689
,,,,,,,,,,,,,,,,,,,,5,0,5,0,13,0,13,0,,,,,,,,,,,,,,,,,,,,,,,,,,,,,,,,,,,,,,,,,,,,,,,,,,,,,,,,,,,,,,,,,,,,,,0.005,,,,,,,,,,,,,,,,,,,,,,,,,,,,left,1,40,-30,10,1,1804.421447,1804.421447,1804.421447,None,None,4,0,0.3762355,,,,,,,,,,,,,,,,,,,,,,10,19,2,2024-11-20_12h07.57.269,uWM_experiment,2022.2.3,60.00729689
,,,,,,,,,,,,,,,,,,,,5,0,5,0,14,0,14,0,,,,,,,,,,,,,,,,,,,,,,,,,,,,,,,,,,,,,,,,,,,,,,,,,,,,,,,,,,,,,,,,,,,,,,0.005,,,,,,,,,,,,,,,,,,,,,,,,,,,,left,0,100,30,130,1,1810.555,1810.555,1810.555,None,None,4,0,0.466745,,,,,,,,,,,,,,,,,,,,,,10,19,2,2024-11-20_12h07.57.269,uWM_experiment,2022.2.3,60.00729689
,,,,,,,,,,,,,,,,,,,,5,0,5,0,15,0,15,0,,,,,,,,,,,,,,,,,,,,,,,,,,,,,,,,,,,,,,,,,,,,,,,,,,,,,,,,,,,,,,,,,,,,,,0.005,,,,,,,,,,,,,,,,,,,,,,,,,,,,right,1,160,30,190,1,1816.888569,1816.888569,1816.888569,None,None,4,0,0.4770378,,,,,,,,,,,,,,,,,,,,,,10,19,2,2024-11-20_12h07.57.269,uWM_experiment,2022.2.3,60.00729689
,,,,,,,,,,,,,,,,,,,,5,0,5,0,16,0,16,0,,,,,,,,,,,,,,,,,,,,,,,,,,,,,,,,,,,,,,,,,,,,,,,,,,,,,,,,,,,,,,,,,,,,,,0.005,,,,,,,,,,,,,,,,,,,,,,,,,,,,left,1,10,-30,-20,1,1823.122154,1823.122154,1823.122154,None,None,4,0,0.4353764,,,,,,,,,,,,,,,,,,,,,,10,19,2,2024-11-20_12h07.57.269,uWM_experiment,2022.2.3,60.00729689
,,,,,,,,,,,,,,,,,,,,5,0,5,0,17,0,17,0,,,,,,,,,,,,,,,,,,,,,,,,,,,,,,,,,,,,,,,,,,,,,,,,,,,,,,,,,,,,,,,,,,,,,,0.005,,,,,,,,,,,,,,,,,,,,,,,,,,,,right,1,160,30,190,1,1829.222401,1829.222401,1829.222401,None,None,4,0,0.5031172,,,,,,,,,,,,,,,,,,,,,,10,19,2,2024-11-20_12h07.57.269,uWM_experiment,2022.2.3,60.00729689
,,,,,,,,,,,,,,,,,,,,5,0,5,0,18,0,18,0,,,,,,,,,,,,,,,,,,,,,,,,,,,,,,,,,,,,,,,,,,,,,,,,,,,,,,,,,,,,,,,,,,,,,,0,,,,,,,,,,,,,,,,,,,,,,,,,,,,right,1,70,30,100,0,1836.239333,1836.239333,1836.239333,None,None,4,0,0.406183,,,,,,,,,,,,,,,,,,,,,,10,19,2,2024-11-20_12h07.57.269,uWM_experiment,2022.2.3,60.00729689
,,,,,,,,,,,,,,,,,,,,5,0,5,0,19,0,19,0,,,,,,,,,,,,,,,,,,,,,,,,,,,,,,,,,,,,,,,,,,,,,,,,,,,,,,,,,,,,,,,,,,,,,,0.005,,,,,,,,,,,,,,,,,,,,,,,,,,,,left,0,160,30,190,1,1842.389546,1842.389546,1842.389546,None,None,4,0,0.4559211,,,,,,,,,,,,,,,,,,,,,,10,19,2,2024-11-20_12h07.57.269,uWM_experiment,2022.2.3,60.00729689
,,,,,,,,,,,,,,,,,,,,5,0,5,0,20,0,20,0,,,,,,,,,,,,,,,,,,,,,,,,,,,,,,,,,,,,,,,,,,,,,,,,,,,,,,,,,,,,,,,,,,,,,,0.005,,,,,,,,,,,,,,,,,,,,,,,,,,,,left,0,70,30,100,1,1848.873144,1848.873144,1848.873144,None,None,4,0,0.492357,,,,,,,,,,,,,,,,,,,,,,10,19,2,2024-11-20_12h07.57.269,uWM_experiment,2022.2.3,60.00729689
,,,,,,,,,,,,,,,,,,,,5,0,5,0,21,0,21,0,,,,,,,,,,,,,,,,,,,,,,,,,,,,,,,,,,,,,,,,,,,,,,,,,,,,,,,,,,,,,,,,,,,,,,0.005,,,,,,,,,,,,,,,,,,,,,,,,,,,,right,0,160,-30,130,1,1856.040071,1856.040071,1856.040071,None,None,4,0,0.5093427,,,,,,,,,,,,,,,,,,,,,,10,19,2,2024-11-20_12h07.57.269,uWM_experiment,2022.2.3,60.00729689
,,,,,,,,,,,,,,,,,,,,5,0,5,0,22,0,22,0,,,,,,,,,,,,,,,,,,,,,,,,,,,,,,,,,,,,,,,,,,,,,,,,,,,,,,,,,,,,,,,,,,,,,,0.1,,,,,,,,,,,,,,,,,,,,,,,,,,,,left,1,160,-30,130,2,1863.607051,1863.607051,1863.607051,None,None,4,0,0.3503031,,,,,,,,,,,,,,,,,,,,,,10,19,2,2024-11-20_12h07.57.269,uWM_experiment,2022.2.3,60.00729689
,,,,,,,,,,,,,,,,,,,,5,0,5,0,23,0,23,0,,,,,,,,,,,,,,,,,,,,,,,,,,,,,,,,,,,,,,,,,,,,,,,,,,,,,,,,,,,,,,,,,,,,,,0.005,,,,,,,,,,,,,,,,,,,,,,,,,,,,right,1,160,30,190,1,1869.65727,1869.65727,1869.65727,None,None,4,0,0.4760697,,,,,,,,,,,,,,,,,,,,,,10,19,2,2024-11-20_12h07.57.269,uWM_experiment,2022.2.3,60.00729689
,,,,,,,,,,,,,,,,,,,,5,0,5,0,,,,,0,0,0,0,,,,,,,,,,,,,,,,,,,,,,,,,,,,,,,,,,,,,,,,,,,,,,,,,,,,,,,,,,,,,,,,,,,,,,,,,,,,,,,,,,,,,,,,,,,,,,,,,,,,,,,,,,,,1870.157302,1870.157302,space,24.5359164,space,None,,1894.724898,1894.724898,6.328279,,,,,,,,,,,,10,19,2,2024-11-20_12h07.57.269,uWM_experiment,2022.2.3,60.00729689
,,,,,,,,,,,,,,,,,,,,5,0,5,0,,,,,1,0,1,0,,,,,,,,,,,,,,,,,,,,,,,,,,,,,,,,,,,,,,,,,,,,,,,,,,,,,,,,,,,,,,,,,,,,,,,,,,,,,,,,,,,,,,,,,,,,,,,,,,,,,,,,,,,,,,,,,,,,,,,,,,,,,,,,,10,19,2,2024-11-20_12h07.57.269,uWM_experiment,2022.2.3,60.00729689
,,,,,,,,,,,,,,,,,,,,5,0,5,0,,,,,2,0,2,0,,,,,,,,,,,,,,,,,,,,,,,,,,,,,,,,,,,,,,,,,,,,,,,,,,,,,,,,,,,,,,,,,,,,,,,,,,,,,,,,,,,,,,,,,,,,,,,,,,,,,,,,,,,,,,,,,,,,,,,,,,,,,,,,,10,19,2,2024-11-20_12h07.57.269,uWM_experiment,2022.2.3,60.00729689
,,,,,,,,,,,,,,,,,,,,6,0,6,0,0,0,0,0,,,,,,,,,,,,,,,,,,,,,,,,,,,,,,,,,,,,,,,,,,,,,,,,,,,,,,,,,,,,,,,,,,,,,,0.005,,,,,,,,,,,,,,,,,,,,1901.075159,1901.775164,1902.075173,1902.775199,1903.075226,1903.775248,1903.775248,1904.091927,right,1,100,30,130,1,1909.758827,1909.758827,1909.758827,None,None,4,0,1.6063399,,,,,,,None,,,,,,,,,,,,,,,10,19,2,2024-11-20_12h07.57.269,uWM_experiment,2022.2.3,60.00729689
,,,,,,,,,,,,,,,,,,,,6,0,6,0,1,0,1,0,,,,,,,,,,,,,,,,,,,,,,,,,,,,,,,,,,,,,,,,,,,,,,,,,,,,,,,,,,,,,,,,,,,,,,0.005,,,,,,,,,,,,,,,,,,,,,,,,,,,,right,1,70,30,100,1,1919.125857,1919.125857,1919.125857,None,None,4,0,0.4391542,,,,,,,,,,,,,,,,,,,,,,10,19,2,2024-11-20_12h07.57.269,uWM_experiment,2022.2.3,60.00729689
,,,,,,,,,,,,,,,,,,,,6,0,6,0,2,0,2,0,,,,,,,,,,,,,,,,,,,,,,,,,,,,,,,,,,,,,,,,,,,,,,,,,,,,,,,,,,,,,,,,,,,,,,0.1,,,,,,,,,,,,,,,,,,,,,,,,,,,,left,1,10,-30,-20,2,1926.092796,1926.092796,1926.092796,None,None,4,0,0.4802359,,,,,,,,,,,,,,,,,,,,,,10,19,2,2024-11-20_12h07.57.269,uWM_experiment,2022.2.3,60.00729689
,,,,,,,,,,,,,,,,,,,,6,0,6,0,3,0,3,0,,,,,,,,,,,,,,,,,,,,,,,,,,,,,,,,,,,,,,,,,,,,,,,,,,,,,,,,,,,,,,,,,,,,,,0,,,,,,,,,,,,,,,,,,,,,,,,,,,,right,0,70,-30,40,0,1932.726361,1932.726361,1932.726361,None,None,4,0,0.5025296,,,,,,,,,,,,,,,,,,,,,,10,19,2,2024-11-20_12h07.57.269,uWM_experiment,2022.2.3,60.00729689
,,,,,,,,,,,,,,,,,,,,6,0,6,0,4,0,4,0,,,,,,,,,,,,,,,,,,,,,,,,,,,,,,,,,,,,,,,,,,,,,,,,,,,,,,,,,,,,,,,,,,,,,,0,,,,,,,,,,,,,,,,,,,,,,,,,,,,right,1,40,30,70,0,1939.176628,1939.176628,1939.176628,None,None,4,0,0.4282611,,,,,,,,,,,,,,,,,,,,,,10,19,2,2024-11-20_12h07.57.269,uWM_experiment,2022.2.3,60.00729689
,,,,,,,,,,,,,,,,,,,,6,0,6,0,5,0,5,0,,,,,,,,,,,,,,,,,,,,,,,,,,,,,,,,,,,,,,,,,,,,,,,,,,,,,,,,,,,,,,,,,,,,,,0,,,,,,,,,,,,,,,,,,,,,,,,,,,,right,1,70,30,100,0,1945.810221,1945.810221,1945.810221,None,None,4,0,0.4186483,,,,,,,,,,,,,,,,,,,,,,10,19,2,2024-11-20_12h07.57.269,uWM_experiment,2022.2.3,60.00729689
,,,,,,,,,,,,,,,,,,,,6,0,6,0,6,0,6,0,,,,,,,,,,,,,,,,,,,,,,,,,,,,,,,,,,,,,,,,,,,,,,,,,,,,,,,,,,,,,,,,,,,,,,0,,,,,,,,,,,,,,,,,,,,,,,,,,,,left,1,160,-30,130,0,1952.010466,1952.010466,1952.010466,None,None,4,0,0.4423847,,,,,,,,,,,,,,,,,,,,,,10,19,2,2024-11-20_12h07.57.269,uWM_experiment,2022.2.3,60.00729689
,,,,,,,,,,,,,,,,,,,,6,0,6,0,7,0,7,0,,,,,,,,,,,,,,,,,,,,,,,,,,,,,,,,,,,,,,,,,,,,,,,,,,,,,,,,,,,,,,,,,,,,,,0.005,,,,,,,,,,,,,,,,,,,,,,,,,,,,right,1,10,30,40,1,1960.927456,1960.927456,1960.927456,None,None,4,0,0.5814059,,,,,,,,,,,,,,,,,,,,,,10,19,2,2024-11-20_12h07.57.269,uWM_experiment,2022.2.3,60.00729689
,,,,,,,,,,,,,,,,,,,,6,0,6,0,8,0,8,0,,,,,,,,,,,,,,,,,,,,,,,,,,,,,,,,,,,,,,,,,,,,,,,,,,,,,,,,,,,,,,,,,,,,,,0.005,,,,,,,,,,,,,,,,,,,,,,,,,,,,left,1,40,-30,10,1,1967.727735,1967.727735,1967.727735,None,None,4,0,0.5251282,,,,,,,,,,,,,,,,,,,,,,10,19,2,2024-11-20_12h07.57.269,uWM_experiment,2022.2.3,60.00729689
,,,,,,,,,,,,,,,,,,,,6,0,6,0,9,0,9,0,,,,,,,,,,,,,,,,,,,,,,,,,,,,,,,,,,,,,,,,,,,,,,,,,,,,,,,,,,,,,,,,,,,,,,0,,,,,,,,,,,,,,,,,,,,,,,,,,,,left,1,40,-30,10,0,1974.544653,1974.544653,1974.544653,None,None,4,0,0.5240822,,,,,,,,,,,,,,,,,,,,,,10,19,2,2024-11-20_12h07.57.269,uWM_experiment,2022.2.3,60.00729689
,,,,,,,,,,,,,,,,,,,,6,0,6,0,10,0,10,0,,,,,,,,,,,,,,,,,,,,,,,,,,,,,,,,,,,,,,,,,,,,,,,,,,,,,,,,,,,,,,,,,,,,,,0.005,,,,,,,,,,,,,,,,,,,,,,,,,,,,left,0,160,30,190,1,1980.811569,1980.811569,1980.811569,None,None,4,0,0.4651478,,,,,,,,,,,,,,,,,,,,,,10,19,2,2024-11-20_12h07.57.269,uWM_experiment,2022.2.3,60.00729689
,,,,,,,,,,,,,,,,,,,,6,0,6,0,11,0,11,0,,,,,,,,,,,,,,,,,,,,,,,,,,,,,,,,,,,,,,,,,,,,,,,,,,,,,,,,,,,,,,,,,,,,,,0.005,,,,,,,,,,,,,,,,,,,,,,,,,,,,left,0,70,30,100,1,1987.161809,1987.161809,1987.161809,None,None,4,0,0.4989515,,,,,,,,,,,,,,,,,,,,,,10,19,2,2024-11-20_12h07.57.269,uWM_experiment,2022.2.3,60.00729689
,,,,,,,,,,,,,,,,,,,,6,0,6,0,12,0,12,0,,,,,,,,,,,,,,,,,,,,,,,,,,,,,,,,,,,,,,,,,,,,,,,,,,,,,,,,,,,,,,,,,,,,,,0.005,,,,,,,,,,,,,,,,,,,,,,,,,,,,right,1,160,30,190,1,1993.428724,1993.428724,1993.428724,None,None,4,0,0.5358903,,,,,,,,,,,,,,,,,,,,,,10,19,2,2024-11-20_12h07.57.269,uWM_experiment,2022.2.3,60.00729689
,,,,,,,,,,,,,,,,,,,,6,0,6,0,13,0,13,0,,,,,,,,,,,,,,,,,,,,,,,,,,,,,,,,,,,,,,,,,,,,,,,,,,,,,,,,,,,,,,,,,,,,,,0.005,,,,,,,,,,,,,,,,,,,,,,,,,,,,left,1,10,-30,-20,1,2000.24564,2000.24564,2000.24564,None,None,4,0,0.5270138,,,,,,,,,,,,,,,,,,,,,,10,19,2,2024-11-20_12h07.57.269,uWM_experiment,2022.2.3,60.00729689
,,,,,,,,,,,,,,,,,,,,6,0,6,0,14,0,14,0,,,,,,,,,,,,,,,,,,,,,,,,,,,,,,,,,,,,,,,,,,,,,,,,,,,,,,,,,,,,,,,,,,,,,,0.005,,,,,,,,,,,,,,,,,,,,,,,,,,,,left,1,10,-30,-20,1,2006.562564,2006.562564,2006.562564,None,None,4,0,0.569997,,,,,,,,,,,,,,,,,,,,,,10,19,2,2024-11-20_12h07.57.269,uWM_experiment,2022.2.3,60.00729689
,,,,,,,,,,,,,,,,,,,,6,0,6,0,15,0,15,0,,,,,,,,,,,,,,,,,,,,,,,,,,,,,,,,,,,,,,,,,,,,,,,,,,,,,,,,,,,,,,,,,,,,,,0.005,,,,,,,,,,,,,,,,,,,,,,,,,,,,right,1,10,30,40,1,2012.762789,2012.762789,2012.762789,None,None,4,0,0.6338658,,,,,,,,,,,,,,,,,,,,,,10,19,2,2024-11-20_12h07.57.269,uWM_experiment,2022.2.3,60.00729689
,,,,,,,,,,,,,,,,,,,,6,0,6,0,16,0,16,0,,,,,,,,,,,,,,,,,,,,,,,,,,,,,,,,,,,,,,,,,,,,,,,,,,,,,,,,,,,,,,,,,,,,,,0.005,,,,,,,,,,,,,,,,,,,,,,,,,,,,left,1,130,-30,100,1,2019.279727,2019.279727,2019.279727,None,None,4,0,0.4768443,,,,,,,,,,,,,,,,,,,,,,10,19,2,2024-11-20_12h07.57.269,uWM_experiment,2022.2.3,60.00729689
,,,,,,,,,,,,,,,,,,,,6,0,6,0,17,0,17,0,,,,,,,,,,,,,,,,,,,,,,,,,,,,,,,,,,,,,,,,,,,,,,,,,,,,,,,,,,,,,,,,,,,,,,0.005,,,,,,,,,,,,,,,,,,,,,,,,,,,,right,0,100,-30,70,1,2025.46327,2025.46327,2025.46327,None,None,4,0,0.4772006,,,,,,,,,,,,,,,,,,,,,,10,19,2,2024-11-20_12h07.57.269,uWM_experiment,2022.2.3,60.00729689
,,,,,,,,,,,,,,,,,,,,6,0,6,0,18,0,18,0,,,,,,,,,,,,,,,,,,,,,,,,,,,,,,,,,,,,,,,,,,,,,,,,,,,,,,,,,,,,,,,,,,,,,,0.005,,,,,,,,,,,,,,,,,,,,,,,,,,,,right,0,100,-30,70,1,2031.963553,2031.963553,2031.963553,None,None,4,0,2.1048216,,,,,,,,,,,,,,,,,,,,,,10,19,2,2024-11-20_12h07.57.269,uWM_experiment,2022.2.3,60.00729689
,,,,,,,,,,,,,,,,,,,,6,0,6,0,19,0,19,0,,,,,,,,,,,,,,,,,,,,,,,,,,,,,,,,,,,,,,,,,,,,,,,,,,,,,,,,,,,,,,,,,,,,,,0,,,,,,,,,,,,,,,,,,,,,,,,,,,,right,0,100,-30,70,0,2039.963859,2039.963859,2039.963859,None,None,4,0,0.4165712,,,,,,,,,,,,,,,,,,,,,,10,19,2,2024-11-20_12h07.57.269,uWM_experiment,2022.2.3,60.00729689
,,,,,,,,,,,,,,,,,,,,6,0,6,0,20,0,20,0,,,,,,,,,,,,,,,,,,,,,,,,,,,,,,,,,,,,,,,,,,,,,,,,,,,,,,,,,,,,,,,,,,,,,,0.005,,,,,,,,,,,,,,,,,,,,,,,,,,,,left,0,160,30,190,1,2046.114082,2046.114082,2046.114082,None,None,4,0,0.4583622,,,,,,,,,,,,,,,,,,,,,,10,19,2,2024-11-20_12h07.57.269,uWM_experiment,2022.2.3,60.00729689
,,,,,,,,,,,,,,,,,,,,6,0,6,0,21,0,21,0,,,,,,,,,,,,,,,,,,,,,,,,,,,,,,,,,,,,,,,,,,,,,,,,,,,,,,,,,,,,,,,,,,,,,,0.005,,,,,,,,,,,,,,,,,,,,,,,,,,,,left,0,130,30,160,1,2052.364318,2052.364318,2052.364318,None,None,4,0,0.4960561,,,,,,,,,,,,,,,,,,,,,,10,19,2,2024-11-20_12h07.57.269,uWM_experiment,2022.2.3,60.00729689
,,,,,,,,,,,,,,,,,,,,6,0,6,0,22,0,22,0,,,,,,,,,,,,,,,,,,,,,,,,,,,,,,,,,,,,,,,,,,,,,,,,,,,,,,,,,,,,,,,,,,,,,,0.005,,,,,,,,,,,,,,,,,,,,,,,,,,,,left,0,130,30,160,1,2059.331258,2059.331258,2059.331258,None,None,4,0,0.481073,,,,,,,,,,,,,,,,,,,,,,10,19,2,2024-11-20_12h07.57.269,uWM_experiment,2022.2.3,60.00729689
,,,,,,,,,,,,,,,,,,,,6,0,6,0,23,0,23,0,,,,,,,,,,,,,,,,,,,,,,,,,,,,,,,,,,,,,,,,,,,,,,,,,,,,,,,,,,,,,,,,,,,,,,0.005,,,,,,,,,,,,,,,,,,,,,,,,,,,,left,0,70,30,100,1,2065.981532,2065.981532,2065.981532,None,None,4,0,0.486707,,,,,,,,,,,,,,,,,,,,,,10,19,2,2024-11-20_12h07.57.269,uWM_experiment,2022.2.3,60.00729689
,,,,,,,,,,,,,,,,,,,,6,0,6,0,,,,,0,0,0,0,,,,,,,,,,,,,,,,,,,,,,,,,,,,,,,,,,,,,,,,,,,,,,,,,,,,,,,,,,,,,,,,,,,,,,,,,,,,,,,,,,,,,,,,,,,,,,,,,,,,,,,,,,,,2066.498245,2066.498245,space,64.3537309,None,space,,,,,2130.883999,2130.883999,10.1438568,,,,,,,,,10,19,2,2024-11-20_12h07.57.269,uWM_experiment,2022.2.3,60.00729689
,,,,,,,,,,,,,,,,,,,,6,0,6,0,,,,,1,0,1,0,,,,,,,,,,,,,,,,,,,,,,,,,,,,,,,,,,,,,,,,,,,,,,,,,,,,,,,,,,,,,,,,,,,,,,,,,,,,,,,,,,,,,,,,,,,,,,,,,,,,,,,,,,,,,,,,,,,,,,,,,,,,,,,,,10,19,2,2024-11-20_12h07.57.269,uWM_experiment,2022.2.3,60.00729689
,,,,,,,,,,,,,,,,,,,,6,0,6,0,,,,,2,0,2,0,,,,,,,,,,,,,,,,,,,,,,,,,,,,,,,,,,,,,,,,,,,,,,,,,,,,,,,,,,,,,,,,,,,,,,,,,,,,,,,,,,,,,,,,,,,,,,,,,,,,,,,,,,,,,,,,,,,,,,,,,,,,,,,,,10,19,2,2024-11-20_12h07.57.269,uWM_experiment,2022.2.3,60.00729689
,,,,,,,,,,,,,,,,,,,,7,0,7,0,0,0,0,0,,,,,,,,,,,,,,,,,,,,,,,,,,,,,,,,,,,,,,,,,,,,,,,,,,,,,,,,,,,,,,,,,,,,,,0.005,,,,,,,,,,,,,,,,,,,,2154.318266,2155.018268,2155.301631,2156.001645,2156.301653,2157.001701,2157.001701,2157.318377,right,1,130,30,160,1,2164.235306,2164.235306,2164.235306,None,None,1,1,2.528484,,,,,,,space,,,,,,,2149.334731,2149.334731,4.957027,,,,,,10,19,2,2024-11-20_12h07.57.269,uWM_experiment,2022.2.3,60.00729689
,,,,,,,,,,,,,,,,,,,,7,0,7,0,1,0,1,0,,,,,,,,,,,,,,,,,,,,,,,,,,,,,,,,,,,,,,,,,,,,,,,,,,,,,,,,,,,,,,,,,,,,,,0,,,,,,,,,,,,,,,,,,,,,,,,,,,,left,0,70,30,100,0,2174.1857,2174.1857,2174.1857,None,None,4,0,2.2099841,,,,,,,,,,,,,,,,,,,,,,10,19,2,2024-11-20_12h07.57.269,uWM_experiment,2022.2.3,60.00729689
,,,,,,,,,,,,,,,,,,,,7,0,7,0,2,0,2,0,,,,,,,,,,,,,,,,,,,,,,,,,,,,,,,,,,,,,,,,,,,,,,,,,,,,,,,,,,,,,,,,,,,,,,0.1,,,,,,,,,,,,,,,,,,,,,,,,,,,,left,0,160,30,190,2,2185.186127,2185.186127,2185.186127,None,None,4,0,0.4975912,,,,,,,,,,,,,,,,,,,,,,10,19,2,2024-11-20_12h07.57.269,uWM_experiment,2022.2.3,60.00729689
,,,,,,,,,,,,,,,,,,,,7,0,7,0,3,0,3,0,,,,,,,,,,,,,,,,,,,,,,,,,,,,,,,,,,,,,,,,,,,,,,,,,,,,,,,,,,,,,,,,,,,,,,0.015,,,,,,,,,,,,,,,,,,,,,,,,,,,,right,1,40,30,70,1,2197.503254,2197.503254,2197.503254,None,None,4,0,0.7882523,,,,,,,,,,,,,,,,,,,,,,10,19,2,2024-11-20_12h07.57.269,uWM_experiment,2022.2.3,60.00729689
,,,,,,,,,,,,,,,,,,,,7,0,7,0,4,0,4,0,,,,,,,,,,,,,,,,,,,,,,,,,,,,,,,,,,,,,,,,,,,,,,,,,,,,,,,,,,,,,,,,,,,,,,0.005,,,,,,,,,,,,,,,,,,,,,,,,,,,,right,0,100,-30,70,1,2206.386911,2206.386911,2206.386911,None,None,4,0,0.5205689,,,,,,,,,,,,,,,,,,,,,,10,19,2,2024-11-20_12h07.57.269,uWM_experiment,2022.2.3,60.00729689
,,,,,,,,,,,,,,,,,,,,7,0,7,0,5,0,5,0,,,,,,,,,,,,,,,,,,,,,,,,,,,,,,,,,,,,,,,,,,,,,,,,,,,,,,,,,,,,,,,,,,,,,,0.1,,,,,,,,,,,,,,,,,,,,,,,,,,,,left,1,130,-30,100,2,2213.870556,2213.870556,2213.870556,None,None,4,0,2.604835,,,,,,,,,,,,,,,,,,,,,,10,19,2,2024-11-20_12h07.57.269,uWM_experiment,2022.2.3,60.00729689
,,,,,,,,,,,,,,,,,,,,7,0,7,0,6,0,6,0,,,,,,,,,,,,,,,,,,,,,,,,,,,,,,,,,,,,,,,,,,,,,,,,,,,,,,,,,,,,,,,,,,,,,,0.005,,,,,,,,,,,,,,,,,,,,,,,,,,,,right,0,70,-30,40,1,2223.437594,2223.437594,2223.437594,None,None,4,0,0.4697332,,,,,,,,,,,,,,,,,,,,,,10,19,2,2024-11-20_12h07.57.269,uWM_experiment,2022.2.3,60.00729689
,,,,,,,,,,,,,,,,,,,,7,0,7,0,7,0,7,0,,,,,,,,,,,,,,,,,,,,,,,,,,,,,,,,,,,,,,,,,,,,,,,,,,,,,,,,,,,,,,,,,,,,,,0,,,,,,,,,,,,,,,,,,,,,,,,,,,,left,0,10,30,40,0,2230.937893,2230.937893,2230.937893,None,None,4,0,0.5614987,,,,,,,,,,,,,,,,,,,,,,10,19,2,2024-11-20_12h07.57.269,uWM_experiment,2022.2.3,60.00729689
,,,,,,,,,,,,,,,,,,,,7,0,7,0,8,0,8,0,,,,,,,,,,,,,,,,,,,,,,,,,,,,,,,,,,,,,,,,,,,,,,,,,,,,,,,,,,,,,,,,,,,,,,0,,,,,,,,,,,,,,,,,,,,,,,,,,,,right,1,40,30,70,0,2237.654792,2237.654792,2237.654792,None,None,4,0,0.4766122,,,,,,,,,,,,,,,,,,,,,,10,19,2,2024-11-20_12h07.57.269,uWM_experiment,2022.2.3,60.00729689
,,,,,,,,,,,,,,,,,,,,7,0,7,0,9,0,9,0,,,,,,,,,,,,,,,,,,,,,,,,,,,,,,,,,,,,,,,,,,,,,,,,,,,,,,,,,,,,,,,,,,,,,,0.005,,,,,,,,,,,,,,,,,,,,,,,,,,,,left,1,70,-30,40,1,2244.621735,2244.621735,2244.621735,None,None,4,0,0.5175156,,,,,,,,,,,,,,,,,,,,,,10,19,2,2024-11-20_12h07.57.269,uWM_experiment,2022.2.3,60.00729689
,,,,,,,,,,,,,,,,,,,,7,0,7,0,10,0,10,0,,,,,,,,,,,,,,,,,,,,,,,,,,,,,,,,,,,,,,,,,,,,,,,,,,,,,,,,,,,,,,,,,,,,,,0.005,,,,,,,,,,,,,,,,,,,,,,,,,,,,right,0,100,-30,70,1,2250.905318,2250.905318,2250.905318,None,None,4,0,0.4899338,,,,,,,,,,,,,,,,,,,,,,10,19,2,2024-11-20_12h07.57.269,uWM_experiment,2022.2.3,60.00729689
,,,,,,,,,,,,,,,,,,,,7,0,7,0,11,0,11,0,,,,,,,,,,,,,,,,,,,,,,,,,,,,,,,,,,,,,,,,,,,,,,,,,,,,,,,,,,,,,,,,,,,,,,0,,,,,,,,,,,,,,,,,,,,,,,,,,,,right,0,100,-30,70,0,2257.305564,2257.305564,2257.305564,None,None,4,0,0.4736557,,,,,,,,,,,,,,,,,,,,,,10,19,2,2024-11-20_12h07.57.269,uWM_experiment,2022.2.3,60.00729689
,,,,,,,,,,,,,,,,,,,,7,0,7,0,12,0,12,0,,,,,,,,,,,,,,,,,,,,,,,,,,,,,,,,,,,,,,,,,,,,,,,,,,,,,,,,,,,,,,,,,,,,,,0,,,,,,,,,,,,,,,,,,,,,,,,,,,,left,0,100,30,130,0,2263.722468,2263.722468,2263.722468,None,None,4,0,0.4648089,,,,,,,,,,,,,,,,,,,,,,10,19,2,2024-11-20_12h07.57.269,uWM_experiment,2022.2.3,60.00729689
,,,,,,,,,,,,,,,,,,,,7,0,7,0,13,0,13,0,,,,,,,,,,,,,,,,,,,,,,,,,,,,,,,,,,,,,,,,,,,,,,,,,,,,,,,,,,,,,,,,,,,,,,0.005,,,,,,,,,,,,,,,,,,,,,,,,,,,,right,1,40,30,70,1,2270.156062,2270.156062,2270.156062,None,None,4,0,0.463153,,,,,,,,,,,,,,,,,,,,,,10,19,2,2024-11-20_12h07.57.269,uWM_experiment,2022.2.3,60.00729689
,,,,,,,,,,,,,,,,,,,,7,0,7,0,14,0,14,0,,,,,,,,,,,,,,,,,,,,,,,,,,,,,,,,,,,,,,,,,,,,,,,,,,,,,,,,,,,,,,,,,,,,,,0.005,,,,,,,,,,,,,,,,,,,,,,,,,,,,left,0,100,30,130,1,2278.139686,2278.139686,2278.139686,None,None,4,0,0.7754431,,,,,,,,,,,,,,,,,,,,,,10,19,2,2024-11-20_12h07.57.269,uWM_experiment,2022.2.3,60.00729689
,,,,,,,,,,,,,,,,,,,,7,0,7,0,15,0,15,0,,,,,,,,,,,,,,,,,,,,,,,,,,,,,,,,,,,,,,,,,,,,,,,,,,,,,,,,,,,,,,,,,,,,,,0.1,,,,,,,,,,,,,,,,,,,,,,,,,,,,left,0,70,30,100,2,2286.340016,2286.340016,2286.340016,None,None,4,0,0.6550582,,,,,,,,,,,,,,,,,,,,,,10,19,2,2024-11-20_12h07.57.269,uWM_experiment,2022.2.3,60.00729689
,,,,,,,,,,,,,,,,,,,,7,0,7,0,16,0,16,0,,,,,,,,,,,,,,,,,,,,,,,,,,,,,,,,,,,,,,,,,,,,,,,,,,,,,,,,,,,,,,,,,,,,,,0.005,,,,,,,,,,,,,,,,,,,,,,,,,,,,right,1,40,30,70,1,2292.656914,2292.656914,2292.656914,None,None,4,0,0.5700712,,,,,,,,,,,,,,,,,,,,,,10,19,2,2024-11-20_12h07.57.269,uWM_experiment,2022.2.3,60.00729689
,,,,,,,,,,,,,,,,,,,,7,0,7,0,17,0,17,0,,,,,,,,,,,,,,,,,,,,,,,,,,,,,,,,,,,,,,,,,,,,,,,,,,,,,,,,,,,,,,,,,,,,,,0.1,,,,,,,,,,,,,,,,,,,,,,,,,,,,left,0,70,30,100,2,2299.723857,2299.723857,2299.723857,None,None,4,0,2.3271791,,,,,,,,,,,,,,,,,,,,,,10,19,2,2024-11-20_12h07.57.269,uWM_experiment,2022.2.3,60.00729689
,,,,,,,,,,,,,,,,,,,,7,0,7,0,18,0,18,0,,,,,,,,,,,,,,,,,,,,,,,,,,,,,,,,,,,,,,,,,,,,,,,,,,,,,,,,,,,,,,,,,,,,,,0.005,,,,,,,,,,,,,,,,,,,,,,,,,,,,right,0,130,-30,100,1,2309.224218,2309.224218,2309.224218,None,None,4,0,0.6828006,,,,,,,,,,,,,,,,,,,,,,10,19,2,2024-11-20_12h07.57.269,uWM_experiment,2022.2.3,60.00729689
,,,,,,,,,,,,,,,,,,,,7,0,7,0,19,0,19,0,,,,,,,,,,,,,,,,,,,,,,,,,,,,,,,,,,,,,,,,,,,,,,,,,,,,,,,,,,,,,,,,,,,,,,0.005,,,,,,,,,,,,,,,,,,,,,,,,,,,,left,1,10,-30,-20,1,2317.991273,2317.991273,2317.991273,None,None,4,0,0.5396355,,,,,,,,,,,,,,,,,,,,,,10,19,2,2024-11-20_12h07.57.269,uWM_experiment,2022.2.3,60.00729689
,,,,,,,,,,,,,,,,,,,,7,0,7,0,20,0,20,0,,,,,,,,,,,,,,,,,,,,,,,,,,,,,,,,,,,,,,,,,,,,,,,,,,,,,,,,,,,,,,,,,,,,,,0,,,,,,,,,,,,,,,,,,,,,,,,,,,,left,1,160,-30,130,0,2327.091553,2327.091553,2327.091553,None,None,4,0,0.4952651,,,,,,,,,,,,,,,,,,,,,,10,19,2,2024-11-20_12h07.57.269,uWM_experiment,2022.2.3,60.00729689
,,,,,,,,,,,,,,,,,,,,7,0,7,0,21,0,21,0,,,,,,,,,,,,,,,,,,,,,,,,,,,,,,,,,,,,,,,,,,,,,,,,,,,,,,,,,,,,,,,,,,,,,,0.005,,,,,,,,,,,,,,,,,,,,,,,,,,,,right,1,160,30,190,1,2333.47521,2333.47521,2333.47521,None,None,4,0,0.5436057,,,,,,,,,,,,,,,,,,,,,,10,19,2,2024-11-20_12h07.57.269,uWM_experiment,2022.2.3,60.00729689
,,,,,,,,,,,,,,,,,,,,7,0,7,0,22,0,22,0,,,,,,,,,,,,,,,,,,,,,,,,,,,,,,,,,,,,,,,,,,,,,,,,,,,,,,,,,,,,,,,,,,,,,,0,,,,,,,,,,,,,,,,,,,,,,,,,,,,right,0,130,-30,100,0,2344.375584,2344.375584,2344.375584,None,None,4,0,2.2191283,,,,,,,,,,,,,,,,,,,,,,10,19,2,2024-11-20_12h07.57.269,uWM_experiment,2022.2.3,60.00729689
,,,,,,,,,,,,,,,,,,,,7,0,7,0,23,0,23,0,,,,,,,,,,,,,,,,,,,,,,,,,,,,,,,,,,,,,,,,,,,,,,,,,,,,,,,,,,,,,,,,,,,,,,0.005,,,,,,,,,,,,,,,,,,,,,,,,,,,,left,0,70,30,100,1,2356.176025,2356.176025,2356.176025,None,None,4,0,0.586635,,,,,,,,,,,,,,,,,,,,,,10,19,2,2024-11-20_12h07.57.269,uWM_experiment,2022.2.3,60.00729689
,,,,,,,,,,,,,,,,,,,,7,0,7,0,,,,,0,0,0,0,,,,,,,,,,,,,,,,,,,,,,,,,,,,,,,,,,,,,,,,,,,,,,,,,,,,,,,,,,,,,,,,,,,,,,,,,,,,,,,,,,,,,,,,,,,,,,,,,,,,,,,,,,,,2356.792703,2356.792703,space,431.6957421,None,None,,,,,,,,,,,,,,,,10,19,2,2024-11-20_12h07.57.269,uWM_experiment,2022.2.3,60.00729689
,,,,,,,,,,,,,,,,,,,,7,0,7,0,,,,,1,0,1,0,,,,,,,,,,,,,,,,,,,,,,,,,,,,,,,,,,,,,,,,,,,,,,,,,,,,,,,,,,,,,,,,,,,,,,,,,,,,,,,,,,,,,,,,,,,,,,,,,,,,,,,,,,,,,,,,,,,,,,,,,,,,,,,,,10,19,2,2024-11-20_12h07.57.269,uWM_experiment,2022.2.3,60.00729689
,,,,,,,,,,,,,,,,,,,,7,0,7,0,,,,,2,0,2,0,,,,,,,,,,,,,,,,,,,,,,,,,,,,,,,,,,,,,,,,,,,,,,,,,,,,,,,,,,,,,,,,,,,,,,,,,,,,,,,,,,,,,,,,,,,,,,,,,,,,,,,,,,,,,,,,,,,,,,,,,,,,,,,,,10,19,2,2024-11-20_12h07.57.269,uWM_experiment,2022.2.3,60.00729689
,,,,,,,,,,,,,,,,,,,,8,0,8,0,0,0,0,0,,,,,,,,,,,,,,,,,,,,,,,,,,,,,,,,,,,,,,,,,,,,,,,,,,,,,,,,,,,,,,,,,,,,,,0.005,,,,,,,,,,,,,,,,,,,,2788.509387,2789.209379,2789.509403,2790.209415,2790.509428,2791.209474,2791.209474,2791.526145,right,1,130,30,160,1,2798.009743,2798.009743,2798.009743,None,None,4,0,2.3505975,,,,,,,None,,,,,,,,,,,,,,,10,19,2,2024-11-20_12h07.57.269,uWM_experiment,2022.2.3,60.00729689
,,,,,,,,,,,,,,,,,,,,8,0,8,0,1,0,1,0,,,,,,,,,,,,,,,,,,,,,,,,,,,,,,,,,,,,,,,,,,,,,,,,,,,,,,,,,,,,,,,,,,,,,,0.005,,,,,,,,,,,,,,,,,,,,,,,,,,,,left,0,70,30,100,1,2806.376726,2806.376726,2806.376726,None,None,4,0,0.4874626,,,,,,,,,,,,,,,,,,,,,,10,19,2,2024-11-20_12h07.57.269,uWM_experiment,2022.2.3,60.00729689
,,,,,,,,,,,,,,,,,,,,8,0,8,0,2,0,2,0,,,,,,,,,,,,,,,,,,,,,,,,,,,,,,,,,,,,,,,,,,,,,,,,,,,,,,,,,,,,,,,,,,,,,,0,,,,,,,,,,,,,,,,,,,,,,,,,,,,left,1,130,-30,100,0,2813.02697,2813.02697,2813.02697,None,None,4,0,0.4933163,,,,,,,,,,,,,,,,,,,,,,10,19,2,2024-11-20_12h07.57.269,uWM_experiment,2022.2.3,60.00729689
,,,,,,,,,,,,,,,,,,,,8,0,8,0,3,0,3,0,,,,,,,,,,,,,,,,,,,,,,,,,,,,,,,,,,,,,,,,,,,,,,,,,,,,,,,,,,,,,,,,,,,,,,0.005,,,,,,,,,,,,,,,,,,,,,,,,,,,,right,0,10,-30,-20,1,2819.327232,2819.327232,2819.327232,None,None,4,0,0.4410014,,,,,,,,,,,,,,,,,,,,,,10,19,2,2024-11-20_12h07.57.269,uWM_experiment,2022.2.3,60.00729689
,,,,,,,,,,,,,,,,,,,,8,0,8,0,4,0,4,0,,,,,,,,,,,,,,,,,,,,,,,,,,,,,,,,,,,,,,,,,,,,,,,,,,,,,,,,,,,,,,,,,,,,,,0,,,,,,,,,,,,,,,,,,,,,,,,,,,,right,0,70,-30,40,0,2825.460788,2825.460788,2825.460788,None,None,4,0,0.4834609,,,,,,,,,,,,,,,,,,,,,,10,19,2,2024-11-20_12h07.57.269,uWM_experiment,2022.2.3,60.00729689
,,,,,,,,,,,,,,,,,,,,8,0,8,0,5,0,5,0,,,,,,,,,,,,,,,,,,,,,,,,,,,,,,,,,,,,,,,,,,,,,,,,,,,,,,,,,,,,,,,,,,,,,,0.005,,,,,,,,,,,,,,,,,,,,,,,,,,,,left,0,70,30,100,1,2831.627689,2831.627689,2831.627689,None,None,4,0,0.4844138,,,,,,,,,,,,,,,,,,,,,,10,19,2,2024-11-20_12h07.57.269,uWM_experiment,2022.2.3,60.00729689
,,,,,,,,,,,,,,,,,,,,8,0,8,0,6,0,6,0,,,,,,,,,,,,,,,,,,,,,,,,,,,,,,,,,,,,,,,,,,,,,,,,,,,,,,,,,,,,,,,,,,,,,,0.005,,,,,,,,,,,,,,,,,,,,,,,,,,,,left,1,160,-30,130,1,2837.811256,2837.811256,2837.811256,None,None,4,0,0.4448428,,,,,,,,,,,,,,,,,,,,,,10,19,2,2024-11-20_12h07.57.269,uWM_experiment,2022.2.3,60.00729689
,,,,,,,,,,,,,,,,,,,,8,0,8,0,7,0,7,0,,,,,,,,,,,,,,,,,,,,,,,,,,,,,,,,,,,,,,,,,,,,,,,,,,,,,,,,,,,,,,,,,,,,,,0.005,,,,,,,,,,,,,,,,,,,,,,,,,,,,right,0,10,-30,-20,1,2845.444895,2845.444895,2845.444895,None,None,4,0,0.5870897,,,,,,,,,,,,,,,,,,,,,,10,19,2,2024-11-20_12h07.57.269,uWM_experiment,2022.2.3,60.00729689
,,,,,,,,,,,,,,,,,,,,8,0,8,0,8,0,8,0,,,,,,,,,,,,,,,,,,,,,,,,,,,,,,,,,,,,,,,,,,,,,,,,,,,,,,,,,,,,,,,,,,,,,,0.005,,,,,,,,,,,,,,,,,,,,,,,,,,,,right,0,100,-30,70,1,2851.528463,2851.528463,2851.528463,None,None,4,0,0.4874993,,,,,,,,,,,,,,,,,,,,,,10,19,2,2024-11-20_12h07.57.269,uWM_experiment,2022.2.3,60.00729689
,,,,,,,,,,,,,,,,,,,,8,0,8,0,9,0,9,0,,,,,,,,,,,,,,,,,,,,,,,,,,,,,,,,,,,,,,,,,,,,,,,,,,,,,,,,,,,,,,,,,,,,,,0.1,,,,,,,,,,,,,,,,,,,,,,,,,,,,left,1,70,-30,40,2,2858.078703,2858.078703,2858.078703,None,None,4,0,0.4252628,,,,,,,,,,,,,,,,,,,,,,10,19,2,2024-11-20_12h07.57.269,uWM_experiment,2022.2.3,60.00729689
,,,,,,,,,,,,,,,,,,,,8,0,8,0,10,0,10,0,,,,,,,,,,,,,,,,,,,,,,,,,,,,,,,,,,,,,,,,,,,,,,,,,,,,,,,,,,,,,,,,,,,,,,0.005,,,,,,,,,,,,,,,,,,,,,,,,,,,,left,1,40,-30,10,1,2864.328966,2864.328966,2864.328966,None,None,4,0,0.4150076,,,,,,,,,,,,,,,,,,,,,,10,19,2,2024-11-20_12h07.57.269,uWM_experiment,2022.2.3,60.00729689
,,,,,,,,,,,,,,,,,,,,8,0,8,0,11,0,11,0,,,,,,,,,,,,,,,,,,,,,,,,,,,,,,,,,,,,,,,,,,,,,,,,,,,,,,,,,,,,,,,,,,,,,,0.005,,,,,,,,,,,,,,,,,,,,,,,,,,,,left,0,160,30,190,1,2870.512523,2870.512523,2870.512523,None,None,4,0,0.4234049,,,,,,,,,,,,,,,,,,,,,,10,19,2,2024-11-20_12h07.57.269,uWM_experiment,2022.2.3,60.00729689
,,,,,,,,,,,,,,,,,,,,8,0,8,0,12,0,12,0,,,,,,,,,,,,,,,,,,,,,,,,,,,,,,,,,,,,,,,,,,,,,,,,,,,,,,,,,,,,,,,,,,,,,,0.005,,,,,,,,,,,,,,,,,,,,,,,,,,,,left,0,130,30,160,1,2876.612751,2876.612751,2876.612751,None,None,4,0,0.5071463,,,,,,,,,,,,,,,,,,,,,,10,19,2,2024-11-20_12h07.57.269,uWM_experiment,2022.2.3,60.00729689
,,,,,,,,,,,,,,,,,,,,8,0,8,0,13,0,13,0,,,,,,,,,,,,,,,,,,,,,,,,,,,,,,,,,,,,,,,,,,,,,,,,,,,,,,,,,,,,,,,,,,,,,,0.005,,,,,,,,,,,,,,,,,,,,,,,,,,,,left,0,130,30,160,1,2882.763029,2882.763029,2882.763029,None,None,4,0,0.452805,,,,,,,,,,,,,,,,,,,,,,10,19,2,2024-11-20_12h07.57.269,uWM_experiment,2022.2.3,60.00729689
,,,,,,,,,,,,,,,,,,,,8,0,8,0,14,0,14,0,,,,,,,,,,,,,,,,,,,,,,,,,,,,,,,,,,,,,,,,,,,,,,,,,,,,,,,,,,,,,,,,,,,,,,0.005,,,,,,,,,,,,,,,,,,,,,,,,,,,,left,0,130,30,160,1,2888.813218,2888.813218,2888.813218,None,None,4,0,0.4345495,,,,,,,,,,,,,,,,,,,,,,10,19,2,2024-11-20_12h07.57.269,uWM_experiment,2022.2.3,60.00729689
,,,,,,,,,,,,,,,,,,,,8,0,8,0,15,0,15,0,,,,,,,,,,,,,,,,,,,,,,,,,,,,,,,,,,,,,,,,,,,,,,,,,,,,,,,,,,,,,,,,,,,,,,0,,,,,,,,,,,,,,,,,,,,,,,,,,,,right,1,10,30,40,0,2894.730125,2894.730125,2894.730125,None,None,4,0,0.5097081,,,,,,,,,,,,,,,,,,,,,,10,19,2,2024-11-20_12h07.57.269,uWM_experiment,2022.2.3,60.00729689
,,,,,,,,,,,,,,,,,,,,8,0,8,0,16,0,16,0,,,,,,,,,,,,,,,,,,,,,,,,,,,,,,,,,,,,,,,,,,,,,,,,,,,,,,,,,,,,,,,,,,,,,,0.005,,,,,,,,,,,,,,,,,,,,,,,,,,,,left,1,10,-30,-20,1,2900.863714,2900.863714,2900.863714,None,None,4,0,0.4561704,,,,,,,,,,,,,,,,,,,,,,10,19,2,2024-11-20_12h07.57.269,uWM_experiment,2022.2.3,60.00729689
,,,,,,,,,,,,,,,,,,,,8,0,8,0,17,0,17,0,,,,,,,,,,,,,,,,,,,,,,,,,,,,,,,,,,,,,,,,,,,,,,,,,,,,,,,,,,,,,,,,,,,,,,0,,,,,,,,,,,,,,,,,,,,,,,,,,,,right,1,40,30,70,0,2906.863939,2906.863939,2906.863939,None,None,4,0,0.4398524,,,,,,,,,,,,,,,,,,,,,,10,19,2,2024-11-20_12h07.57.269,uWM_experiment,2022.2.3,60.00729689
,,,,,,,,,,,,,,,,,,,,8,0,8,0,18,0,18,0,,,,,,,,,,,,,,,,,,,,,,,,,,,,,,,,,,,,,,,,,,,,,,,,,,,,,,,,,,,,,,,,,,,,,,0.005,,,,,,,,,,,,,,,,,,,,,,,,,,,,right,0,100,-30,70,1,2912.897473,2912.897473,2912.897473,None,None,4,0,0.4141654,,,,,,,,,,,,,,,,,,,,,,10,19,2,2024-11-20_12h07.57.269,uWM_experiment,2022.2.3,60.00729689
,,,,,,,,,,,,,,,,,,,,8,0,8,0,19,0,19,0,,,,,,,,,,,,,,,,,,,,,,,,,,,,,,,,,,,,,,,,,,,,,,,,,,,,,,,,,,,,,,,,,,,,,,0.005,,,,,,,,,,,,,,,,,,,,,,,,,,,,left,1,160,-30,130,1,2918.997735,2918.997735,2918.997735,None,None,4,0,0.4579362,,,,,,,,,,,,,,,,,,,,,,10,19,2,2024-11-20_12h07.57.269,uWM_experiment,2022.2.3,60.00729689
,,,,,,,,,,,,,,,,,,,,8,0,8,0,20,0,20,0,,,,,,,,,,,,,,,,,,,,,,,,,,,,,,,,,,,,,,,,,,,,,,,,,,,,,,,,,,,,,,,,,,,,,,0.005,,,,,,,,,,,,,,,,,,,,,,,,,,,,right,0,130,-30,100,1,2929.398126,2929.398126,2929.398126,None,None,4,0,0.441431,,,,,,,,,,,,,,,,,,,,,,10,19,2,2024-11-20_12h07.57.269,uWM_experiment,2022.2.3,60.00729689
,,,,,,,,,,,,,,,,,,,,8,0,8,0,21,0,21,0,,,,,,,,,,,,,,,,,,,,,,,,,,,,,,,,,,,,,,,,,,,,,,,,,,,,,,,,,,,,,,,,,,,,,,0.005,,,,,,,,,,,,,,,,,,,,,,,,,,,,left,1,70,-30,40,1,2935.698383,2935.698383,2935.698383,None,None,4,0,0.5011439,,,,,,,,,,,,,,,,,,,,,,10,19,2,2024-11-20_12h07.57.269,uWM_experiment,2022.2.3,60.00729689
,,,,,,,,,,,,,,,,,,,,8,0,8,0,22,0,22,0,,,,,,,,,,,,,,,,,,,,,,,,,,,,,,,,,,,,,,,,,,,,,,,,,,,,,,,,,,,,,,,,,,,,,,0,,,,,,,,,,,,,,,,,,,,,,,,,,,,left,0,130,30,160,0,2941.765277,2941.765277,2941.765277,None,None,4,0,0.4422879,,,,,,,,,,,,,,,,,,,,,,10,19,2,2024-11-20_12h07.57.269,uWM_experiment,2022.2.3,60.00729689
,,,,,,,,,,,,,,,,,,,,8,0,8,0,23,0,23,0,,,,,,,,,,,,,,,,,,,,,,,,,,,,,,,,,,,,,,,,,,,,,,,,,,,,,,,,,,,,,,,,,,,,,,0.005,,,,,,,,,,,,,,,,,,,,,,,,,,,,left,1,130,-30,100,1,2947.798835,2947.798835,2947.798835,None,None,4,0,0.4646277,,,,,,,,,,,,,,,,,,,,,,10,19,2,2024-11-20_12h07.57.269,uWM_experiment,2022.2.3,60.00729689
,,,,,,,,,,,,,,,,,,,,8,0,8,0,,,,,0,0,0,0,,,,,,,,,,,,,,,,,,,,,,,,,,,,,,,,,,,,,,,,,,,,,,,,,,,,,,,,,,,,,,,,,,,,,,,,,,,,,,,,,,,,,,,,,,,,,,,,,,,,,,,,,,,,2948.282177,2948.282177,space,2.4613931,space,None,,2950.765663,2950.765663,3.2898252,,,,,,,,,,,,10,19,2,2024-11-20_12h07.57.269,uWM_experiment,2022.2.3,60.00729689
,,,,,,,,,,,,,,,,,,,,8,0,8,0,,,,,1,0,1,0,,,,,,,,,,,,,,,,,,,,,,,,,,,,,,,,,,,,,,,,,,,,,,,,,,,,,,,,,,,,,,,,,,,,,,,,,,,,,,,,,,,,,,,,,,,,,,,,,,,,,,,,,,,,,,,,,,,,,,,,,,,,,,,,,10,19,2,2024-11-20_12h07.57.269,uWM_experiment,2022.2.3,60.00729689
,,,,,,,,,,,,,,,,,,,,8,0,8,0,,,,,2,0,2,0,,,,,,,,,,,,,,,,,,,,,,,,,,,,,,,,,,,,,,,,,,,,,,,,,,,,,,,,,,,,,,,,,,,,,,,,,,,,,,,,,,,,,,,,,,,,,,,,,,,,,,,,,,,,,,,,,,,,,,,,,,,,,,,,,10,19,2,2024-11-20_12h07.57.269,uWM_experiment,2022.2.3,60.00729689
,,,,,,,,,,,,,,,,,,,,9,0,9,0,0,0,0,0,,,,,,,,,,,,,,,,,,,,,,,,,,,,,,,,,,,,,,,,,,,,,,,,,,,,,,,,,,,,,,,,,,,,,,0.005,,,,,,,,,,,,,,,,,,,,2954.082408,2954.782418,2955.082446,2955.782487,2956.082484,2956.782526,2956.782526,2957.099225,right,0,70,-30,40,1,2961.466031,2961.466031,2961.466031,None,None,4,0,0.9335639,,,,,,,None,,,,,,,,,,,,,,,10,19,2,2024-11-20_12h07.57.269,uWM_experiment,2022.2.3,60.00729689
,,,,,,,,,,,,,,,,,,,,9,0,9,0,1,0,1,0,,,,,,,,,,,,,,,,,,,,,,,,,,,,,,,,,,,,,,,,,,,,,,,,,,,,,,,,,,,,,,,,,,,,,,0.005,,,,,,,,,,,,,,,,,,,,,,,,,,,,right,0,100,-30,70,1,2968.516361,2968.516361,2968.516361,None,None,4,0,0.4350034,,,,,,,,,,,,,,,,,,,,,,10,19,2,2024-11-20_12h07.57.269,uWM_experiment,2022.2.3,60.00729689
,,,,,,,,,,,,,,,,,,,,9,0,9,0,2,0,2,0,,,,,,,,,,,,,,,,,,,,,,,,,,,,,,,,,,,,,,,,,,,,,,,,,,,,,,,,,,,,,,,,,,,,,,0.005,,,,,,,,,,,,,,,,,,,,,,,,,,,,right,0,100,-30,70,1,2974.499861,2974.499861,2974.499861,None,None,4,0,0.4994883,,,,,,,,,,,,,,,,,,,,,,10,19,2,2024-11-20_12h07.57.269,uWM_experiment,2022.2.3,60.00729689
,,,,,,,,,,,,,,,,,,,,9,0,9,0,3,0,3,0,,,,,,,,,,,,,,,,,,,,,,,,,,,,,,,,,,,,,,,,,,,,,,,,,,,,,,,,,,,,,,,,,,,,,,0.005,,,,,,,,,,,,,,,,,,,,,,,,,,,,left,1,70,-30,40,1,2980.800163,2980.800163,2980.800163,None,None,4,0,0.4791009,,,,,,,,,,,,,,,,,,,,,,10,19,2,2024-11-20_12h07.57.269,uWM_experiment,2022.2.3,60.00729689
,,,,,,,,,,,,,,,,,,,,9,0,9,0,4,0,4,0,,,,,,,,,,,,,,,,,,,,,,,,,,,,,,,,,,,,,,,,,,,,,,,,,,,,,,,,,,,,,,,,,,,,,,0,,,,,,,,,,,,,,,,,,,,,,,,,,,,left,1,40,-30,10,0,2986.933692,2986.933692,2986.933692,None,None,4,0,0.4896087,,,,,,,,,,,,,,,,,,,,,,10,19,2,2024-11-20_12h07.57.269,uWM_experiment,2022.2.3,60.00729689
,,,,,,,,,,,,,,,,,,,,9,0,9,0,5,0,5,0,,,,,,,,,,,,,,,,,,,,,,,,,,,,,,,,,,,,,,,,,,,,,,,,,,,,,,,,,,,,,,,,,,,,,,0,,,,,,,,,,,,,,,,,,,,,,,,,,,,right,1,10,30,40,0,2993.03393,2993.03393,2993.03393,None,None,4,0,0.4613426,,,,,,,,,,,,,,,,,,,,,,10,19,2,2024-11-20_12h07.57.269,uWM_experiment,2022.2.3,60.00729689
,,,,,,,,,,,,,,,,,,,,9,0,9,0,6,0,6,0,,,,,,,,,,,,,,,,,,,,,,,,,,,,,,,,,,,,,,,,,,,,,,,,,,,,,,,,,,,,,,,,,,,,,,0.005,,,,,,,,,,,,,,,,,,,,,,,,,,,,left,0,160,30,190,1,2999.250827,2999.250827,2999.250827,None,None,4,0,0.412453,,,,,,,,,,,,,,,,,,,,,,10,19,2,2024-11-20_12h07.57.269,uWM_experiment,2022.2.3,60.00729689
,,,,,,,,,,,,,,,,,,,,9,0,9,0,7,0,7,0,,,,,,,,,,,,,,,,,,,,,,,,,,,,,,,,,,,,,,,,,,,,,,,,,,,,,,,,,,,,,,,,,,,,,,0,,,,,,,,,,,,,,,,,,,,,,,,,,,,left,1,10,-30,-20,0,3005.184378,3005.184378,3005.184378,None,None,4,0,0.4068525,,,,,,,,,,,,,,,,,,,,,,10,19,2,2024-11-20_12h07.57.269,uWM_experiment,2022.2.3,60.00729689
,,,,,,,,,,,,,,,,,,,,9,0,9,0,8,0,8,0,,,,,,,,,,,,,,,,,,,,,,,,,,,,,,,,,,,,,,,,,,,,,,,,,,,,,,,,,,,,,,,,,,,,,,0.005,,,,,,,,,,,,,,,,,,,,,,,,,,,,left,0,100,30,130,1,3011.18463,3011.18463,3011.18463,None,None,4,0,0.4626306,,,,,,,,,,,,,,,,,,,,,,10,19,2,2024-11-20_12h07.57.269,uWM_experiment,2022.2.3,60.00729689
,,,,,,,,,,,,,,,,,,,,9,0,9,0,9,0,9,0,,,,,,,,,,,,,,,,,,,,,,,,,,,,,,,,,,,,,,,,,,,,,,,,,,,,,,,,,,,,,,,,,,,,,,0.005,,,,,,,,,,,,,,,,,,,,,,,,,,,,left,0,70,30,100,1,3017.268182,3017.268182,3017.268182,None,None,4,0,0.4188717,,,,,,,,,,,,,,,,,,,,,,10,19,2,2024-11-20_12h07.57.269,uWM_experiment,2022.2.3,60.00729689
,,,,,,,,,,,,,,,,,,,,9,0,9,0,10,0,10,0,,,,,,,,,,,,,,,,,,,,,,,,,,,,,,,,,,,,,,,,,,,,,,,,,,,,,,,,,,,,,,,,,,,,,,0,,,,,,,,,,,,,,,,,,,,,,,,,,,,left,0,40,30,70,0,3023.485105,3023.485105,3023.485105,None,None,4,0,0.4740102,,,,,,,,,,,,,,,,,,,,,,10,19,2,2024-11-20_12h07.57.269,uWM_experiment,2022.2.3,60.00729689
,,,,,,,,,,,,,,,,,,,,9,0,9,0,11,0,11,0,,,,,,,,,,,,,,,,,,,,,,,,,,,,,,,,,,,,,,,,,,,,,,,,,,,,,,,,,,,,,,,,,,,,,,0.005,,,,,,,,,,,,,,,,,,,,,,,,,,,,left,0,10,30,40,1,3029.918735,3029.918735,3029.918735,None,None,4,0,0.4002924,,,,,,,,,,,,,,,,,,,,,,10,19,2,2024-11-20_12h07.57.269,uWM_experiment,2022.2.3,60.00729689
,,,,,,,,,,,,,,,,,,,,9,0,9,0,12,0,12,0,,,,,,,,,,,,,,,,,,,,,,,,,,,,,,,,,,,,,,,,,,,,,,,,,,,,,,,,,,,,,,,,,,,,,,0,,,,,,,,,,,,,,,,,,,,,,,,,,,,left,0,10,30,40,0,3036.635616,3036.635616,3036.635616,None,None,4,0,0.3873426,,,,,,,,,,,,,,,,,,,,,,10,19,2,2024-11-20_12h07.57.269,uWM_experiment,2022.2.3,60.00729689
,,,,,,,,,,,,,,,,,,,,9,0,9,0,13,0,13,0,,,,,,,,,,,,,,,,,,,,,,,,,,,,,,,,,,,,,,,,,,,,,,,,,,,,,,,,,,,,,,,,,,,,,,0.005,,,,,,,,,,,,,,,,,,,,,,,,,,,,left,0,10,30,40,1,3043.819821,3043.819821,3043.819821,None,None,4,0,0.3952019,,,,,,,,,,,,,,,,,,,,,,10,19,2,2024-11-20_12h07.57.269,uWM_experiment,2022.2.3,60.00729689
,,,,,,,,,,,,,,,,,,,,9,0,9,0,14,0,14,0,,,,,,,,,,,,,,,,,,,,,,,,,,,,,,,,,,,,,,,,,,,,,,,,,,,,,,,,,,,,,,,,,,,,,,0,,,,,,,,,,,,,,,,,,,,,,,,,,,,right,0,100,-30,70,0,3049.96978,3049.96978,3049.96978,None,None,4,0,0.4691044,,,,,,,,,,,,,,,,,,,,,,10,19,2,2024-11-20_12h07.57.269,uWM_experiment,2022.2.3,60.00729689
,,,,,,,,,,,,,,,,,,,,9,0,9,0,15,0,15,0,,,,,,,,,,,,,,,,,,,,,,,,,,,,,,,,,,,,,,,,,,,,,,,,,,,,,,,,,,,,,,,,,,,,,,0.1,,,,,,,,,,,,,,,,,,,,,,,,,,,,right,0,40,-30,10,2,3056.386351,3056.386351,3056.386351,None,None,4,0,0.492586,,,,,,,,,,,,,,,,,,,,,,10,19,2,2024-11-20_12h07.57.269,uWM_experiment,2022.2.3,60.00729689
,,,,,,,,,,,,,,,,,,,,9,0,9,0,16,0,16,0,,,,,,,,,,,,,,,,,,,,,,,,,,,,,,,,,,,,,,,,,,,,,,,,,,,,,,,,,,,,,,,,,,,,,,0,,,,,,,,,,,,,,,,,,,,,,,,,,,,left,1,130,-30,100,0,3063.753298,3063.753298,3063.753298,None,None,4,0,0.4055047,,,,,,,,,,,,,,,,,,,,,,10,19,2,2024-11-20_12h07.57.269,uWM_experiment,2022.2.3,60.00729689
,,,,,,,,,,,,,,,,,,,,9,0,9,0,17,0,17,0,,,,,,,,,,,,,,,,,,,,,,,,,,,,,,,,,,,,,,,,,,,,,,,,,,,,,,,,,,,,,,,,,,,,,,0.005,,,,,,,,,,,,,,,,,,,,,,,,,,,,right,0,130,-30,100,1,3070.97026,3070.97026,3070.97026,None,None,4,0,0.3884683,,,,,,,,,,,,,,,,,,,,,,10,19,2,2024-11-20_12h07.57.269,uWM_experiment,2022.2.3,60.00729689
,,,,,,,,,,,,,,,,,,,,9,0,9,0,18,0,18,0,,,,,,,,,,,,,,,,,,,,,,,,,,,,,,,,,,,,,,,,,,,,,,,,,,,,,,,,,,,,,,,,,,,,,,0,,,,,,,,,,,,,,,,,,,,,,,,,,,,right,1,10,30,40,0,3077.003817,3077.003817,3077.003817,None,None,4,0,0.3470182,,,,,,,,,,,,,,,,,,,,,,10,19,2,2024-11-20_12h07.57.269,uWM_experiment,2022.2.3,60.00729689
,,,,,,,,,,,,,,,,,,,,9,0,9,0,19,0,19,0,,,,,,,,,,,,,,,,,,,,,,,,,,,,,,,,,,,,,,,,,,,,,,,,,,,,,,,,,,,,,,,,,,,,,,0.005,,,,,,,,,,,,,,,,,,,,,,,,,,,,left,1,10,-30,-20,1,3083.004063,3083.004063,3083.004063,None,None,4,0,0.5066965,,,,,,,,,,,,,,,,,,,,,,10,19,2,2024-11-20_12h07.57.269,uWM_experiment,2022.2.3,60.00729689
,,,,,,,,,,,,,,,,,,,,9,0,9,0,20,0,20,0,,,,,,,,,,,,,,,,,,,,,,,,,,,,,,,,,,,,,,,,,,,,,,,,,,,,,,,,,,,,,,,,,,,,,,0.005,,,,,,,,,,,,,,,,,,,,,,,,,,,,right,1,160,30,190,1,3089.237624,3089.237624,3089.237624,None,None,4,0,0.393114,,,,,,,,,,,,,,,,,,,,,,10,19,2,2024-11-20_12h07.57.269,uWM_experiment,2022.2.3,60.00729689
,,,,,,,,,,,,,,,,,,,,9,0,9,0,21,0,21,0,,,,,,,,,,,,,,,,,,,,,,,,,,,,,,,,,,,,,,,,,,,,,,,,,,,,,,,,,,,,,,,,,,,,,,0,,,,,,,,,,,,,,,,,,,,,,,,,,,,right,0,100,-30,70,0,3095.237855,3095.237855,3095.237855,None,None,4,0,0.432842,,,,,,,,,,,,,,,,,,,,,,10,19,2,2024-11-20_12h07.57.269,uWM_experiment,2022.2.3,60.00729689
,,,,,,,,,,,,,,,,,,,,9,0,9,0,22,0,22,0,,,,,,,,,,,,,,,,,,,,,,,,,,,,,,,,,,,,,,,,,,,,,,,,,,,,,,,,,,,,,,,,,,,,,,0.005,,,,,,,,,,,,,,,,,,,,,,,,,,,,right,1,40,30,70,1,3101.438104,3101.438104,3101.438104,None,None,4,0,0.4166835,,,,,,,,,,,,,,,,,,,,,,10,19,2,2024-11-20_12h07.57.269,uWM_experiment,2022.2.3,60.00729689
,,,,,,,,,,,,,,,,,,,,9,0,9,0,23,0,23,0,,,,,,,,,,,,,,,,,,,,,,,,,,,,,,,,,,,,,,,,,,,,,,,,,,,,,,,,,,,,,,,,,,,,,,0,,,,,,,,,,,,,,,,,,,,,,,,,,,,right,0,100,-30,70,0,3107.405029,3107.405029,3107.405029,None,None,4,0,0.4576388,,,,,,,,,,,,,,,,,,,,,,10,19,2,2024-11-20_12h07.57.269,uWM_experiment,2022.2.3,60.00729689
,,,,,,,,,,,,,,,,,,,,9,0,9,0,,,,,0,0,0,0,,,,,,,,,,,,,,,,,,,,,,,,,,,,,,,,,,,,,,,,,,,,,,,,,,,,,,,,,,,,,,,,,,,,,,,,,,,,,,,,,,,,,,,,,,,,,,,,,,,,,,,,,,,,3107.888322,3107.888322,space,57.7260897,None,None,,,,,,,,,,,,,,,,10,19,2,2024-11-20_12h07.57.269,uWM_experiment,2022.2.3,60.00729689
,,,,,,,,,,,,,,,,,,,,9,0,9,0,,,,,1,0,1,0,,,,,,,,,,,,,,,,,,,,,,,,,,,,,,,,,,,,,,,,,,,,,,,,,,,,,,,,,,,,,,,,,,,,,,,,,,,,,,,,,,,,,,,,,,,,,,,,,,,,,,,,,,,,,,,,,,,,,,,,,,,,,,,,,10,19,2,2024-11-20_12h07.57.269,uWM_experiment,2022.2.3,60.00729689
,,,,,,,,,,,,,,,,,,,,9,0,9,0,,,,,2,0,2,0,,,,,,,,,,,,,,,,,,,,,,,,,,,,,,,,,,,,,,,,,,,,,,,,,,,,,,,,,,,,,,,,,,,,,,,,,,,,,,,,,,,,,,,,,,,,,,,,,,,,,,,,,,,,,,,,,,,,,,,,,,,,,,,,,10,19,2,2024-11-20_12h07.57.269,uWM_experiment,2022.2.3,60.00729689
,,,,,,,,,,,,,,,,,,,,10,0,10,0,0,0,0,0,,,,,,,,,,,,,,,,,,,,,,,,,,,,,,,,,,,,,,,,,,,,,,,,,,,,,,,,,,,,,,,,,,,,,,0.005,,,,,,,,,,,,,,,,,,,,3165.640572,3166.340581,3166.640593,3167.340637,3167.640647,3168.34068,3168.34068,3168.657348,right,0,70,-30,40,1,3174.690903,3174.690903,3174.690903,None,None,4,0,1.2672918,,,,,,,None,,,,,,,,,,,,,,,10,19,2,2024-11-20_12h07.57.269,uWM_experiment,2022.2.3,60.00729689
,,,,,,,,,,,,,,,,,,,,10,0,10,0,1,0,1,0,,,,,,,,,,,,,,,,,,,,,,,,,,,,,,,,,,,,,,,,,,,,,,,,,,,,,,,,,,,,,,,,,,,,,,0.005,,,,,,,,,,,,,,,,,,,,,,,,,,,,left,0,10,30,40,1,3181.924533,3181.924533,3181.924533,None,None,4,0,0.4577068,,,,,,,,,,,,,,,,,,,,,,10,19,2,2024-11-20_12h07.57.269,uWM_experiment,2022.2.3,60.00729689
,,,,,,,,,,,,,,,,,,,,10,0,10,0,2,0,2,0,,,,,,,,,,,,,,,,,,,,,,,,,,,,,,,,,,,,,,,,,,,,,,,,,,,,,,,,,,,,,,,,,,,,,,0,,,,,,,,,,,,,,,,,,,,,,,,,,,,left,1,10,-30,-20,0,3188.09142,3188.09142,3188.09142,None,None,4,0,0.4588211,,,,,,,,,,,,,,,,,,,,,,10,19,2,2024-11-20_12h07.57.269,uWM_experiment,2022.2.3,60.00729689
,,,,,,,,,,,,,,,,,,,,10,0,10,0,3,0,3,0,,,,,,,,,,,,,,,,,,,,,,,,,,,,,,,,,,,,,,,,,,,,,,,,,,,,,,,,,,,,,,,,,,,,,,0.005,,,,,,,,,,,,,,,,,,,,,,,,,,,,left,1,130,-30,100,1,3194.175002,3194.175002,3194.175002,None,None,4,0,0.4472321,,,,,,,,,,,,,,,,,,,,,,10,19,2,2024-11-20_12h07.57.269,uWM_experiment,2022.2.3,60.00729689
,,,,,,,,,,,,,,,,,,,,10,0,10,0,4,0,4,0,,,,,,,,,,,,,,,,,,,,,,,,,,,,,,,,,,,,,,,,,,,,,,,,,,,,,,,,,,,,,,,,,,,,,,0.1,,,,,,,,,,,,,,,,,,,,,,,,,,,,left,1,160,-30,130,2,3201.40862,3201.40862,3201.40862,None,None,4,0,0.3655156,,,,,,,,,,,,,,,,,,,,,,10,19,2,2024-11-20_12h07.57.269,uWM_experiment,2022.2.3,60.00729689
,,,,,,,,,,,,,,,,,,,,10,0,10,0,5,0,5,0,,,,,,,,,,,,,,,,,,,,,,,,,,,,,,,,,,,,,,,,,,,,,,,,,,,,,,,,,,,,,,,,,,,,,,0.005,,,,,,,,,,,,,,,,,,,,,,,,,,,,right,1,40,30,70,1,3207.292193,3207.292193,3207.292193,None,None,4,0,0.513922,,,,,,,,,,,,,,,,,,,,,,10,19,2,2024-11-20_12h07.57.269,uWM_experiment,2022.2.3,60.00729689
,,,,,,,,,,,,,,,,,,,,10,0,10,0,6,0,6,0,,,,,,,,,,,,,,,,,,,,,,,,,,,,,,,,,,,,,,,,,,,,,,,,,,,,,,,,,,,,,,,,,,,,,,0.005,,,,,,,,,,,,,,,,,,,,,,,,,,,,right,0,10,-30,-20,1,3214.342456,3214.342456,3214.342456,None,None,4,0,0.4796671,,,,,,,,,,,,,,,,,,,,,,10,19,2,2024-11-20_12h07.57.269,uWM_experiment,2022.2.3,60.00729689
,,,,,,,,,,,,,,,,,,,,10,0,10,0,7,0,7,0,,,,,,,,,,,,,,,,,,,,,,,,,,,,,,,,,,,,,,,,,,,,,,,,,,,,,,,,,,,,,,,,,,,,,,0.005,,,,,,,,,,,,,,,,,,,,,,,,,,,,left,0,10,30,40,1,3221.442691,3221.442691,3221.442691,None,None,4,0,0.635277,,,,,,,,,,,,,,,,,,,,,,10,19,2,2024-11-20_12h07.57.269,uWM_experiment,2022.2.3,60.00729689
,,,,,,,,,,,,,,,,,,,,10,0,10,0,8,0,8,0,,,,,,,,,,,,,,,,,,,,,,,,,,,,,,,,,,,,,,,,,,,,,,,,,,,,,,,,,,,,,,,,,,,,,,0.005,,,,,,,,,,,,,,,,,,,,,,,,,,,,left,1,10,-30,-20,1,3227.709633,3227.709633,3227.709633,None,None,4,0,0.4964189,,,,,,,,,,,,,,,,,,,,,,10,19,2,2024-11-20_12h07.57.269,uWM_experiment,2022.2.3,60.00729689
,,,,,,,,,,,,,,,,,,,,10,0,10,0,9,0,9,0,,,,,,,,,,,,,,,,,,,,,,,,,,,,,,,,,,,,,,,,,,,,,,,,,,,,,,,,,,,,,,,,,,,,,,0.005,,,,,,,,,,,,,,,,,,,,,,,,,,,,left,0,40,30,70,1,3239.993454,3239.993454,3239.993454,None,None,4,0,0.3884012,,,,,,,,,,,,,,,,,,,,,,10,19,2,2024-11-20_12h07.57.269,uWM_experiment,2022.2.3,60.00729689
,,,,,,,,,,,,,,,,,,,,10,0,10,0,10,0,10,0,,,,,,,,,,,,,,,,,,,,,,,,,,,,,,,,,,,,,,,,,,,,,,,,,,,,,,,,,,,,,,,,,,,,,,0.005,,,,,,,,,,,,,,,,,,,,,,,,,,,,left,1,10,-30,-20,1,3246.160345,3246.160345,3246.160345,None,None,4,0,0.3816184,,,,,,,,,,,,,,,,,,,,,,10,19,2,2024-11-20_12h07.57.269,uWM_experiment,2022.2.3,60.00729689
,,,,,,,,,,,,,,,,,,,,10,0,10,0,11,0,11,0,,,,,,,,,,,,,,,,,,,,,,,,,,,,,,,,,,,,,,,,,,,,,,,,,,,,,,,,,,,,,,,,,,,,,,0.005,,,,,,,,,,,,,,,,,,,,,,,,,,,,left,0,100,30,130,1,3252.193883,3252.193883,3252.193883,None,None,4,0,0.3320145,,,,,,,,,,,,,,,,,,,,,,10,19,2,2024-11-20_12h07.57.269,uWM_experiment,2022.2.3,60.00729689
,,,,,,,,,,,,,,,,,,,,10,0,10,0,12,0,12,0,,,,,,,,,,,,,,,,,,,,,,,,,,,,,,,,,,,,,,,,,,,,,,,,,,,,,,,,,,,,,,,,,,,,,,0.005,,,,,,,,,,,,,,,,,,,,,,,,,,,,right,0,100,-30,70,1,3257.910789,3257.910789,3257.910789,None,None,4,0,2.8709379,,,,,,,,,,,,,,,,,,,,,,10,19,2,2024-11-20_12h07.57.269,uWM_experiment,2022.2.3,60.00729689
,,,,,,,,,,,,,,,,,,,,10,0,10,0,13,0,13,0,,,,,,,,,,,,,,,,,,,,,,,,,,,,,,,,,,,,,,,,,,,,,,,,,,,,,,,,,,,,,,,,,,,,,,0.005,,,,,,,,,,,,,,,,,,,,,,,,,,,,right,1,40,30,70,1,3268.111153,3268.111153,3268.111153,None,None,4,0,0.3905418,,,,,,,,,,,,,,,,,,,,,,10,19,2,2024-11-20_12h07.57.269,uWM_experiment,2022.2.3,60.00729689
,,,,,,,,,,,,,,,,,,,,10,0,10,0,14,0,14,0,,,,,,,,,,,,,,,,,,,,,,,,,,,,,,,,,,,,,,,,,,,,,,,,,,,,,,,,,,,,,,,,,,,,,,0,,,,,,,,,,,,,,,,,,,,,,,,,,,,left,1,160,-30,130,0,3274.428065,3274.428065,3274.428065,None,None,4,0,0.4095884,,,,,,,,,,,,,,,,,,,,,,10,19,2,2024-11-20_12h07.57.269,uWM_experiment,2022.2.3,60.00729689
,,,,,,,,,,,,,,,,,,,,10,0,10,0,15,0,15,0,,,,,,,,,,,,,,,,,,,,,,,,,,,,,,,,,,,,,,,,,,,,,,,,,,,,,,,,,,,,,,,,,,,,,,0.005,,,,,,,,,,,,,,,,,,,,,,,,,,,,left,0,130,30,160,1,3280.628293,3280.628293,3280.628293,None,None,4,0,0.3693206,,,,,,,,,,,,,,,,,,,,,,10,19,2,2024-11-20_12h07.57.269,uWM_experiment,2022.2.3,60.00729689
,,,,,,,,,,,,,,,,,,,,10,0,10,0,16,0,16,0,,,,,,,,,,,,,,,,,,,,,,,,,,,,,,,,,,,,,,,,,,,,,,,,,,,,,,,,,,,,,,,,,,,,,,0.005,,,,,,,,,,,,,,,,,,,,,,,,,,,,right,1,10,30,40,1,3286.495191,3286.495191,3286.495191,None,None,4,0,0.4864816,,,,,,,,,,,,,,,,,,,,,,10,19,2,2024-11-20_12h07.57.269,uWM_experiment,2022.2.3,60.00729689
,,,,,,,,,,,,,,,,,,,,10,0,10,0,17,0,17,0,,,,,,,,,,,,,,,,,,,,,,,,,,,,,,,,,,,,,,,,,,,,,,,,,,,,,,,,,,,,,,,,,,,,,,0,,,,,,,,,,,,,,,,,,,,,,,,,,,,left,1,160,-30,130,0,3292.712089,3292.712089,3292.712089,None,None,4,0,0.3335045,,,,,,,,,,,,,,,,,,,,,,10,19,2,2024-11-20_12h07.57.269,uWM_experiment,2022.2.3,60.00729689
