PreTrainingPAS4_loop.thisRepN,PreTrainingPAS4_loop.thisTrialN,PreTrainingPAS4_loop.thisN,PreTrainingPAS4_loop.thisIndex,PreTrainingPAS1_loop.thisRepN,PreTrainingPAS1_loop.thisTrialN,PreTrainingPAS1_loop.thisN,PreTrainingPAS1_loop.thisIndex,RepeatCV_loop.thisRepN,RepeatCV_loop.thisTrialN,RepeatCV_loop.thisN,RepeatCV_loop.thisIndex,TrainingCV_loop.thisRepN,TrainingCV_loop.thisTrialN,TrainingCV_loop.thisN,TrainingCV_loop.thisIndex,TrainingCAL_loop.thisRepN,TrainingCAL_loop.thisTrialN,TrainingCAL_loop.thisN,TrainingCAL_loop.thisIndex,blocks_loop.thisRepN,blocks_loop.thisTrialN,blocks_loop.thisN,blocks_loop.thisIndex,trials_loop.thisRepN,trials_loop.thisTrialN,trials_loop.thisN,trials_loop.thisIndex,TrainingPAS1_loop.thisRepN,TrainingPAS1_loop.thisTrialN,TrainingPAS1_loop.thisN,TrainingPAS1_loop.thisIndex,spacebarWelcome0.started,spacebarWelcome0.keys,spacebarWelcome0.rt,spacebarWelcome1.started,gaborWelcome1.started,maskWelcome1.started,textMaskWelcome1.started,spacebarWelcome1.keys,spacebarWelcome1.rt,spacebarWelcome2.started,spacebarWelcome2.keys,spacebarWelcome2.rt,textInst_PreTrainingPAS4.started,spacebarPreTrainingPAS4.started,spacebarPreTrainingPAS4.keys,spacebarPreTrainingPAS4.rt,textPreTrainingPAS1.started,spacebarPreTrainingPAS1.started,spacebarPreTrainingPAS1.keys,spacebarPreTrainingPAS1.rt,textQUEST0.started,spacebarQUEST0.started,spacebarQUEST0.keys,spacebarQUEST0.rt,spacebar0.started,spacebar0.keys,spacebar0.rt,spacebar1.started,spacebar1.keys,spacebar1.rt,textInstructions2.started,spacebar2.started,Gabor1Inst2.started,Gabor2Inst2.started,Gabor3Inst2.started,Gabor4Inst2.started,spacebar2.keys,spacebar2.rt,textInstructionsPAS.started,spacebarInstPAS.started,spacebarInstPAS.keys,spacebarInstPAS.rt,textInstructions3.started,spacebar3.started,spacebar3.keys,spacebar3.rt,WMresp_CV,WMresp_CV_acc,oriMemo_CV,gyre_CV,oriTest_CV,feedbackText.started,sliderCV.started,PAStextCV.started,PASkeyCV.started,sliderCV.response,sliderCV.rt,PASkeyCV.keys,PASkeyCV.corr,PASkeyCV.rt,feedbackText.stopped,TextInstructionsCAL.started,spacebarCAL.started,spacebarCAL.keys,spacebarCAL.rt,contrast,WMresp_CAL,WMresp_CAL_acc,oriMemo_CAL,gyre_CAL,oriTest_CAL,cue_CAL,sliderCAL.started,PAStextCAL.started,PASkeyCAL.started,sliderCAL.response,sliderCAL.rt,PASkeyCAL.keys,PASkeyCAL.corr,PASkeyCAL.rt,propUnseen_CAL,textStart.started,spacebar4.started,spacebar4.keys,spacebar4.rt,three.started,three.stopped,two.started,two.stopped,one.started,one.stopped,blank_countdown.started,blank_countdown.stopped,WMresp,WMresp_acc,oriMemo,gyre,oriTest,cue,slider.started,textPAS_firstGabor.started,PASkey.started,slider.response,slider.rt,PASkey.keys,PASkey.corr,PASkey.rt,spacebarContinue.started,textBreak.started,spacebarContinue.keys,spacebarContinue.rt,spacebar_reminder.keys,spacebar_TrainingPAS1.keys,spacebar_endpractice.keys,spacebar_reminder.started,textReminder.started,spacebar_reminder.rt,textInst_TrainingPAS1.started,spacebar_TrainingPAS1.started,spacebar_TrainingPAS1.rt,textend_practicePAS1.started,spacebar_endpractice.started,spacebar_endpractice.rt,textThanks.started,textThanks.stopped,laboratory,participant,session,date,expName,psychopyVersion,frameRate
,,,,,,,,,,,,,,,,,,,,,,,,,,,,,,,,32.1256583,space,2.1538407,,,,,,,,,,,,,,,,,,,,,,,,,,,,,,,,,,,,,,,,,,,,,,,,,,,,,,,,,,,,,,,,,,,,,,,,,,,,,,,,,,,,,,,,,,,,,,,,,,,,,,,,,,,,,,,,,,,,,,,,,,,10,P1,1,2024-09-24_14h11.02.902,uWM_experiment,2022.2.3,60.00092401
,,,,,,,,,,,,,,,,,,,,,,,,,,,,,,,,,,,34.3254734,34.3254734,34.3254734,34.3254734,space,37.4899925,,,,,,,,,,,,,,,,,,,,,,,,,,,,,,,,,,,,,,,,,,,,,,,,,,,,,,,,,,,,,,,,,,,,,,,,,,,,,,,,,,,,,,,,,,,,,,,,,,,,,,,,,,,,,,,,,,,,,10,P1,1,2024-09-24_14h11.02.902,uWM_experiment,2022.2.3,60.00092401
,,,,,,,,,,,,,,,,,,,,,,,,,,,,,,,,,,,,,,,,,71.8435925,space,56.0594848,,,,,,,,,,,,,,,,,,,,,,,,,,,,,,,,,,,,,,,,,,,,,,,,,,,,,,,,,,,,,,,,,,,,,,,,,,,,,,,,,,,,,,,,,,,,,,,,,,,,,,,,,,,,,,,,,,10,P1,1,2024-09-24_14h11.02.902,uWM_experiment,2022.2.3,60.00092401
,,,,,,,,,,,,,,,,,,,,,,,,,,,,,,,,,,,,,,,,,,,,127.9290879,127.9290879,space,13.342003,,,,,,,,,,,,,,,,,,,,,,,,,,,,,,,,,,,,,,,,,,,,,,,,,,,,,,,,,,,,,,,,,,,,,,,,,,,,,,,,,,,,,,,,,,,,,,,,,,,,,,,,,,,,,,10,P1,1,2024-09-24_14h11.02.902,uWM_experiment,2022.2.3,60.00092401
0,0,0,0,,,,,,,,,,,,,,,,,,,,,,,,,,,,,,,,,,,,,,,,,,,,,,,,,,,,,,,,,,,,,,,,,,,,,,,,,,,,,,,,,,,,,,,,,,,,,,,,,,,,,,,,,,,,,,,,,,,,,,,,,,,,,,,,,,,,,,,,,,,,,,,,,,,,,,,,,,10,P1,1,2024-09-24_14h11.02.902,uWM_experiment,2022.2.3,60.00092401
1,0,1,0,,,,,,,,,,,,,,,,,,,,,,,,,,,,,,,,,,,,,,,,,,,,,,,,,,,,,,,,,,,,,,,,,,,,,,,,,,,,,,,,,,,,,,,,,,,,,,,,,,,,,,,,,,,,,,,,,,,,,,,,,,,,,,,,,,,,,,,,,,,,,,,,,,,,,,,,,,10,P1,1,2024-09-24_14h11.02.902,uWM_experiment,2022.2.3,60.00092401
2,0,2,0,,,,,,,,,,,,,,,,,,,,,,,,,,,,,,,,,,,,,,,,,,,,,,,,,,,,,,,,,,,,,,,,,,,,,,,,,,,,,,,,,,,,,,,,,,,,,,,,,,,,,,,,,,,,,,,,,,,,,,,,,,,,,,,,,,,,,,,,,,,,,,,,,,,,,,,,,,10,P1,1,2024-09-24_14h11.02.902,uWM_experiment,2022.2.3,60.00092401
,,,,,,,,,,,,,,,,,,,,,,,,,,,,,,,,,,,,,,,,,,,,,,,,168.9140184,168.9140184,space,16.9808343,,,,,,,,,,,,,,,,,,,,,,,,,,,,,,,,,,,,,,,,,,,,,,,,,,,,,,,,,,,,,,,,,,,,,,,,,,,,,,,,,,,,,,,,,,,,,,,,,,,,,,,,,,10,P1,1,2024-09-24_14h11.02.902,uWM_experiment,2022.2.3,60.00092401
,,,,0,0,0,0,,,,,,,,,,,,,,,,,,,,,,,,,,,,,,,,,,,,,,,,,,,,,,,,,,,,,,,,,,,,,,,,,,,,,,,,,,,,,,,,,,,,,,,,,,,,,,,,,,,,,,,,,,,,,,,,,,,,,,,,,,,,,,,,,,,,,,,,,,,,,,,,,,,,,,10,P1,1,2024-09-24_14h11.02.902,uWM_experiment,2022.2.3,60.00092401
,,,,1,0,1,0,,,,,,,,,,,,,,,,,,,,,,,,,,,,,,,,,,,,,,,,,,,,,,,,,,,,,,,,,,,,,,,,,,,,,,,,,,,,,,,,,,,,,,,,,,,,,,,,,,,,,,,,,,,,,,,,,,,,,,,,,,,,,,,,,,,,,,,,,,,,,,,,,,,,,,10,P1,1,2024-09-24_14h11.02.902,uWM_experiment,2022.2.3,60.00092401
,,,,2,0,2,0,,,,,,,,,,,,,,,,,,,,,,,,,,,,,,,,,,,,,,,,,,,,,,,,,,,,,,,,,,,,,,,,,,,,,,,,,,,,,,,,,,,,,,,,,,,,,,,,,,,,,,,,,,,,,,,,,,,,,,,,,,,,,,,,,,,,,,,,,,,,,,,,,,,,,,10,P1,1,2024-09-24_14h11.02.902,uWM_experiment,2022.2.3,60.00092401
,,,,,,,,,,,,,,,,,,,,,,,,,,,,,,,,,,,,,,,,,,,,,,,,,,,,195.2650321,195.2650321,space,8.6137276,,,,,,,,,,,,,,,,,,,,,,,,,,,,,,,,,,,,,,,,,,,,,,,,,,,,,,,,,,,,,,,,,,,,,,,,,,,,,,,,,,,,,,,,,,,,,,,,,,,,,,10,P1,1,2024-09-24_14h11.02.902,uWM_experiment,2022.2.3,60.00092401
,,,,,,,,,,,,,,,,,,,,,,,,,,,,,,,,,,,,,,,,,,,,,,,,,,,,,,,,360.9714902,space,13.9862292,,,,,,,,,,,,,,,,,,,,,,,,,,,,,,,,,,,,,,,,,,,,,,,,,,,,,,,,,,,,,,,,,,,,,,,,,,,,,,,,,,,,,,,,,,,,,,,,,,,10,P1,1,2024-09-24_14h11.02.902,uWM_experiment,2022.2.3,60.00092401
,,,,,,,,,,,,,,,,,,,,,,,,,,,,,,,,,,,,,,,,,,,,,,,,,,,,,,,,,,,374.9886977,space,118.8725565,,,,,,,,,,,,,,,,,,,,,,,,,,,,,,,,,,,,,,,,,,,,,,,,,,,,,,,,,,,,,,,,,,,,,,,,,,,,,,,,,,,,,,,,,,,,,,,,10,P1,1,2024-09-24_14h11.02.902,uWM_experiment,2022.2.3,60.00092401
,,,,,,,,,,,,,,,,,,,,,,,,,,,,,,,,,,,,,,,,,,,,,,,,,,,,,,,,,,,,,,493.8933445,493.8933445,493.8933445,493.8933445,493.8933445,493.8933445,space,58.007583,,,,,,,,,,,,,,,,,,,,,,,,,,,,,,,,,,,,,,,,,,,,,,,,,,,,,,,,,,,,,,,,,,,,,,,,,,,,,,,,,,,,,,,,10,P1,1,2024-09-24_14h11.02.902,uWM_experiment,2022.2.3,60.00092401
,,,,,,,,,,,,,,,,,,,,,,,,,,,,,,,,,,,,,,,,,,,,,,,,,,,,,,,,,,,,,,,,,,,,,,551.9289146,551.9289146,space,31.7876658,,,,,,,,,,,,,,,,,,,,,,,,,,,,,,,,,,,,,,,,,,,,,,,,,,,,,,,,,,,,,,,,,,,,,,,,,,,,,,,,,,,,10,P1,1,2024-09-24_14h11.02.902,uWM_experiment,2022.2.3,60.00092401
,,,,,,,,,,,,,,,,,,,,,,,,,,,,,,,,,,,,,,,,,,,,,,,,,,,,,,,,,,,,,,,,,,,,,,,,,,583.7468261,583.7468261,space,23.8578587,,,,,,,,,,,,,,,,,,,,,,,,,,,,,,,,,,,,,,,,,,,,,,,,,,,,,,,,,,,,,,,,,,,,,,,,,,,,,,,,10,P1,1,2024-09-24_14h11.02.902,uWM_experiment,2022.2.3,60.00092401
,,,,,,,,0,0,0,0,0,0,0,0,,,,,,,,,,,,,,,,,,,,,,,,,,,,,,,,,,,,,,,,,,,,,,,,,,,,,,,,,,,,,,,right,0,10,-30,-20,617.4648283,618.4648611,618.4648611,618.4648611,None,None,3,0,9.3956978,,,,,,,,,,,,,,,,,,,,,,,,,,,,,,,,,,,,,,,,,,,,,,,,,,,,,,,,,,,,,,,,,,10,P1,1,2024-09-24_14h11.02.902,uWM_experiment,2022.2.3,60.00092401
,,,,,,,,0,0,0,0,1,0,1,0,,,,,,,,,,,,,,,,,,,,,,,,,,,,,,,,,,,,,,,,,,,,,,,,,,,,,,,,,,,,,,,left,1,160,-30,130,637.6822707,638.6823145,638.6823145,638.6823145,None,None,4,0,2.1781985,,,,,,,,,,,,,,,,,,,,,,,,,,,,,,,,,,,,,,,,,,,,,,,,,,,,,,,,,,,,,,,,,,10,P1,1,2024-09-24_14h11.02.902,uWM_experiment,2022.2.3,60.00092401
,,,,,,,,0,0,0,0,2,0,2,0,,,,,,,,,,,,,,,,,,,,,,,,,,,,,,,,,,,,,,,,,,,,,,,,,,,,,,,,,,,,,,,left,1,100,-30,70,646.6826242,647.6826668,647.6826668,647.6826668,None,None,4,0,0.8497978,647.6826668,,,,,,,,,,,,,,,,,,,,,,,,,,,,,,,,,,,,,,,,,,,,,,,,,,,,,,,,,,,,,,,,,10,P1,1,2024-09-24_14h11.02.902,uWM_experiment,2022.2.3,60.00092401
,,,,,,,,0,0,0,0,3,0,3,0,,,,,,,,,,,,,,,,,,,,,,,,,,,,,,,,,,,,,,,,,,,,,,,,,,,,,,,,,,,,,,,left,0,100,30,130,656.7997017,657.7997262,657.7997262,657.7997262,None,None,4,0,1.7327349,657.7997262,,,,,,,,,,,,,,,,,,,,,,,,,,,,,,,,,,,,,,,,,,,,,,,,,,,,,,,,,,,,,,,,,10,P1,1,2024-09-24_14h11.02.902,uWM_experiment,2022.2.3,60.00092401
,,,,,,,,0,0,0,0,4,0,4,0,,,,,,,,,,,,,,,,,,,,,,,,,,,,,,,,,,,,,,,,,,,,,,,,,,,,,,,,,,,,,,,right,0,40,-30,10,666.100075,667.1000906,667.1000906,667.1000906,None,None,4,0,15.320015,667.1000906,,,,,,,,,,,,,,,,,,,,,,,,,,,,,,,,,,,,,,,,,,,,,,,,,,,,,,,,,,,,,,,,,10,P1,1,2024-09-24_14h11.02.902,uWM_experiment,2022.2.3,60.00092401
,,,,,,,,0,0,0,0,5,0,5,0,,,,,,,,,,,,,,,,,,,,,,,,,,,,,,,,,,,,,,,,,,,,,,,,,,,,,,,,,,,,,,,right,1,130,30,160,689.0676215,690.0676522,690.0676522,690.0676522,None,None,4,0,0.4245954,690.0676522,,,,,,,,,,,,,,,,,,,,,,,,,,,,,,,,,,,,,,,,,,,,,,,,,,,,,,,,,,,,,,,,,10,P1,1,2024-09-24_14h11.02.902,uWM_experiment,2022.2.3,60.00092401
,,,,,,,,0,0,0,0,6,0,6,0,,,,,,,,,,,,,,,,,,,,,,,,,,,,,,,,,,,,,,,,,,,,,,,,,,,,,,,,,,,,,,,left,1,40,-30,10,696.3845771,697.3846146,697.3846146,697.3846146,None,None,4,0,0.3956023,697.3846146,,,,,,,,,,,,,,,,,,,,,,,,,,,,,,,,,,,,,,,,,,,,,,,,,,,,,,,,,,,,,,,,,10,P1,1,2024-09-24_14h11.02.902,uWM_experiment,2022.2.3,60.00092401
,,,,,,,,0,0,0,0,7,0,7,0,,,,,,,,,,,,,,,,,,,,,,,,,,,,,,,,,,,,,,,,,,,,,,,,,,,,,,,,,,,,,,,right,1,130,30,160,704.0515346,705.0516161,705.0516161,705.0516161,None,None,4,0,0.3124791,705.0516161,,,,,,,,,,,,,,,,,,,,,,,,,,,,,,,,,,,,,,,,,,,,,,,,,,,,,,,,,,,,,,,,,10,P1,1,2024-09-24_14h11.02.902,uWM_experiment,2022.2.3,60.00092401
,,,,,,,,0,0,0,0,8,0,8,0,,,,,,,,,,,,,,,,,,,,,,,,,,,,,,,,,,,,,,,,,,,,,,,,,,,,,,,,,,,,,,,right,0,100,-30,70,711.5351567,712.5352103,712.5352103,712.5352103,None,None,4,0,1.1969211,,,,,,,,,,,,,,,,,,,,,,,,,,,,,,,,,,,,,,,,,,,,,,,,,,,,,,,,,,,,,,,,,,10,P1,1,2024-09-24_14h11.02.902,uWM_experiment,2022.2.3,60.00092401
,,,,,,,,0,0,0,0,9,0,9,0,,,,,,,,,,,,,,,,,,,,,,,,,,,,,,,,,,,,,,,,,,,,,,,,,,,,,,,,,,,,,,,left,1,160,-30,130,721.2855276,722.2855688,722.2855688,722.2855688,None,None,4,0,0.3343441,722.2855688,,,,,,,,,,,,,,,,,,,,,,,,,,,,,,,,,,,,,,,,,,,,,,,,,,,,,,,,,,,,,,,,,10,P1,1,2024-09-24_14h11.02.902,uWM_experiment,2022.2.3,60.00092401
,,,,,,,,0,0,0,0,10,0,10,0,,,,,,,,,,,,,,,,,,,,,,,,,,,,,,,,,,,,,,,,,,,,,,,,,,,,,,,,,,,,,,,left,1,10,-30,-20,732.0193117,733.0193619,733.0193619,733.0193619,None,None,4,0,0.6646756,733.0193619,,,,,,,,,,,,,,,,,,,,,,,,,,,,,,,,,,,,,,,,,,,,,,,,,,,,,,,,,,,,,,,,,10,P1,1,2024-09-24_14h11.02.902,uWM_experiment,2022.2.3,60.00092401
,,,,,,,,0,0,0,0,11,0,11,0,,,,,,,,,,,,,,,,,,,,,,,,,,,,,,,,,,,,,,,,,,,,,,,,,,,,,,,,,,,,,,,right,1,130,30,160,739.852916,740.8529659,740.8529659,740.8529659,None,None,4,0,0.2548759,740.8529659,,,,,,,,,,,,,,,,,,,,,,,,,,,,,,,,,,,,,,,,,,,,,,,,,,,,,,,,,,,,,,,,,10,P1,1,2024-09-24_14h11.02.902,uWM_experiment,2022.2.3,60.00092401
,,,,,,,,0,0,0,0,,,,,,,,,,,,,,,,,,,,,,,,,,,,,,,,,,,,,,,,,,,,,,,,,,,,,,,,,,,,,,,,,,,,,,,,,,,,,,,,,,,,,,,,,,,,,,,,,,,,,,,,,,,,,,,,,,,,,,,,,,,,,,,,,,,,,,,,,,,,,,,,,,10,P1,1,2024-09-24_14h11.02.902,uWM_experiment,2022.2.3,60.00092401
,,,,,,,,1,0,1,0,0,0,0,0,,,,,,,,,,,,,,,,,,,,,,,,,,,,,,,,,,,,,,,,,,,,,,,,,,,,,,,,,,,,,,,left,0,10,30,40,758.736994,759.737035,759.737035,759.737035,None,None,4,0,1.1148511,759.737035,,,,,,,,,,,,,,,,,,,,,,,,,,,,,,,,,,,,,,,,,,,,,,,,,,,,,,,,,,,,,,,,,10,P1,1,2024-09-24_14h11.02.902,uWM_experiment,2022.2.3,60.00092401
,,,,,,,,1,0,1,0,1,0,1,0,,,,,,,,,,,,,,,,,,,,,,,,,,,,,,,,,,,,,,,,,,,,,,,,,,,,,,,,,,,,,,,right,1,160,30,190,766.9039799,767.904032,767.904032,767.904032,None,None,4,0,0.7556784,,,,,,,,,,,,,,,,,,,,,,,,,,,,,,,,,,,,,,,,,,,,,,,,,,,,,,,,,,,,,,,,,,10,P1,1,2024-09-24_14h11.02.902,uWM_experiment,2022.2.3,60.00092401
,,,,,,,,1,0,1,0,2,0,2,0,,,,,,,,,,,,,,,,,,,,,,,,,,,,,,,,,,,,,,,,,,,,,,,,,,,,,,,,,,,,,,,left,0,70,30,100,777.887741,778.8877921,778.8877921,778.8877921,None,None,4,0,0.8677782,778.8877921,,,,,,,,,,,,,,,,,,,,,,,,,,,,,,,,,,,,,,,,,,,,,,,,,,,,,,,,,,,,,,,,,10,P1,1,2024-09-24_14h11.02.902,uWM_experiment,2022.2.3,60.00092401
,,,,,,,,1,0,1,0,3,0,3,0,,,,,,,,,,,,,,,,,,,,,,,,,,,,,,,,,,,,,,,,,,,,,,,,,,,,,,,,,,,,,,,right,1,70,30,100,789.4048455,790.4048963,790.4048963,790.4048963,None,None,4,0,1.1186675,790.4048963,,,,,,,,,,,,,,,,,,,,,,,,,,,,,,,,,,,,,,,,,,,,,,,,,,,,,,,,,,,,,,,,,10,P1,1,2024-09-24_14h11.02.902,uWM_experiment,2022.2.3,60.00092401
,,,,,,,,1,0,1,0,4,0,4,0,,,,,,,,,,,,,,,,,,,,,,,,,,,,,,,,,,,,,,,,,,,,,,,,,,,,,,,,,,,,,,,left,0,40,30,70,798.2885471,799.288566,799.288566,799.288566,None,None,4,0,0.9151111,799.288566,,,,,,,,,,,,,,,,,,,,,,,,,,,,,,,,,,,,,,,,,,,,,,,,,,,,,,,,,,,,,,,,,10,P1,1,2024-09-24_14h11.02.902,uWM_experiment,2022.2.3,60.00092401
,,,,,,,,1,0,1,0,5,0,5,0,,,,,,,,,,,,,,,,,,,,,,,,,,,,,,,,,,,,,,,,,,,,,,,,,,,,,,,,,,,,,,,left,1,70,-30,40,808.7389354,809.7389822,809.7389822,809.7389822,None,None,4,0,1.016539,809.7389822,,,,,,,,,,,,,,,,,,,,,,,,,,,,,,,,,,,,,,,,,,,,,,,,,,,,,,,,,,,,,,,,,10,P1,1,2024-09-24_14h11.02.902,uWM_experiment,2022.2.3,60.00092401
,,,,,,,,1,0,1,0,6,0,6,0,,,,,,,,,,,,,,,,,,,,,,,,,,,,,,,,,,,,,,,,,,,,,,,,,,,,,,,,,,,,,,,left,1,10,-30,-20,817.7559639,818.7560049,818.7560049,818.7560049,None,None,4,0,0.4795031,818.7560049,,,,,,,,,,,,,,,,,,,,,,,,,,,,,,,,,,,,,,,,,,,,,,,,,,,,,,,,,,,,,,,,,10,P1,1,2024-09-24_14h11.02.902,uWM_experiment,2022.2.3,60.00092401
,,,,,,,,1,0,1,0,7,0,7,0,,,,,,,,,,,,,,,,,,,,,,,,,,,,,,,,,,,,,,,,,,,,,,,,,,,,,,,,,,,,,,,right,1,130,30,160,825.2229334,826.2229547,826.2229547,826.2229547,None,None,4,0,0.3565982,826.2229547,,,,,,,,,,,,,,,,,,,,,,,,,,,,,,,,,,,,,,,,,,,,,,,,,,,,,,,,,,,,,,,,,10,P1,1,2024-09-24_14h11.02.902,uWM_experiment,2022.2.3,60.00092401
,,,,,,,,1,0,1,0,8,0,8,0,,,,,,,,,,,,,,,,,,,,,,,,,,,,,,,,,,,,,,,,,,,,,,,,,,,,,,,,,,,,,,,left,0,40,30,70,833.4565568,834.4565993,834.4565993,834.4565993,None,None,4,0,0.5947198,834.4565993,,,,,,,,,,,,,,,,,,,,,,,,,,,,,,,,,,,,,,,,,,,,,,,,,,,,,,,,,,,,,,,,,10,P1,1,2024-09-24_14h11.02.902,uWM_experiment,2022.2.3,60.00092401
,,,,,,,,1,0,1,0,9,0,9,0,,,,,,,,,,,,,,,,,,,,,,,,,,,,,,,,,,,,,,,,,,,,,,,,,,,,,,,,,,,,,,,left,1,70,-30,40,841.0235251,842.0235757,842.0235757,842.0235757,None,None,4,0,0.4279348,,,,,,,,,,,,,,,,,,,,,,,,,,,,,,,,,,,,,,,,,,,,,,,,,,,,,,,,,,,,,,,,,,10,P1,1,2024-09-24_14h11.02.902,uWM_experiment,2022.2.3,60.00092401
,,,,,,,,1,0,1,0,10,0,10,0,,,,,,,,,,,,,,,,,,,,,,,,,,,,,,,,,,,,,,,,,,,,,,,,,,,,,,,,,,,,,,,right,0,100,-30,70,850.9739249,851.973951,851.973951,851.973951,None,None,4,0,10.6294284,,,,,,,,,,,,,,,,,,,,,,,,,,,,,,,,,,,,,,,,,,,,,,,,,,,,,,,,,,,,,,,,,,10,P1,1,2024-09-24_14h11.02.902,uWM_experiment,2022.2.3,60.00092401
,,,,,,,,1,0,1,0,11,0,11,0,,,,,,,,,,,,,,,,,,,,,,,,,,,,,,,,,,,,,,,,,,,,,,,,,,,,,,,,,,,,,,,right,1,160,30,190,869.1579338,870.1579938,870.1579938,870.1579938,None,None,4,0,0.4933279,870.1579938,,,,,,,,,,,,,,,,,,,,,,,,,,,,,,,,,,,,,,,,,,,,,,,,,,,,,,,,,,,,,,,,,10,P1,1,2024-09-24_14h11.02.902,uWM_experiment,2022.2.3,60.00092401
,,,,,,,,1,0,1,0,,,,,,,,,,,,,,,,,,,,,,,,,,,,,,,,,,,,,,,,,,,,,,,,,,,,,,,,,,,,,,,,,,,,,,,,,,,,,,,,,,,,,,,,,,,,,,,,,,,,,,,,,,,,,,,,,,,,,,,,,,,,,,,,,,,,,,,,,,,,,,,,,,10,P1,1,2024-09-24_14h11.02.902,uWM_experiment,2022.2.3,60.00092401
,,,,,,,,,,,,,,,,,,,,,,,,,,,,,,,,,,,,,,,,,,,,,,,,,,,,,,,,,,,,,,,,,,,,,,,,,,,,,,,,,,,,,,,,,,,,,870.6746578,870.6746578,space,8.0246288,,,,,,,,,,,,,,,,,,,,,,,,,,,,,,,,,,,,,,,,,,,,,,,,,,,,,,,,,,,,,10,P1,1,2024-09-24_14h11.02.902,uWM_experiment,2022.2.3,60.00092401
,,,,,,,,,,,,,,,,0,0,0,0,,,,,,,,,,,,,,,,,,,,,,,,,,,,,,,,,,,,,,,,,,,,,,,,,,,,,,,,,,,,,,,,,,,,,,,,,,,,,,0.071560063,left,1,100,-30,70,1,886.7086549,886.7086549,886.7086549,None,None,2,0,3.7183777,,,,,,,,,,,,,,,,,,,,,,,,,,,,,,,,,,,,,,,,,,,,,,10,P1,1,2024-09-24_14h11.02.902,uWM_experiment,2022.2.3,60.00092401
,,,,,,,,,,,,,,,,1,0,1,0,,,,,,,,,,,,,,,,,,,,,,,,,,,,,,,,,,,,,,,,,,,,,,,,,,,,,,,,,,,,,,,,,,,,,,,,,,,,,,0.1,left,0,70,30,100,2,900.3425081,900.3425081,900.3425081,None,None,4,0,3.4204094,0,,,,,,,,,,,,,,,,,,,,,,,,,,,,,,,,,,,,,,,,,,,,,10,P1,1,2024-09-24_14h11.02.902,uWM_experiment,2022.2.3,60.00092401
,,,,,,,,,,,,,,,,2,0,2,0,,,,,,,,,,,,,,,,,,,,,,,,,,,,,,,,,,,,,,,,,,,,,,,,,,,,,,,,,,,,,,,,,,,,,,,,,,,,,,0.1,right,1,40,30,70,2,911.1762563,911.1762563,911.1762563,None,None,4,0,1.1468602,0,,,,,,,,,,,,,,,,,,,,,,,,,,,,,,,,,,,,,,,,,,,,,10,P1,1,2024-09-24_14h11.02.902,uWM_experiment,2022.2.3,60.00092401
,,,,,,,,,,,,,,,,3,0,3,0,,,,,,,,,,,,,,,,,,,,,,,,,,,,,,,,,,,,,,,,,,,,,,,,,,,,,,,,,,,,,,,,,,,,,,,,,,,,,,0.061560063,left,1,10,-30,-20,1,918.6265698,918.6265698,918.6265698,None,None,1,1,2.4965037,0,,,,,,,,,,,,,,,,,,,,,,,,,,,,,,,,,,,,,,,,,,,,,10,P1,1,2024-09-24_14h11.02.902,uWM_experiment,2022.2.3,60.00092401
,,,,,,,,,,,,,,,,4,0,4,0,,,,,,,,,,,,,,,,,,,,,,,,,,,,,,,,,,,,,,,,,,,,,,,,,,,,,,,,,,,,,,,,,,,,,,,,,,,,,,0.071560063,right,1,70,30,100,1,927.8102375,927.8102375,927.8102375,None,None,2,0,0.5045674,0.25,,,,,,,,,,,,,,,,,,,,,,,,,,,,,,,,,,,,,,,,,,,,,10,P1,1,2024-09-24_14h11.02.902,uWM_experiment,2022.2.3,60.00092401
,,,,,,,,,,,,,,,,5,0,5,0,,,,,,,,,,,,,,,,,,,,,,,,,,,,,,,,,,,,,,,,,,,,,,,,,,,,,,,,,,,,,,,,,,,,,,,,,,,,,,0.1,right,0,160,-30,130,2,936.543978,936.543978,936.543978,None,None,4,0,0.5867742,0.2,,,,,,,,,,,,,,,,,,,,,,,,,,,,,,,,,,,,,,,,,,,,,10,P1,1,2024-09-24_14h11.02.902,uWM_experiment,2022.2.3,60.00092401
,,,,,,,,,,,,,,,,6,0,6,0,,,,,,,,,,,,,,,,,,,,,,,,,,,,,,,,,,,,,,,,,,,,,,,,,,,,,,,,,,,,,,,,,,,,,,,,,,,,,,0.061560063,right,0,70,-30,40,1,942.4108046,942.4108046,942.4108046,None,None,2,0,1.3761447,0.166666667,,,,,,,,,,,,,,,,,,,,,,,,,,,,,,,,,,,,,,,,,,,,,10,P1,1,2024-09-24_14h11.02.902,uWM_experiment,2022.2.3,60.00092401
,,,,,,,,,,,,,,,,7,0,7,0,,,,,,,,,,,,,,,,,,,,,,,,,,,,,,,,,,,,,,,,,,,,,,,,,,,,,,,,,,,,,,,,,,,,,,,,,,,,,,0.051560063,right,1,100,30,130,1,950.0944411,950.0944411,950.0944411,None,None,2,0,2.3963835,0.142857143,,,,,,,,,,,,,,,,,,,,,,,,,,,,,,,,,,,,,,,,,,,,,10,P1,1,2024-09-24_14h11.02.902,uWM_experiment,2022.2.3,60.00092401
,,,,,,,,,,,,,,,,8,0,8,0,,,,,,,,,,,,,,,,,,,,,,,,,,,,,,,,,,,,,,,,,,,,,,,,,,,,,,,,,,,,,,,,,,,,,,,,,,,,,,0.1,left,1,160,-30,130,2,959.8781691,959.8781691,959.8781691,None,None,3,0,1.5166922,0.125,,,,,,,,,,,,,,,,,,,,,,,,,,,,,,,,,,,,,,,,,,,,,10,P1,1,2024-09-24_14h11.02.902,uWM_experiment,2022.2.3,60.00092401
,,,,,,,,,,,,,,,,9,0,9,0,,,,,,,,,,,,,,,,,,,,,,,,,,,,,,,,,,,,,,,,,,,,,,,,,,,,,,,,,,,,,,,,,,,,,,,,,,,,,,0.1,left,1,160,-30,130,2,968.0117933,968.0117933,968.0117933,None,None,3,0,1.4309114,0.111111111,,,,,,,,,,,,,,,,,,,,,,,,,,,,,,,,,,,,,,,,,,,,,10,P1,1,2024-09-24_14h11.02.902,uWM_experiment,2022.2.3,60.00092401
,,,,,,,,,,,,,,,,10,0,10,0,,,,,,,,,,,,,,,,,,,,,,,,,,,,,,,,,,,,,,,,,,,,,,,,,,,,,,,,,,,,,,,,,,,,,,,,,,,,,,0.1,right,1,100,30,130,2,975.3287663,975.3287663,975.3287663,None,None,4,0,1.1059114,0.1,,,,,,,,,,,,,,,,,,,,,,,,,,,,,,,,,,,,,,,,,,,,,10,P1,1,2024-09-24_14h11.02.902,uWM_experiment,2022.2.3,60.00092401
,,,,,,,,,,,,,,,,11,0,11,0,,,,,,,,,,,,,,,,,,,,,,,,,,,,,,,,,,,,,,,,,,,,,,,,,,,,,,,,,,,,,,,,,,,,,,,,,,,,,,0.041560063,left,1,130,-30,100,1,982.4457174,982.4457174,982.4457174,None,None,2,0,0.8929237,0.090909091,,,,,,,,,,,,,,,,,,,,,,,,,,,,,,,,,,,,,,,,,,,,,10,P1,1,2024-09-24_14h11.02.902,uWM_experiment,2022.2.3,60.00092401
,,,,,,,,,,,,,,,,12,0,12,0,,,,,,,,,,,,,,,,,,,,,,,,,,,,,,,,,,,,,,,,,,,,,,,,,,,,,,,,,,,,,,,,,,,,,,,,,,,,,,0.031560063,right,0,160,-30,130,1,989.3459738,989.3459738,989.3459738,None,None,2,0,0.8726101,0.083333333,,,,,,,,,,,,,,,,,,,,,,,,,,,,,,,,,,,,,,,,,,,,,10,P1,1,2024-09-24_14h11.02.902,uWM_experiment,2022.2.3,60.00092401
,,,,,,,,,,,,,,,,13,0,13,0,,,,,,,,,,,,,,,,,,,,,,,,,,,,,,,,,,,,,,,,,,,,,,,,,,,,,,,,,,,,,,,,,,,,,,,,,,,,,,0.021560063,right,1,130,30,160,1,995.9795615,995.9795615,995.9795615,None,None,2,0,0.647039,0.076923077,,,,,,,,,,,,,,,,,,,,,,,,,,,,,,,,,,,,,,,,,,,,,10,P1,1,2024-09-24_14h11.02.902,uWM_experiment,2022.2.3,60.00092401
,,,,,,,,,,,,,,,,14,0,14,0,,,,,,,,,,,,,,,,,,,,,,,,,,,,,,,,,,,,,,,,,,,,,,,,,,,,,,,,,,,,,,,,,,,,,,,,,,,,,,0.1,right,1,40,30,70,2,1003.146508,1003.146508,1003.146508,None,None,1,1,1.6240919,0.071428571,,,,,,,,,,,,,,,,,,,,,,,,,,,,,,,,,,,,,,,,,,,,,10,P1,1,2024-09-24_14h11.02.902,uWM_experiment,2022.2.3,60.00092401
,,,,,,,,,,,,,,,,15,0,15,0,,,,,,,,,,,,,,,,,,,,,,,,,,,,,,,,,,,,,,,,,,,,,,,,,,,,,,,,,,,,,,,,,,,,,,,,,,,,,,0.011560063,left,0,70,30,100,1,1010.996811,1010.996811,1010.996811,None,None,1,1,0.4216554,0.133333333,,,,,,,,,,,,,,,,,,,,,,,,,,,,,,,,,,,,,,,,,,,,,10,P1,1,2024-09-24_14h11.02.902,uWM_experiment,2022.2.3,60.00092401
,,,,,,,,,,,,,,,,16,0,16,0,,,,,,,,,,,,,,,,,,,,,,,,,,,,,,,,,,,,,,,,,,,,,,,,,,,,,,,,,,,,,,,,,,,,,,,,,,,,,,0.021560063,right,0,130,-30,100,1,1018.063761,1018.063761,1018.063761,None,None,1,1,1.0026011,0.1875,,,,,,,,,,,,,,,,,,,,,,,,,,,,,,,,,,,,,,,,,,,,,10,P1,1,2024-09-24_14h11.02.902,uWM_experiment,2022.2.3,60.00092401
,,,,,,,,,,,,,,,,17,0,17,0,,,,,,,,,,,,,,,,,,,,,,,,,,,,,,,,,,,,,,,,,,,,,,,,,,,,,,,,,,,,,,,,,,,,,,,,,,,,,,0.1,left,1,10,-30,-20,2,1025.080674,1025.080674,1025.080674,None,None,3,0,2.8018043,0.235294118,,,,,,,,,,,,,,,,,,,,,,,,,,,,,,,,,,,,,,,,,,,,,10,P1,1,2024-09-24_14h11.02.902,uWM_experiment,2022.2.3,60.00092401
,,,,,,,,,,,,,,,,18,0,18,0,,,,,,,,,,,,,,,,,,,,,,,,,,,,,,,,,,,,,,,,,,,,,,,,,,,,,,,,,,,,,,,,,,,,,,,,,,,,,,0.1,left,1,40,-30,10,2,1034.114386,1034.114386,1034.114386,None,None,3,0,3.4558779,0.222222222,,,,,,,,,,,,,,,,,,,,,,,,,,,,,,,,,,,,,,,,,,,,,10,P1,1,2024-09-24_14h11.02.902,uWM_experiment,2022.2.3,60.00092401
,,,,,,,,,,,,,,,,19,0,19,0,,,,,,,,,,,,,,,,,,,,,,,,,,,,,,,,,,,,,,,,,,,,,,,,,,,,,,,,,,,,,,,,,,,,,,,,,,,,,,0.1,right,1,130,30,160,2,1043.264716,1043.264716,1043.264716,None,None,4,0,0.361599,0.210526316,,,,,,,,,,,,,,,,,,,,,,,,,,,,,,,,,,,,,,,,,,,,,10,P1,1,2024-09-24_14h11.02.902,uWM_experiment,2022.2.3,60.00092401
,,,,,,,,,,,,,,,,20,0,20,0,,,,,,,,,,,,,,,,,,,,,,,,,,,,,,,,,,,,,,,,,,,,,,,,,,,,,,,,,,,,,,,,,,,,,,,,,,,,,,0.031560063,left,0,10,30,40,1,1050.298348,1050.298348,1050.298348,None,None,1,1,3.3198095,0.2,,,,,,,,,,,,,,,,,,,,,,,,,,,,,,,,,,,,,,,,,,,,,10,P1,1,2024-09-24_14h11.02.902,uWM_experiment,2022.2.3,60.00092401
,,,,,,,,,,,,,,,,21,0,21,0,,,,,,,,,,,,,,,,,,,,,,,,,,,,,,,,,,,,,,,,,,,,,,,,,,,,,,,,,,,,,,,,,,,,,,,,,,,,,,0.1,left,1,10,-30,-20,2,1059.648697,1059.648697,1059.648697,None,None,3,0,1.9534334,0.238095238,,,,,,,,,,,,,,,,,,,,,,,,,,,,,,,,,,,,,,,,,,,,,10,P1,1,2024-09-24_14h11.02.902,uWM_experiment,2022.2.3,60.00092401
,,,,,,,,,,,,,,,,22,0,22,0,,,,,,,,,,,,,,,,,,,,,,,,,,,,,,,,,,,,,,,,,,,,,,,,,,,,,,,,,,,,,,,,,,,,,,,,,,,,,,0.1,right,1,40,30,70,2,1068.065702,1068.065702,1068.065702,None,None,3,0,1.3364581,0.227272727,,,,,,,,,,,,,,,,,,,,,,,,,,,,,,,,,,,,,,,,,,,,,10,P1,1,2024-09-24_14h11.02.902,uWM_experiment,2022.2.3,60.00092401
,,,,,,,,,,,,,,,,23,0,23,0,,,,,,,,,,,,,,,,,,,,,,,,,,,,,,,,,,,,,,,,,,,,,,,,,,,,,,,,,,,,,,,,,,,,,,,,,,,,,,0.041560063,right,1,100,30,130,1,1078.149437,1078.149437,1078.149437,None,None,1,1,1.0525907,0.217391304,,,,,,,,,,,,,,,,,,,,,,,,,,,,,,,,,,,,,,,,,,,,,10,P1,1,2024-09-24_14h11.02.902,uWM_experiment,2022.2.3,60.00092401
,,,,,,,,,,,,,,,,,,,,,,,,,,,,,,,,,,,,,,,,,,,,,,,,,,,,,,,,,,,,,,,,,,,,,,,,,,,,,,,,,,,,,,,,,,,,,,,,,,,,,,,,,,,,,,,,,1079.23279,1080.216167,space,14.3139934,,,,,,,,,,,,,,,,,,,,,,,,,,,,,,,,,,,,,,,,,10,P1,1,2024-09-24_14h11.02.902,uWM_experiment,2022.2.3,60.00092401
,,,,,,,,,,,,,,,,,,,,0,0,0,0,0,0,0,0,,,,,,,,,,,,,,,,,,,,,,,,,,,,,,,,,,,,,,,,,,,,,,,,,,,,,,,,,,,,,,,,,,,,,,0.041560063,,,,,,,,,,,,,,,,,,,,1094.550058,1095.250086,1095.533428,1096.233469,1096.533486,1097.233518,1097.233518,1097.583522,right,1,70,30,100,1,1103.000384,1103.000384,1103.000384,None,None,2,0,6.6497385,,,,,,,,,,,,,,,,,,,10,P1,1,2024-09-24_14h11.02.902,uWM_experiment,2022.2.3,60.00092401
,,,,,,,,,,,,,,,,,,,,0,0,0,0,1,0,1,0,,,,,,,,,,,,,,,,,,,,,,,,,,,,,,,,,,,,,,,,,,,,,,,,,,,,,,,,,,,,,,,,,,,,,,0.031560063,,,,,,,,,,,,,,,,,,,,,,,,,,,,right,1,130,30,160,1,1116.334229,1116.334229,1116.334229,None,None,1,1,1.1958273,,,,,,,,,,,,,,,,,,,10,P1,1,2024-09-24_14h11.02.902,uWM_experiment,2022.2.3,60.00092401
,,,,,,,,,,,,,,,,,,,,0,0,0,0,2,0,2,0,,,,,,,,,,,,,,,,,,,,,,,,,,,,,,,,,,,,,,,,,,,,,,,,,,,,,,,,,,,,,,,,,,,,,,0.041560063,,,,,,,,,,,,,,,,,,,,,,,,,,,,left,1,100,-30,70,1,1123.751207,1123.751207,1123.751207,None,None,1,1,1.2267582,,,,,,,,,,,,,,,,,,,10,P1,1,2024-09-24_14h11.02.902,uWM_experiment,2022.2.3,60.00092401
,,,,,,,,,,,,,,,,,,,,0,0,0,0,3,0,3,0,,,,,,,,,,,,,,,,,,,,,,,,,,,,,,,,,,,,,,,,,,,,,,,,,,,,,,,,,,,,,,,,,,,,,,0,,,,,,,,,,,,,,,,,,,,,,,,,,,,right,0,40,-30,10,0,1132.784889,1132.784889,1132.784889,None,None,1,1,0.7850077,,,,,,,,,,,,,,,,,,,10,P1,1,2024-09-24_14h11.02.902,uWM_experiment,2022.2.3,60.00092401
,,,,,,,,,,,,,,,,,,,,0,0,0,0,4,0,4,0,,,,,,,,,,,,,,,,,,,,,,,,,,,,,,,,,,,,,,,,,,,,,,,,,,,,,,,,,,,,,,,,,,,,,,0.051560063,,,,,,,,,,,,,,,,,,,,,,,,,,,,left,1,100,-30,70,1,1140.085186,1140.085186,1140.085186,None,None,1,1,0.5406742,,,,,,,,,,,,,,,,,,,10,P1,1,2024-09-24_14h11.02.902,uWM_experiment,2022.2.3,60.00092401
,,,,,,,,,,,,,,,,,,,,0,0,0,0,5,0,5,0,,,,,,,,,,,,,,,,,,,,,,,,,,,,,,,,,,,,,,,,,,,,,,,,,,,,,,,,,,,,,,,,,,,,,,0.061560063,,,,,,,,,,,,,,,,,,,,,,,,,,,,left,1,100,-30,70,1,1148.502158,1148.502158,1148.502158,None,None,1,1,0.8997429,,,,,,,,,,,,,,,,,,,10,P1,1,2024-09-24_14h11.02.902,uWM_experiment,2022.2.3,60.00092401
,,,,,,,,,,,,,,,,,,,,0,0,0,0,6,0,6,0,,,,,,,,,,,,,,,,,,,,,,,,,,,,,,,,,,,,,,,,,,,,,,,,,,,,,,,,,,,,,,,,,,,,,,0.071560063,,,,,,,,,,,,,,,,,,,,,,,,,,,,left,0,10,30,40,1,1156.219135,1156.219135,1156.219135,None,None,2,0,4.2704758,,,,,,,,,,,,,,,,,,,10,P1,1,2024-09-24_14h11.02.902,uWM_experiment,2022.2.3,60.00092401
,,,,,,,,,,,,,,,,,,,,0,0,0,0,7,0,7,0,,,,,,,,,,,,,,,,,,,,,,,,,,,,,,,,,,,,,,,,,,,,,,,,,,,,,,,,,,,,,,,,,,,,,,0.061560063,,,,,,,,,,,,,,,,,,,,,,,,,,,,left,1,100,-30,70,1,1169.352982,1169.352982,1169.352982,None,None,1,1,0.7448091,,,,,,,,,,,,,,,,,,,10,P1,1,2024-09-24_14h11.02.902,uWM_experiment,2022.2.3,60.00092401
,,,,,,,,,,,,,,,,,,,,0,0,0,0,8,0,8,0,,,,,,,,,,,,,,,,,,,,,,,,,,,,,,,,,,,,,,,,,,,,,,,,,,,,,,,,,,,,,,,,,,,,,,0.071560063,,,,,,,,,,,,,,,,,,,,,,,,,,,,right,1,70,30,100,1,1177.586623,1177.586623,1177.586623,None,None,1,1,0.8548823,,,,,,,,,,,,,,,,,,,10,P1,1,2024-09-24_14h11.02.902,uWM_experiment,2022.2.3,60.00092401
,,,,,,,,,,,,,,,,,,,,0,0,0,0,9,0,9,0,,,,,,,,,,,,,,,,,,,,,,,,,,,,,,,,,,,,,,,,,,,,,,,,,,,,,,,,,,,,,,,,,,,,,,0.081560063,,,,,,,,,,,,,,,,,,,,,,,,,,,,left,1,130,-30,100,1,1188.687066,1188.687066,1188.687066,None,None,1,1,0.4105139,,,,,,,,,,,,,,,,,,,10,P1,1,2024-09-24_14h11.02.902,uWM_experiment,2022.2.3,60.00092401
,,,,,,,,,,,,,,,,,,,,0,0,0,0,10,0,10,0,,,,,,,,,,,,,,,,,,,,,,,,,,,,,,,,,,,,,,,,,,,,,,,,,,,,,,,,,,,,,,,,,,,,,,0.091560063,,,,,,,,,,,,,,,,,,,,,,,,,,,,left,1,100,-30,70,1,1197.220725,1197.220725,1197.220725,None,None,1,1,0.5169594,,,,,,,,,,,,,,,,,,,10,P1,1,2024-09-24_14h11.02.902,uWM_experiment,2022.2.3,60.00092401
,,,,,,,,,,,,,,,,,,,,0,0,0,0,11,0,11,0,,,,,,,,,,,,,,,,,,,,,,,,,,,,,,,,,,,,,,,,,,,,,,,,,,,,,,,,,,,,,,,,,,,,,,0.101560063,,,,,,,,,,,,,,,,,,,,,,,,,,,,left,0,40,30,70,1,1208.021169,1208.021169,1208.021169,None,None,1,1,1.0763422,,,,,,,,,,,,,,,,,,,10,P1,1,2024-09-24_14h11.02.902,uWM_experiment,2022.2.3,60.00092401
,,,,,,,,,,,,,,,,,,,,0,0,0,0,12,0,12,0,,,,,,,,,,,,,,,,,,,,,,,,,,,,,,,,,,,,,,,,,,,,,,,,,,,,,,,,,,,,,,,,,,,,,,0.111560063,,,,,,,,,,,,,,,,,,,,,,,,,,,,left,1,10,-30,-20,1,1215.821459,1215.821459,1215.821459,None,None,1,1,0.2759253,,,,,,,,,,,,,,,,,,,10,P1,1,2024-09-24_14h11.02.902,uWM_experiment,2022.2.3,60.00092401
,,,,,,,,,,,,,,,,,,,,0,0,0,0,13,0,13,0,,,,,,,,,,,,,,,,,,,,,,,,,,,,,,,,,,,,,,,,,,,,,,,,,,,,,,,,,,,,,,,,,,,,,,0.121560063,,,,,,,,,,,,,,,,,,,,,,,,,,,,right,1,130,30,160,1,1221.755037,1221.755037,1221.755037,None,None,1,1,0.3424492,,,,,,,,,,,,,,,,,,,10,P1,1,2024-09-24_14h11.02.902,uWM_experiment,2022.2.3,60.00092401
,,,,,,,,,,,,,,,,,,,,0,0,0,0,14,0,14,0,,,,,,,,,,,,,,,,,,,,,,,,,,,,,,,,,,,,,,,,,,,,,,,,,,,,,,,,,,,,,,,,,,,,,,0.131560063,,,,,,,,,,,,,,,,,,,,,,,,,,,,left,1,40,-30,10,1,1227.921931,1227.921931,1227.921931,None,None,1,1,0.2553244,,,,,,,,,,,,,,,,,,,10,P1,1,2024-09-24_14h11.02.902,uWM_experiment,2022.2.3,60.00092401
,,,,,,,,,,,,,,,,,,,,0,0,0,0,15,0,15,0,,,,,,,,,,,,,,,,,,,,,,,,,,,,,,,,,,,,,,,,,,,,,,,,,,,,,,,,,,,,,,,,,,,,,,0.141560063,,,,,,,,,,,,,,,,,,,,,,,,,,,,left,1,100,-30,70,1,1234.838867,1234.838867,1234.838867,None,None,1,1,0.2664744,,,,,,,,,,,,,,,,,,,10,P1,1,2024-09-24_14h11.02.902,uWM_experiment,2022.2.3,60.00092401
,,,,,,,,,,,,,,,,,,,,0,0,0,0,16,0,16,0,,,,,,,,,,,,,,,,,,,,,,,,,,,,,,,,,,,,,,,,,,,,,,,,,,,,,,,,,,,,,,,,,,,,,,0.151560063,,,,,,,,,,,,,,,,,,,,,,,,,,,,right,1,10,30,40,1,1241.10578,1241.10578,1241.10578,None,None,1,1,0.5838176,,,,,,,,,,,,,,,,,,,10,P1,1,2024-09-24_14h11.02.902,uWM_experiment,2022.2.3,60.00092401
,,,,,,,,,,,,,,,,,,,,0,0,0,0,17,0,17,0,,,,,,,,,,,,,,,,,,,,,,,,,,,,,,,,,,,,,,,,,,,,,,,,,,,,,,,,,,,,,,,,,,,,,,0.161560063,,,,,,,,,,,,,,,,,,,,,,,,,,,,right,1,130,30,160,1,1247.75605,1247.75605,1247.75605,None,None,1,1,0.5493585,,,,,,,,,,,,,,,,,,,10,P1,1,2024-09-24_14h11.02.902,uWM_experiment,2022.2.3,60.00092401
,,,,,,,,,,,,,,,,,,,,0,0,0,0,18,0,18,0,,,,,,,,,,,,,,,,,,,,,,,,,,,,,,,,,,,,,,,,,,,,,,,,,,,,,,,,,,,,,,,,,,,,,,0.171560063,,,,,,,,,,,,,,,,,,,,,,,,,,,,right,1,40,30,70,1,1255.606347,1255.606347,1255.606347,None,None,1,1,0.7069979,,,,,,,,,,,,,,,,,,,10,P1,1,2024-09-24_14h11.02.902,uWM_experiment,2022.2.3,60.00092401
,,,,,,,,,,,,,,,,,,,,0,0,0,0,19,0,19,0,,,,,,,,,,,,,,,,,,,,,,,,,,,,,,,,,,,,,,,,,,,,,,,,,,,,,,,,,,,,,,,,,,,,,,0.181560063,,,,,,,,,,,,,,,,,,,,,,,,,,,,left,0,40,30,70,1,1262.62329,1262.62329,1262.62329,None,None,1,1,0.3378083,,,,,,,,,,,,,,,,,,,10,P1,1,2024-09-24_14h11.02.902,uWM_experiment,2022.2.3,60.00092401
,,,,,,,,,,,,,,,,,,,,0,0,0,0,20,0,20,0,,,,,,,,,,,,,,,,,,,,,,,,,,,,,,,,,,,,,,,,,,,,,,,,,,,,,,,,,,,,,,,,,,,,,,0.191560063,,,,,,,,,,,,,,,,,,,,,,,,,,,,right,1,10,30,40,1,1269.156861,1269.156861,1269.156861,None,None,1,1,0.4682449,,,,,,,,,,,,,,,,,,,10,P1,1,2024-09-24_14h11.02.902,uWM_experiment,2022.2.3,60.00092401
,,,,,,,,,,,,,,,,,,,,0,0,0,0,21,0,21,0,,,,,,,,,,,,,,,,,,,,,,,,,,,,,,,,,,,,,,,,,,,,,,,,,,,,,,,,,,,,,,,,,,,,,,0.201560063,,,,,,,,,,,,,,,,,,,,,,,,,,,,left,1,70,-30,40,1,1276.457161,1276.457161,1276.457161,None,None,1,1,0.4960789,,,,,,,,,,,,,,,,,,,10,P1,1,2024-09-24_14h11.02.902,uWM_experiment,2022.2.3,60.00092401
,,,,,,,,,,,,,,,,,,,,0,0,0,0,22,0,22,0,,,,,,,,,,,,,,,,,,,,,,,,,,,,,,,,,,,,,,,,,,,,,,,,,,,,,,,,,,,,,,,,,,,,,,0.211560063,,,,,,,,,,,,,,,,,,,,,,,,,,,,left,1,160,-30,130,1,1282.840743,1282.840743,1282.840743,None,None,1,1,0.352288,,,,,,,,,,,,,,,,,,,10,P1,1,2024-09-24_14h11.02.902,uWM_experiment,2022.2.3,60.00092401
,,,,,,,,,,,,,,,,,,,,0,0,0,0,23,0,23,0,,,,,,,,,,,,,,,,,,,,,,,,,,,,,,,,,,,,,,,,,,,,,,,,,,,,,,,,,,,,,,,,,,,,,,0,,,,,,,,,,,,,,,,,,,,,,,,,,,,left,0,100,30,130,0,1288.374315,1288.374315,1288.374315,None,None,1,1,0.1226673,,,,,,,,,,,,,,,,,,,10,P1,1,2024-09-24_14h11.02.902,uWM_experiment,2022.2.3,60.00092401
,,,,,,,,,,,,,,,,,,,,0,0,0,0,,,,,0,0,0,0,,,,,,,,,,,,,,,,,,,,,,,,,,,,,,,,,,,,,,,,,,,,,,,,,,,,,,,,,,,,,,,,,,,,,,,,,,,,,,,,,,,,,,,,,,,,,,,,,,,,,,,,,,,,1288.524301,1288.524301,space,48.0606519,None,None,,,,,,,,,,,,,10,P1,1,2024-09-24_14h11.02.902,uWM_experiment,2022.2.3,60.00092401
,,,,,,,,,,,,,,,,,,,,0,0,0,0,,,,,1,0,1,0,,,,,,,,,,,,,,,,,,,,,,,,,,,,,,,,,,,,,,,,,,,,,,,,,,,,,,,,,,,,,,,,,,,,,,,,,,,,,,,,,,,,,,,,,,,,,,,,,,,,,,,,,,,,,,,,,,,,,,,,,,,,,,10,P1,1,2024-09-24_14h11.02.902,uWM_experiment,2022.2.3,60.00092401
,,,,,,,,,,,,,,,,,,,,0,0,0,0,,,,,2,0,2,0,,,,,,,,,,,,,,,,,,,,,,,,,,,,,,,,,,,,,,,,,,,,,,,,,,,,,,,,,,,,,,,,,,,,,,,,,,,,,,,,,,,,,,,,,,,,,,,,,,,,,,,,,,,,,,,,,,,,,,,,,,,,,,10,P1,1,2024-09-24_14h11.02.902,uWM_experiment,2022.2.3,60.00092401
,,,,,,,,,,,,,,,,,,,,1,0,1,0,0,0,0,0,,,,,,,,,,,,,,,,,,,,,,,,,,,,,,,,,,,,,,,,,,,,,,,,,,,,,,,,,,,,,,,,,,,,,,0.221560063,,,,,,,,,,,,,,,,,,,,1336.609511,1337.309532,1337.609542,1338.30957,1338.609582,1339.309634,1339.309634,1339.626294,right,1,130,30,160,1,1344.45982,1344.45982,1344.45982,None,None,2,0,1.9008551,,,,,,,None,,,,,,,,,,,,10,P1,1,2024-09-24_14h11.02.902,uWM_experiment,2022.2.3,60.00092401
,,,,,,,,,,,,,,,,,,,,1,0,1,0,1,0,1,0,,,,,,,,,,,,,,,,,,,,,,,,,,,,,,,,,,,,,,,,,,,,,,,,,,,,,,,,,,,,,,,,,,,,,,0.211560063,,,,,,,,,,,,,,,,,,,,,,,,,,,,right,0,160,-30,130,1,1353.743532,1353.743532,1353.743532,None,None,2,0,2.2893271,,,,,,,,,,,,,,,,,,,10,P1,1,2024-09-24_14h11.02.902,uWM_experiment,2022.2.3,60.00092401
,,,,,,,,,,,,,,,,,,,,1,0,1,0,2,0,2,0,,,,,,,,,,,,,,,,,,,,,,,,,,,,,,,,,,,,,,,,,,,,,,,,,,,,,,,,,,,,,,,,,,,,,,0.201560063,,,,,,,,,,,,,,,,,,,,,,,,,,,,left,1,40,-30,10,1,1361.910483,1361.910483,1361.910483,None,None,1,1,0.4661992,,,,,,,,,,,,,,,,,,,10,P1,1,2024-09-24_14h11.02.902,uWM_experiment,2022.2.3,60.00092401
,,,,,,,,,,,,,,,,,,,,1,0,1,0,3,0,3,0,,,,,,,,,,,,,,,,,,,,,,,,,,,,,,,,,,,,,,,,,,,,,,,,,,,,,,,,,,,,,,,,,,,,,,0,,,,,,,,,,,,,,,,,,,,,,,,,,,,left,0,160,30,190,0,1367.560731,1367.560731,1367.560731,None,None,1,1,0.3758936,,,,,,,,,,,,,,,,,,,10,P1,1,2024-09-24_14h11.02.902,uWM_experiment,2022.2.3,60.00092401
,,,,,,,,,,,,,,,,,,,,1,0,1,0,4,0,4,0,,,,,,,,,,,,,,,,,,,,,,,,,,,,,,,,,,,,,,,,,,,,,,,,,,,,,,,,,,,,,,,,,,,,,,0.211560063,,,,,,,,,,,,,,,,,,,,,,,,,,,,left,1,40,-30,10,1,1373.677651,1373.677651,1373.677651,None,None,1,1,0.242993,,,,,,,,,,,,,,,,,,,10,P1,1,2024-09-24_14h11.02.902,uWM_experiment,2022.2.3,60.00092401
,,,,,,,,,,,,,,,,,,,,1,0,1,0,5,0,5,0,,,,,,,,,,,,,,,,,,,,,,,,,,,,,,,,,,,,,,,,,,,,,,,,,,,,,,,,,,,,,,,,,,,,,,0,,,,,,,,,,,,,,,,,,,,,,,,,,,,right,0,130,-30,100,0,1380.927905,1380.927905,1380.927905,None,None,1,1,0.2809438,,,,,,,,,,,,,,,,,,,10,P1,1,2024-09-24_14h11.02.902,uWM_experiment,2022.2.3,60.00092401
,,,,,,,,,,,,,,,,,,,,1,0,1,0,6,0,6,0,,,,,,,,,,,,,,,,,,,,,,,,,,,,,,,,,,,,,,,,,,,,,,,,,,,,,,,,,,,,,,,,,,,,,,0.221560063,,,,,,,,,,,,,,,,,,,,,,,,,,,,right,0,160,-30,130,1,1387.394815,1387.394815,1387.394815,None,None,1,1,0.1496619,,,,,,,,,,,,,,,,,,,10,P1,1,2024-09-24_14h11.02.902,uWM_experiment,2022.2.3,60.00092401
,,,,,,,,,,,,,,,,,,,,1,0,1,0,7,0,7,0,,,,,,,,,,,,,,,,,,,,,,,,,,,,,,,,,,,,,,,,,,,,,,,,,,,,,,,,,,,,,,,,,,,,,,0.231560063,,,,,,,,,,,,,,,,,,,,,,,,,,,,right,1,40,30,70,1,1396.195207,1396.195207,1396.195207,None,None,2,0,2.8453693,,,,,,,,,,,,,,,,,,,10,P1,1,2024-09-24_14h11.02.902,uWM_experiment,2022.2.3,60.00092401
,,,,,,,,,,,,,,,,,,,,1,0,1,0,8,0,8,0,,,,,,,,,,,,,,,,,,,,,,,,,,,,,,,,,,,,,,,,,,,,,,,,,,,,,,,,,,,,,,,,,,,,,,0.221560063,,,,,,,,,,,,,,,,,,,,,,,,,,,,left,1,130,-30,100,1,1405.97888,1405.97888,1405.97888,None,None,1,1,2.1015466,,,,,,,,,,,,,,,,,,,10,P1,1,2024-09-24_14h11.02.902,uWM_experiment,2022.2.3,60.00092401
,,,,,,,,,,,,,,,,,,,,1,0,1,0,9,0,9,0,,,,,,,,,,,,,,,,,,,,,,,,,,,,,,,,,,,,,,,,,,,,,,,,,,,,,,,,,,,,,,,,,,,,,,0.231560063,,,,,,,,,,,,,,,,,,,,,,,,,,,,right,1,130,30,160,1,1414.179202,1414.179202,1414.179202,None,None,1,1,0.74111,,,,,,,,,,,,,,,,,,,10,P1,1,2024-09-24_14h11.02.902,uWM_experiment,2022.2.3,60.00092401
,,,,,,,,,,,,,,,,,,,,1,0,1,0,10,0,10,0,,,,,,,,,,,,,,,,,,,,,,,,,,,,,,,,,,,,,,,,,,,,,,,,,,,,,,,,,,,,,,,,,,,,,,0.1,,,,,,,,,,,,,,,,,,,,,,,,,,,,right,1,130,30,160,2,1420.929471,1420.929471,1420.929471,None,None,4,0,4.5669858,,,,,,,,,,,,,,,,,,,10,P1,1,2024-09-24_14h11.02.902,uWM_experiment,2022.2.3,60.00092401
,,,,,,,,,,,,,,,,,,,,1,0,1,0,11,0,11,0,,,,,,,,,,,,,,,,,,,,,,,,,,,,,,,,,,,,,,,,,,,,,,,,,,,,,,,,,,,,,,,,,,,,,,0.241560063,,,,,,,,,,,,,,,,,,,,,,,,,,,,left,1,130,-30,100,1,1431.979906,1431.979906,1431.979906,None,None,2,0,1.1965229,,,,,,,,,,,,,,,,,,,10,P1,1,2024-09-24_14h11.02.902,uWM_experiment,2022.2.3,60.00092401
,,,,,,,,,,,,,,,,,,,,1,0,1,0,12,0,12,0,,,,,,,,,,,,,,,,,,,,,,,,,,,,,,,,,,,,,,,,,,,,,,,,,,,,,,,,,,,,,,,,,,,,,,0,,,,,,,,,,,,,,,,,,,,,,,,,,,,right,0,160,-30,130,0,1439.546918,1439.546918,1439.546918,None,None,1,1,0.2614286,,,,,,,,,,,,,,,,,,,10,P1,1,2024-09-24_14h11.02.902,uWM_experiment,2022.2.3,60.00092401
,,,,,,,,,,,,,,,,,,,,1,0,1,0,13,0,13,0,,,,,,,,,,,,,,,,,,,,,,,,,,,,,,,,,,,,,,,,,,,,,,,,,,,,,,,,,,,,,,,,,,,,,,0,,,,,,,,,,,,,,,,,,,,,,,,,,,,right,0,130,-30,100,0,1446.897161,1446.897161,1446.897161,None,None,1,1,0.631113,,,,,,,,,,,,,,,,,,,10,P1,1,2024-09-24_14h11.02.902,uWM_experiment,2022.2.3,60.00092401
,,,,,,,,,,,,,,,,,,,,1,0,1,0,14,0,14,0,,,,,,,,,,,,,,,,,,,,,,,,,,,,,,,,,,,,,,,,,,,,,,,,,,,,,,,,,,,,,,,,,,,,,,0.231560063,,,,,,,,,,,,,,,,,,,,,,,,,,,,right,1,160,30,190,1,1455.54748,1455.54748,1455.54748,None,None,1,1,0.9166724,,,,,,,,,,,,,,,,,,,10,P1,1,2024-09-24_14h11.02.902,uWM_experiment,2022.2.3,60.00092401
,,,,,,,,,,,,,,,,,,,,1,0,1,0,15,0,15,0,,,,,,,,,,,,,,,,,,,,,,,,,,,,,,,,,,,,,,,,,,,,,,,,,,,,,,,,,,,,,,,,,,,,,,0.241560063,,,,,,,,,,,,,,,,,,,,,,,,,,,,left,0,100,30,130,1,1465.731218,1465.731218,1465.731218,None,None,1,1,0.9330491,,,,,,,,,,,,,,,,,,,10,P1,1,2024-09-24_14h11.02.902,uWM_experiment,2022.2.3,60.00092401
,,,,,,,,,,,,,,,,,,,,1,0,1,0,16,0,16,0,,,,,,,,,,,,,,,,,,,,,,,,,,,,,,,,,,,,,,,,,,,,,,,,,,,,,,,,,,,,,,,,,,,,,,0.251560063,,,,,,,,,,,,,,,,,,,,,,,,,,,,left,1,100,-30,70,1,1473.164843,1473.164843,1473.164843,None,None,1,1,0.5711572,,,,,,,,,,,,,,,,,,,10,P1,1,2024-09-24_14h11.02.902,uWM_experiment,2022.2.3,60.00092401
,,,,,,,,,,,,,,,,,,,,1,0,1,0,17,0,17,0,,,,,,,,,,,,,,,,,,,,,,,,,,,,,,,,,,,,,,,,,,,,,,,,,,,,,,,,,,,,,,,,,,,,,,0,,,,,,,,,,,,,,,,,,,,,,,,,,,,right,0,160,-30,130,0,1480.198448,1480.198448,1480.198448,None,None,1,1,0.2336423,,,,,,,,,,,,,,,,,,,10,P1,1,2024-09-24_14h11.02.902,uWM_experiment,2022.2.3,60.00092401
,,,,,,,,,,,,,,,,,,,,1,0,1,0,18,0,18,0,,,,,,,,,,,,,,,,,,,,,,,,,,,,,,,,,,,,,,,,,,,,,,,,,,,,,,,,,,,,,,,,,,,,,,0.261560063,,,,,,,,,,,,,,,,,,,,,,,,,,,,left,1,70,-30,40,1,1486.448688,1486.448688,1486.448688,None,None,2,0,0.6073644,,,,,,,,,,,,,,,,,,,10,P1,1,2024-09-24_14h11.02.902,uWM_experiment,2022.2.3,60.00092401
,,,,,,,,,,,,,,,,,,,,1,0,1,0,19,0,19,0,,,,,,,,,,,,,,,,,,,,,,,,,,,,,,,,,,,,,,,,,,,,,,,,,,,,,,,,,,,,,,,,,,,,,,0.251560063,,,,,,,,,,,,,,,,,,,,,,,,,,,,right,1,100,30,130,1,1493.198958,1493.198958,1493.198958,None,None,2,0,0.2811499,,,,,,,,,,,,,,,,,,,10,P1,1,2024-09-24_14h11.02.902,uWM_experiment,2022.2.3,60.00092401
,,,,,,,,,,,,,,,,,,,,1,0,1,0,20,0,20,0,,,,,,,,,,,,,,,,,,,,,,,,,,,,,,,,,,,,,,,,,,,,,,,,,,,,,,,,,,,,,,,,,,,,,,0,,,,,,,,,,,,,,,,,,,,,,,,,,,,left,1,130,-30,100,0,1500.199254,1500.199254,1500.199254,None,None,1,1,0.3766671,,,,,,,,,,,,,,,,,,,10,P1,1,2024-09-24_14h11.02.902,uWM_experiment,2022.2.3,60.00092401
,,,,,,,,,,,,,,,,,,,,1,0,1,0,21,0,21,0,,,,,,,,,,,,,,,,,,,,,,,,,,,,,,,,,,,,,,,,,,,,,,,,,,,,,,,,,,,,,,,,,,,,,,0.241560063,,,,,,,,,,,,,,,,,,,,,,,,,,,,right,1,70,30,100,1,1507.249494,1507.249494,1507.249494,None,None,1,1,1.2863359,,,,,,,,,,,,,,,,,,,10,P1,1,2024-09-24_14h11.02.902,uWM_experiment,2022.2.3,60.00092401
,,,,,,,,,,,,,,,,,,,,1,0,1,0,22,0,22,0,,,,,,,,,,,,,,,,,,,,,,,,,,,,,,,,,,,,,,,,,,,,,,,,,,,,,,,,,,,,,,,,,,,,,,0,,,,,,,,,,,,,,,,,,,,,,,,,,,,right,0,130,-30,100,0,1514.666471,1514.666471,1514.666471,None,None,1,1,0.1895785,,,,,,,,,,,,,,,,,,,10,P1,1,2024-09-24_14h11.02.902,uWM_experiment,2022.2.3,60.00092401
,,,,,,,,,,,,,,,,,,,,1,0,1,0,23,0,23,0,,,,,,,,,,,,,,,,,,,,,,,,,,,,,,,,,,,,,,,,,,,,,,,,,,,,,,,,,,,,,,,,,,,,,,0,,,,,,,,,,,,,,,,,,,,,,,,,,,,right,1,130,30,160,0,1520.516683,1520.516683,1520.516683,None,None,1,1,0.2191349,,,,,,,,,,,,,,,,,,,10,P1,1,2024-09-24_14h11.02.902,uWM_experiment,2022.2.3,60.00092401
,,,,,,,,,,,,,,,,,,,,1,0,1,0,,,,,0,0,0,0,,,,,,,,,,,,,,,,,,,,,,,,,,,,,,,,,,,,,,,,,,,,,,,,,,,,,,,,,,,,,,,,,,,,,,,,,,,,,,,,,,,,,,,,,,,,,,,,,,,,,,,,,,,,1520.766678,1520.766678,space,28.329179,None,None,,,,,,,,,,,,,10,P1,1,2024-09-24_14h11.02.902,uWM_experiment,2022.2.3,60.00092401
,,,,,,,,,,,,,,,,,,,,1,0,1,0,,,,,1,0,1,0,,,,,,,,,,,,,,,,,,,,,,,,,,,,,,,,,,,,,,,,,,,,,,,,,,,,,,,,,,,,,,,,,,,,,,,,,,,,,,,,,,,,,,,,,,,,,,,,,,,,,,,,,,,,,,,,,,,,,,,,,,,,,,10,P1,1,2024-09-24_14h11.02.902,uWM_experiment,2022.2.3,60.00092401
,,,,,,,,,,,,,,,,,,,,1,0,1,0,,,,,2,0,2,0,,,,,,,,,,,,,,,,,,,,,,,,,,,,,,,,,,,,,,,,,,,,,,,,,,,,,,,,,,,,,,,,,,,,,,,,,,,,,,,,,,,,,,,,,,,,,,,,,,,,,,,,,,,,,,,,,,,,,,,,,,,,,,10,P1,1,2024-09-24_14h11.02.902,uWM_experiment,2022.2.3,60.00092401
,,,,,,,,,,,,,,,,,,,,2,0,2,0,0,0,0,0,,,,,,,,,,,,,,,,,,,,,,,,,,,,,,,,,,,,,,,,,,,,,,,,,,,,,,,,,,,,,,,,,,,,,,0,,,,,,,,,,,,,,,,,,,,1549.117802,1549.817825,1550.117836,1550.817868,1551.11788,1551.817879,1551.817879,1552.134591,right,0,70,-30,40,0,1556.834777,1556.834777,1556.834777,None,None,1,1,0.1408129,,,,,,,None,,,,,,,,,,,,10,P1,1,2024-09-24_14h11.02.902,uWM_experiment,2022.2.3,60.00092401
,,,,,,,,,,,,,,,,,,,,2,0,2,0,1,0,1,0,,,,,,,,,,,,,,,,,,,,,,,,,,,,,,,,,,,,,,,,,,,,,,,,,,,,,,,,,,,,,,,,,,,,,,0,,,,,,,,,,,,,,,,,,,,,,,,,,,,right,1,130,30,160,0,1562.384991,1562.384991,1562.384991,None,None,1,1,0.1425899,,,,,,,,,,,,,,,,,,,10,P1,1,2024-09-24_14h11.02.902,uWM_experiment,2022.2.3,60.00092401
,,,,,,,,,,,,,,,,,,,,2,0,2,0,2,0,2,0,,,,,,,,,,,,,,,,,,,,,,,,,,,,,,,,,,,,,,,,,,,,,,,,,,,,,,,,,,,,,,,,,,,,,,0.251560063,,,,,,,,,,,,,,,,,,,,,,,,,,,,right,1,70,30,100,1,1568.368571,1568.368571,1568.368571,None,None,1,1,0.1989839,,,,,,,,,,,,,,,,,,,10,P1,1,2024-09-24_14h11.02.902,uWM_experiment,2022.2.3,60.00092401
,,,,,,,,,,,,,,,,,,,,2,0,2,0,3,0,3,0,,,,,,,,,,,,,,,,,,,,,,,,,,,,,,,,,,,,,,,,,,,,,,,,,,,,,,,,,,,,,,,,,,,,,,0,,,,,,,,,,,,,,,,,,,,,,,,,,,,right,0,40,-30,10,0,1574.218773,1574.218773,1574.218773,None,None,1,1,0.188735,,,,,,,,,,,,,,,,,,,10,P1,1,2024-09-24_14h11.02.902,uWM_experiment,2022.2.3,60.00092401
,,,,,,,,,,,,,,,,,,,,2,0,2,0,4,0,4,0,,,,,,,,,,,,,,,,,,,,,,,,,,,,,,,,,,,,,,,,,,,,,,,,,,,,,,,,,,,,,,,,,,,,,,0,,,,,,,,,,,,,,,,,,,,,,,,,,,,right,0,70,-30,40,0,1579.652302,1579.652302,1579.652302,None,None,1,1,0.1793506,,,,,,,,,,,,,,,,,,,10,P1,1,2024-09-24_14h11.02.902,uWM_experiment,2022.2.3,60.00092401
,,,,,,,,,,,,,,,,,,,,2,0,2,0,5,0,5,0,,,,,,,,,,,,,,,,,,,,,,,,,,,,,,,,,,,,,,,,,,,,,,,,,,,,,,,,,,,,,,,,,,,,,,0.261560063,,,,,,,,,,,,,,,,,,,,,,,,,,,,right,1,130,30,160,1,1585.485884,1585.485884,1585.485884,None,None,1,1,0.1695611,,,,,,,,,,,,,,,,,,,10,P1,1,2024-09-24_14h11.02.902,uWM_experiment,2022.2.3,60.00092401
,,,,,,,,,,,,,,,,,,,,2,0,2,0,6,0,6,0,,,,,,,,,,,,,,,,,,,,,,,,,,,,,,,,,,,,,,,,,,,,,,,,,,,,,,,,,,,,,,,,,,,,,,0.271560063,,,,,,,,,,,,,,,,,,,,,,,,,,,,left,0,160,30,190,1,1592.769503,1592.769503,1592.769503,None,None,1,1,0.1419933,,,,,,,,,,,,,,,,,,,10,P1,1,2024-09-24_14h11.02.902,uWM_experiment,2022.2.3,60.00092401
,,,,,,,,,,,,,,,,,,,,2,0,2,0,7,0,7,0,,,,,,,,,,,,,,,,,,,,,,,,,,,,,,,,,,,,,,,,,,,,,,,,,,,,,,,,,,,,,,,,,,,,,,0,,,,,,,,,,,,,,,,,,,,,,,,,,,,left,0,40,30,70,0,1600.036489,1600.036489,1600.036489,None,None,1,1,0.0670869,,,,,,,,,,,,,,,,,,,10,P1,1,2024-09-24_14h11.02.902,uWM_experiment,2022.2.3,60.00092401
,,,,,,,,,,,,,,,,,,,,2,0,2,0,8,0,8,0,,,,,,,,,,,,,,,,,,,,,,,,,,,,,,,,,,,,,,,,,,,,,,,,,,,,,,,,,,,,,,,,,,,,,,0.281560063,,,,,,,,,,,,,,,,,,,,,,,,,,,,right,1,160,30,190,1,1608.236781,1608.236781,1608.236781,None,None,1,1,0.1544889,,,,,,,,,,,,,,,,,,,10,P1,1,2024-09-24_14h11.02.902,uWM_experiment,2022.2.3,60.00092401
,,,,,,,,,,,,,,,,,,,,2,0,2,0,9,0,9,0,,,,,,,,,,,,,,,,,,,,,,,,,,,,,,,,,,,,,,,,,,,,,,,,,,,,,,,,,,,,,,,,,,,,,,0.291560063,,,,,,,,,,,,,,,,,,,,,,,,,,,,right,0,160,-30,130,1,1615.187068,1615.187068,1615.187068,None,None,1,1,0.4523013,,,,,,,,,,,,,,,,,,,10,P1,1,2024-09-24_14h11.02.902,uWM_experiment,2022.2.3,60.00092401
,,,,,,,,,,,,,,,,,,,,2,0,2,0,10,0,10,0,,,,,,,,,,,,,,,,,,,,,,,,,,,,,,,,,,,,,,,,,,,,,,,,,,,,,,,,,,,,,,,,,,,,,,0.301560063,,,,,,,,,,,,,,,,,,,,,,,,,,,,right,0,130,-30,100,1,1622.504026,1622.504026,1622.504026,None,None,1,1,0.2154066,,,,,,,,,,,,,,,,,,,10,P1,1,2024-09-24_14h11.02.902,uWM_experiment,2022.2.3,60.00092401
,,,,,,,,,,,,,,,,,,,,2,0,2,0,11,0,11,0,,,,,,,,,,,,,,,,,,,,,,,,,,,,,,,,,,,,,,,,,,,,,,,,,,,,,,,,,,,,,,,,,,,,,,0,,,,,,,,,,,,,,,,,,,,,,,,,,,,right,1,100,30,130,0,1628.587565,1628.587565,1628.587565,None,None,1,1,0.1958597,,,,,,,,,,,,,,,,,,,10,P1,1,2024-09-24_14h11.02.902,uWM_experiment,2022.2.3,60.00092401
,,,,,,,,,,,,,,,,,,,,2,0,2,0,12,0,12,0,,,,,,,,,,,,,,,,,,,,,,,,,,,,,,,,,,,,,,,,,,,,,,,,,,,,,,,,,,,,,,,,,,,,,,0.311560063,,,,,,,,,,,,,,,,,,,,,,,,,,,,right,1,160,30,190,1,1634.471139,1634.471139,1634.471139,None,None,1,1,0.160161,,,,,,,,,,,,,,,,,,,10,P1,1,2024-09-24_14h11.02.902,uWM_experiment,2022.2.3,60.00092401
,,,,,,,,,,,,,,,,,,,,2,0,2,0,13,0,13,0,,,,,,,,,,,,,,,,,,,,,,,,,,,,,,,,,,,,,,,,,,,,,,,,,,,,,,,,,,,,,,,,,,,,,,0.1,,,,,,,,,,,,,,,,,,,,,,,,,,,,left,1,100,-30,70,2,1641.171395,1641.171395,1641.171395,None,None,1,1,0.2518132,,,,,,,,,,,,,,,,,,,10,P1,1,2024-09-24_14h11.02.902,uWM_experiment,2022.2.3,60.00092401
,,,,,,,,,,,,,,,,,,,,2,0,2,0,14,0,14,0,,,,,,,,,,,,,,,,,,,,,,,,,,,,,,,,,,,,,,,,,,,,,,,,,,,,,,,,,,,,,,,,,,,,,,0,,,,,,,,,,,,,,,,,,,,,,,,,,,,left,1,160,-30,130,0,1647.404976,1647.404976,1647.404976,None,None,1,1,0.2662686,,,,,,,,,,,,,,,,,,,10,P1,1,2024-09-24_14h11.02.902,uWM_experiment,2022.2.3,60.00092401
,,,,,,,,,,,,,,,,,,,,2,0,2,0,15,0,15,0,,,,,,,,,,,,,,,,,,,,,,,,,,,,,,,,,,,,,,,,,,,,,,,,,,,,,,,,,,,,,,,,,,,,,,0.321560063,,,,,,,,,,,,,,,,,,,,,,,,,,,,right,1,130,30,160,1,1653.321891,1653.321891,1653.321891,None,None,1,1,0.2211621,,,,,,,,,,,,,,,,,,,10,P1,1,2024-09-24_14h11.02.902,uWM_experiment,2022.2.3,60.00092401
,,,,,,,,,,,,,,,,,,,,2,0,2,0,16,0,16,0,,,,,,,,,,,,,,,,,,,,,,,,,,,,,,,,,,,,,,,,,,,,,,,,,,,,,,,,,,,,,,,,,,,,,,0,,,,,,,,,,,,,,,,,,,,,,,,,,,,right,1,10,30,40,0,1659.138742,1659.138742,1659.138742,None,None,1,1,0.1004333,,,,,,,,,,,,,,,,,,,10,P1,1,2024-09-24_14h11.02.902,uWM_experiment,2022.2.3,60.00092401
,,,,,,,,,,,,,,,,,,,,2,0,2,0,17,0,17,0,,,,,,,,,,,,,,,,,,,,,,,,,,,,,,,,,,,,,,,,,,,,,,,,,,,,,,,,,,,,,,,,,,,,,,0.331560063,,,,,,,,,,,,,,,,,,,,,,,,,,,,right,1,70,30,100,1,1666.389059,1666.389059,1666.389059,None,None,1,1,0.1061771,,,,,,,,,,,,,,,,,,,10,P1,1,2024-09-24_14h11.02.902,uWM_experiment,2022.2.3,60.00092401
,,,,,,,,,,,,,,,,,,,,2,0,2,0,18,0,18,0,,,,,,,,,,,,,,,,,,,,,,,,,,,,,,,,,,,,,,,,,,,,,,,,,,,,,,,,,,,,,,,,,,,,,,0,,,,,,,,,,,,,,,,,,,,,,,,,,,,right,0,10,-30,-20,0,1672.089273,1672.089273,1672.089273,None,None,1,1,0.05368,,,,,,,,,,,,,,,,,,,10,P1,1,2024-09-24_14h11.02.902,uWM_experiment,2022.2.3,60.00092401
,,,,,,,,,,,,,,,,,,,,2,0,2,0,19,0,19,0,,,,,,,,,,,,,,,,,,,,,,,,,,,,,,,,,,,,,,,,,,,,,,,,,,,,,,,,,,,,,,,,,,,,,,0.341560063,,,,,,,,,,,,,,,,,,,,,,,,,,,,right,1,10,30,40,1,1678.972875,1678.972875,1678.972875,None,None,2,0,0.2421256,,,,,,,,,,,,,,,,,,,10,P1,1,2024-09-24_14h11.02.902,uWM_experiment,2022.2.3,60.00092401
,,,,,,,,,,,,,,,,,,,,2,0,2,0,20,0,20,0,,,,,,,,,,,,,,,,,,,,,,,,,,,,,,,,,,,,,,,,,,,,,,,,,,,,,,,,,,,,,,,,,,,,,,0.331560063,,,,,,,,,,,,,,,,,,,,,,,,,,,,right,1,10,30,40,1,1685.439794,1685.439794,1685.439794,None,None,2,0,0.1193232,,,,,,,,,,,,,,,,,,,10,P1,1,2024-09-24_14h11.02.902,uWM_experiment,2022.2.3,60.00092401
,,,,,,,,,,,,,,,,,,,,2,0,2,0,21,0,21,0,,,,,,,,,,,,,,,,,,,,,,,,,,,,,,,,,,,,,,,,,,,,,,,,,,,,,,,,,,,,,,,,,,,,,,0.321560063,,,,,,,,,,,,,,,,,,,,,,,,,,,,right,1,130,30,160,1,1691.456693,1691.456693,1691.456693,None,None,2,0,0.0942535,,,,,,,,,,,,,,,,,,,10,P1,1,2024-09-24_14h11.02.902,uWM_experiment,2022.2.3,60.00092401
,,,,,,,,,,,,,,,,,,,,2,0,2,0,22,0,22,0,,,,,,,,,,,,,,,,,,,,,,,,,,,,,,,,,,,,,,,,,,,,,,,,,,,,,,,,,,,,,,,,,,,,,,0.311560063,,,,,,,,,,,,,,,,,,,,,,,,,,,,right,1,10,30,40,1,1697.606954,1697.606954,1697.606954,None,None,2,0,0.0801395,,,,,,,,,,,,,,,,,,,10,P1,1,2024-09-24_14h11.02.902,uWM_experiment,2022.2.3,60.00092401
,,,,,,,,,,,,,,,,,,,,2,0,2,0,23,0,23,0,,,,,,,,,,,,,,,,,,,,,,,,,,,,,,,,,,,,,,,,,,,,,,,,,,,,,,,,,,,,,,,,,,,,,,0,,,,,,,,,,,,,,,,,,,,,,,,,,,,left,0,100,30,130,0,1703.390479,1703.390479,1703.390479,None,None,1,1,0.0804731,,,,,,,,,,,,,,,,,,,10,P1,1,2024-09-24_14h11.02.902,uWM_experiment,2022.2.3,60.00092401
,,,,,,,,,,,,,,,,,,,,2,0,2,0,,,,,0,0,0,0,,,,,,,,,,,,,,,,,,,,,,,,,,,,,,,,,,,,,,,,,,,,,,,,,,,,,,,,,,,,,,,,,,,,,,,,,,,,,,,,,,,,,,,,,,,,,,,,,,,,,,,,,,,,1703.490479,1703.490479,space,4.2285479,space,None,,1707.74067,1707.74067,21.6981829,,,,,,,,,10,P1,1,2024-09-24_14h11.02.902,uWM_experiment,2022.2.3,60.00092401
,,,,,,,,,,,,,,,,,,,,2,0,2,0,,,,,1,0,1,0,,,,,,,,,,,,,,,,,,,,,,,,,,,,,,,,,,,,,,,,,,,,,,,,,,,,,,,,,,,,,,,,,,,,,,,,,,,,,,,,,,,,,,,,,,,,,,,,,,,,,,,,,,,,,,,,,,,,,,,,,,,,,,10,P1,1,2024-09-24_14h11.02.902,uWM_experiment,2022.2.3,60.00092401
,,,,,,,,,,,,,,,,,,,,2,0,2,0,,,,,2,0,2,0,,,,,,,,,,,,,,,,,,,,,,,,,,,,,,,,,,,,,,,,,,,,,,,,,,,,,,,,,,,,,,,,,,,,,,,,,,,,,,,,,,,,,,,,,,,,,,,,,,,,,,,,,,,,,,,,,,,,,,,,,,,,,,10,P1,1,2024-09-24_14h11.02.902,uWM_experiment,2022.2.3,60.00092401
,,,,,,,,,,,,,,,,,,,,3,0,3,0,0,0,0,0,,,,,,,,,,,,,,,,,,,,,,,,,,,,,,,,,,,,,,,,,,,,,,,,,,,,,,,,,,,,,,,,,,,,,,0.301560063,,,,,,,,,,,,,,,,,,,,1729.45817,1730.158184,1730.458214,1731.158229,1731.458253,1732.158289,1732.158289,1732.474968,right,1,70,30,100,1,1739.241906,1739.241906,1739.241906,None,None,1,1,1.3409554,,,,,,,None,,,,,,,,,,,,10,P1,1,2024-09-24_14h11.02.902,uWM_experiment,2022.2.3,60.00092401
,,,,,,,,,,,,,,,,,,,,3,0,3,0,1,0,1,0,,,,,,,,,,,,,,,,,,,,,,,,,,,,,,,,,,,,,,,,,,,,,,,,,,,,,,,,,,,,,,,,,,,,,,0.311560063,,,,,,,,,,,,,,,,,,,,,,,,,,,,left,1,10,-30,-20,1,1746.72553,1746.72553,1746.72553,None,None,1,1,0.2811777,,,,,,,,,,,,,,,,,,,10,P1,1,2024-09-24_14h11.02.902,uWM_experiment,2022.2.3,60.00092401
,,,,,,,,,,,,,,,,,,,,3,0,3,0,2,0,2,0,,,,,,,,,,,,,,,,,,,,,,,,,,,,,,,,,,,,,,,,,,,,,,,,,,,,,,,,,,,,,,,,,,,,,,0.321560063,,,,,,,,,,,,,,,,,,,,,,,,,,,,right,1,40,30,70,1,1753.259115,1753.259115,1753.259115,None,None,2,0,0.1635313,,,,,,,,,,,,,,,,,,,10,P1,1,2024-09-24_14h11.02.902,uWM_experiment,2022.2.3,60.00092401
,,,,,,,,,,,,,,,,,,,,3,0,3,0,3,0,3,0,,,,,,,,,,,,,,,,,,,,,,,,,,,,,,,,,,,,,,,,,,,,,,,,,,,,,,,,,,,,,,,,,,,,,,0.311560063,,,,,,,,,,,,,,,,,,,,,,,,,,,,left,1,70,-30,40,1,1759.509354,1759.509354,1759.509354,None,None,2,0,0.0894559,,,,,,,,,,,,,,,,,,,10,P1,1,2024-09-24_14h11.02.902,uWM_experiment,2022.2.3,60.00092401
,,,,,,,,,,,,,,,,,,,,3,0,3,0,4,0,4,0,,,,,,,,,,,,,,,,,,,,,,,,,,,,,,,,,,,,,,,,,,,,,,,,,,,,,,,,,,,,,,,,,,,,,,0,,,,,,,,,,,,,,,,,,,,,,,,,,,,left,1,160,-30,130,0,1765.326256,1765.326256,1765.326256,None,None,1,1,0.0483514,,,,,,,,,,,,,,,,,,,10,P1,1,2024-09-24_14h11.02.902,uWM_experiment,2022.2.3,60.00092401
,,,,,,,,,,,,,,,,,,,,3,0,3,0,5,0,5,0,,,,,,,,,,,,,,,,,,,,,,,,,,,,,,,,,,,,,,,,,,,,,,,,,,,,,,,,,,,,,,,,,,,,,,0.301560063,,,,,,,,,,,,,,,,,,,,,,,,,,,,left,1,100,-30,70,1,1771.643174,1771.643174,1771.643174,None,None,1,1,0.2032917,,,,,,,,,,,,,,,,,,,10,P1,1,2024-09-24_14h11.02.902,uWM_experiment,2022.2.3,60.00092401
,,,,,,,,,,,,,,,,,,,,3,0,3,0,6,0,6,0,,,,,,,,,,,,,,,,,,,,,,,,,,,,,,,,,,,,,,,,,,,,,,,,,,,,,,,,,,,,,,,,,,,,,,0,,,,,,,,,,,,,,,,,,,,,,,,,,,,right,0,40,-30,10,0,1782.343569,1782.343569,1782.343569,None,None,1,1,0.0789665,,,,,,,,,,,,,,,,,,,10,P1,1,2024-09-24_14h11.02.902,uWM_experiment,2022.2.3,60.00092401
,,,,,,,,,,,,,,,,,,,,3,0,3,0,7,0,7,0,,,,,,,,,,,,,,,,,,,,,,,,,,,,,,,,,,,,,,,,,,,,,,,,,,,,,,,,,,,,,,,,,,,,,,0,,,,,,,,,,,,,,,,,,,,,,,,,,,,left,1,40,-30,10,0,1790.193884,1790.193884,1790.193884,None,None,1,1,0.0926496,,,,,,,,,,,,,,,,,,,10,P1,1,2024-09-24_14h11.02.902,uWM_experiment,2022.2.3,60.00092401
,,,,,,,,,,,,,,,,,,,,3,0,3,0,8,0,8,0,,,,,,,,,,,,,,,,,,,,,,,,,,,,,,,,,,,,,,,,,,,,,,,,,,,,,,,,,,,,,,,,,,,,,,0,,,,,,,,,,,,,,,,,,,,,,,,,,,,left,0,100,30,130,0,1796.44414,1796.44414,1796.44414,None,None,1,1,0.106475,,,,,,,,,,,,,,,,,,,10,P1,1,2024-09-24_14h11.02.902,uWM_experiment,2022.2.3,60.00092401
,,,,,,,,,,,,,,,,,,,,3,0,3,0,9,0,9,0,,,,,,,,,,,,,,,,,,,,,,,,,,,,,,,,,,,,,,,,,,,,,,,,,,,,,,,,,,,,,,,,,,,,,,0,,,,,,,,,,,,,,,,,,,,,,,,,,,,left,1,100,-30,70,0,1802.511033,1802.511033,1802.511033,None,None,1,1,0.0955057,,,,,,,,,,,,,,,,,,,10,P1,1,2024-09-24_14h11.02.902,uWM_experiment,2022.2.3,60.00092401
,,,,,,,,,,,,,,,,,,,,3,0,3,0,10,0,10,0,,,,,,,,,,,,,,,,,,,,,,,,,,,,,,,,,,,,,,,,,,,,,,,,,,,,,,,,,,,,,,,,,,,,,,0.311560063,,,,,,,,,,,,,,,,,,,,,,,,,,,,right,0,160,-30,130,1,1809.411322,1809.411322,1809.411322,None,None,2,0,0.0271363,,,,,,,,,,,,,,,,,,,10,P1,1,2024-09-24_14h11.02.902,uWM_experiment,2022.2.3,60.00092401
,,,,,,,,,,,,,,,,,,,,3,0,3,0,11,0,11,0,,,,,,,,,,,,,,,,,,,,,,,,,,,,,,,,,,,,,,,,,,,,,,,,,,,,,,,,,,,,,,,,,,,,,,0.301560063,,,,,,,,,,,,,,,,,,,,,,,,,,,,left,1,40,-30,10,1,1815.428195,1815.428195,1815.428195,None,None,1,1,0.1140768,,,,,,,,,,,,,,,,,,,10,P1,1,2024-09-24_14h11.02.902,uWM_experiment,2022.2.3,60.00092401
,,,,,,,,,,,,,,,,,,,,3,0,3,0,12,0,12,0,,,,,,,,,,,,,,,,,,,,,,,,,,,,,,,,,,,,,,,,,,,,,,,,,,,,,,,,,,,,,,,,,,,,,,0.311560063,,,,,,,,,,,,,,,,,,,,,,,,,,,,left,1,40,-30,10,1,1821.345096,1821.345096,1821.345096,None,None,2,0,0.0773798,,,,,,,,,,,,,,,,,,,10,P1,1,2024-09-24_14h11.02.902,uWM_experiment,2022.2.3,60.00092401
,,,,,,,,,,,,,,,,,,,,3,0,3,0,13,0,13,0,,,,,,,,,,,,,,,,,,,,,,,,,,,,,,,,,,,,,,,,,,,,,,,,,,,,,,,,,,,,,,,,,,,,,,0.301560063,,,,,,,,,,,,,,,,,,,,,,,,,,,,left,1,160,-30,130,1,1828.195362,1828.195362,1828.195362,None,None,2,0,0.1230742,,,,,,,,,,,,,,,,,,,10,P1,1,2024-09-24_14h11.02.902,uWM_experiment,2022.2.3,60.00092401
,,,,,,,,,,,,,,,,,,,,3,0,3,0,14,0,14,0,,,,,,,,,,,,,,,,,,,,,,,,,,,,,,,,,,,,,,,,,,,,,,,,,,,,,,,,,,,,,,,,,,,,,,0,,,,,,,,,,,,,,,,,,,,,,,,,,,,left,1,10,-30,-20,0,1833.578959,1833.578959,1833.578959,None,None,1,1,0.0832356,,,,,,,,,,,,,,,,,,,10,P1,1,2024-09-24_14h11.02.902,uWM_experiment,2022.2.3,60.00092401
,,,,,,,,,,,,,,,,,,,,3,0,3,0,15,0,15,0,,,,,,,,,,,,,,,,,,,,,,,,,,,,,,,,,,,,,,,,,,,,,,,,,,,,,,,,,,,,,,,,,,,,,,0.291560063,,,,,,,,,,,,,,,,,,,,,,,,,,,,right,1,10,30,40,1,1839.762499,1839.762499,1839.762499,None,None,2,0,0.4036736,,,,,,,,,,,,,,,,,,,10,P1,1,2024-09-24_14h11.02.902,uWM_experiment,2022.2.3,60.00092401
,,,,,,,,,,,,,,,,,,,,3,0,3,0,16,0,16,0,,,,,,,,,,,,,,,,,,,,,,,,,,,,,,,,,,,,,,,,,,,,,,,,,,,,,,,,,,,,,,,,,,,,,,0.281560063,,,,,,,,,,,,,,,,,,,,,,,,,,,,right,1,100,30,130,1,1847.279459,1847.279459,1847.279459,None,None,1,1,0.6788579,,,,,,,,,,,,,,,,,,,10,P1,1,2024-09-24_14h11.02.902,uWM_experiment,2022.2.3,60.00092401
,,,,,,,,,,,,,,,,,,,,3,0,3,0,17,0,17,0,,,,,,,,,,,,,,,,,,,,,,,,,,,,,,,,,,,,,,,,,,,,,,,,,,,,,,,,,,,,,,,,,,,,,,0,,,,,,,,,,,,,,,,,,,,,,,,,,,,left,0,40,30,70,0,1854.346405,1854.346405,1854.346405,None,None,1,1,0.2036414,,,,,,,,,,,,,,,,,,,10,P1,1,2024-09-24_14h11.02.902,uWM_experiment,2022.2.3,60.00092401
,,,,,,,,,,,,,,,,,,,,3,0,3,0,18,0,18,0,,,,,,,,,,,,,,,,,,,,,,,,,,,,,,,,,,,,,,,,,,,,,,,,,,,,,,,,,,,,,,,,,,,,,,0.291560063,,,,,,,,,,,,,,,,,,,,,,,,,,,,right,1,70,30,100,1,1861.396701,1861.396701,1861.396701,None,None,2,0,0.2494074,,,,,,,,,,,,,,,,,,,10,P1,1,2024-09-24_14h11.02.902,uWM_experiment,2022.2.3,60.00092401
,,,,,,,,,,,,,,,,,,,,3,0,3,0,19,0,19,0,,,,,,,,,,,,,,,,,,,,,,,,,,,,,,,,,,,,,,,,,,,,,,,,,,,,,,,,,,,,,,,,,,,,,,0.1,,,,,,,,,,,,,,,,,,,,,,,,,,,,left,1,40,-30,10,2,1868.046934,1868.046934,1868.046934,None,None,4,0,0.2871194,,,,,,,,,,,,,,,,,,,10,P1,1,2024-09-24_14h11.02.902,uWM_experiment,2022.2.3,60.00092401
,,,,,,,,,,,,,,,,,,,,3,0,3,0,20,0,20,0,,,,,,,,,,,,,,,,,,,,,,,,,,,,,,,,,,,,,,,,,,,,,,,,,,,,,,,,,,,,,,,,,,,,,,0.281560063,,,,,,,,,,,,,,,,,,,,,,,,,,,,right,1,130,30,160,1,1874.330496,1874.330496,1874.330496,None,None,3,0,2.4276161,,,,,,,,,,,,,,,,,,,10,P1,1,2024-09-24_14h11.02.902,uWM_experiment,2022.2.3,60.00092401
,,,,,,,,,,,,,,,,,,,,3,0,3,0,21,0,21,0,,,,,,,,,,,,,,,,,,,,,,,,,,,,,,,,,,,,,,,,,,,,,,,,,,,,,,,,,,,,,,,,,,,,,,0.1,,,,,,,,,,,,,,,,,,,,,,,,,,,,right,1,130,30,160,2,1882.880839,1882.880839,1882.880839,None,None,4,0,0.8051263,,,,,,,,,,,,,,,,,,,10,P1,1,2024-09-24_14h11.02.902,uWM_experiment,2022.2.3,60.00092401
,,,,,,,,,,,,,,,,,,,,3,0,3,0,22,0,22,0,,,,,,,,,,,,,,,,,,,,,,,,,,,,,,,,,,,,,,,,,,,,,,,,,,,,,,,,,,,,,,,,,,,,,,0.271560063,,,,,,,,,,,,,,,,,,,,,,,,,,,,left,1,40,-30,10,1,1889.481103,1889.481103,1889.481103,None,None,4,0,0.4527612,,,,,,,,,,,,,,,,,,,10,P1,1,2024-09-24_14h11.02.902,uWM_experiment,2022.2.3,60.00092401
,,,,,,,,,,,,,,,,,,,,3,0,3,0,23,0,23,0,,,,,,,,,,,,,,,,,,,,,,,,,,,,,,,,,,,,,,,,,,,,,,,,,,,,,,,,,,,,,,,,,,,,,,0.261560063,,,,,,,,,,,,,,,,,,,,,,,,,,,,left,1,100,-30,70,1,1896.248038,1896.248038,1896.248038,None,None,3,0,0.5338748,,,,,,,,,,,,,,,,,,,10,P1,1,2024-09-24_14h11.02.902,uWM_experiment,2022.2.3,60.00092401
,,,,,,,,,,,,,,,,,,,,3,0,3,0,,,,,0,0,0,0,,,,,,,,,,,,,,,,,,,,,,,,,,,,,,,,,,,,,,,,,,,,,,,,,,,,,,,,,,,,,,,,,,,,,,,,,,,,,,,,,,,,,,,,,,,,,,,,,,,,,,,,,,,,1896.814694,1896.814694,space,3.4633523,None,None,,,,,,,,,,,,,10,P1,1,2024-09-24_14h11.02.902,uWM_experiment,2022.2.3,60.00092401
,,,,,,,,,,,,,,,,,,,,3,0,3,0,,,,,1,0,1,0,,,,,,,,,,,,,,,,,,,,,,,,,,,,,,,,,,,,,,,,,,,,,,,,,,,,,,,,,,,,,,,,,,,,,,,,,,,,,,,,,,,,,,,,,,,,,,,,,,,,,,,,,,,,,,,,,,,,,,,,,,,,,,10,P1,1,2024-09-24_14h11.02.902,uWM_experiment,2022.2.3,60.00092401
,,,,,,,,,,,,,,,,,,,,3,0,3,0,,,,,2,0,2,0,,,,,,,,,,,,,,,,,,,,,,,,,,,,,,,,,,,,,,,,,,,,,,,,,,,,,,,,,,,,,,,,,,,,,,,,,,,,,,,,,,,,,,,,,,,,,,,,,,,,,,,,,,,,,,,,,,,,,,,,,,,,,,10,P1,1,2024-09-24_14h11.02.902,uWM_experiment,2022.2.3,60.00092401
,,,,,,,,,,,,,,,,,,,,4,0,4,0,0,0,0,0,,,,,,,,,,,,,,,,,,,,,,,,,,,,,,,,,,,,,,,,,,,,,,,,,,,,,,,,,,,,,,,,,,,,,,0,,,,,,,,,,,,,,,,,,,,1900.298219,1900.998185,1901.298214,1901.998229,1902.298254,1902.99828,1902.99828,1903.314965,left,1,10,-30,-20,0,1910.048582,1910.048582,1910.048582,None,None,1,1,0.4211713,,,,,,,None,,,,,,,,,,,,10,P1,1,2024-09-24_14h11.02.902,uWM_experiment,2022.2.3,60.00092401
,,,,,,,,,,,,,,,,,,,,4,0,4,0,1,0,1,0,,,,,,,,,,,,,,,,,,,,,,,,,,,,,,,,,,,,,,,,,,,,,,,,,,,,,,,,,,,,,,,,,,,,,,0,,,,,,,,,,,,,,,,,,,,,,,,,,,,left,0,100,30,130,0,1919.098904,1919.098904,1919.098904,None,None,1,1,0.2028308,,,,,,,,,,,,,,,,,,,10,P1,1,2024-09-24_14h11.02.902,uWM_experiment,2022.2.3,60.00092401
,,,,,,,,,,,,,,,,,,,,4,0,4,0,2,0,2,0,,,,,,,,,,,,,,,,,,,,,,,,,,,,,,,,,,,,,,,,,,,,,,,,,,,,,,,,,,,,,,,,,,,,,,0.251560063,,,,,,,,,,,,,,,,,,,,,,,,,,,,left,1,40,-30,10,1,1925.29916,1925.29916,1925.29916,None,None,1,1,0.1627358,,,,,,,,,,,,,,,,,,,10,P1,1,2024-09-24_14h11.02.902,uWM_experiment,2022.2.3,60.00092401
,,,,,,,,,,,,,,,,,,,,4,0,4,0,3,0,3,0,,,,,,,,,,,,,,,,,,,,,,,,,,,,,,,,,,,,,,,,,,,,,,,,,,,,,,,,,,,,,,,,,,,,,,0.261560063,,,,,,,,,,,,,,,,,,,,,,,,,,,,right,1,70,30,100,1,1932.399443,1932.399443,1932.399443,None,None,1,1,0.9743097,,,,,,,,,,,,,,,,,,,10,P1,1,2024-09-24_14h11.02.902,uWM_experiment,2022.2.3,60.00092401
,,,,,,,,,,,,,,,,,,,,4,0,4,0,4,0,4,0,,,,,,,,,,,,,,,,,,,,,,,,,,,,,,,,,,,,,,,,,,,,,,,,,,,,,,,,,,,,,,,,,,,,,,0,,,,,,,,,,,,,,,,,,,,,,,,,,,,left,1,40,-30,10,0,1941.149776,1941.149776,1941.149776,None,None,1,1,0.6960644,,,,,,,,,,,,,,,,,,,10,P1,1,2024-09-24_14h11.02.902,uWM_experiment,2022.2.3,60.00092401
,,,,,,,,,,,,,,,,,,,,4,0,4,0,5,0,5,0,,,,,,,,,,,,,,,,,,,,,,,,,,,,,,,,,,,,,,,,,,,,,,,,,,,,,,,,,,,,,,,,,,,,,,0.271560063,,,,,,,,,,,,,,,,,,,,,,,,,,,,right,0,160,-30,130,1,1950.083451,1950.083451,1950.083451,None,None,2,0,1.5142236,,,,,,,,,,,,,,,,,,,10,P1,1,2024-09-24_14h11.02.902,uWM_experiment,2022.2.3,60.00092401
,,,,,,,,,,,,,,,,,,,,4,0,4,0,6,0,6,0,,,,,,,,,,,,,,,,,,,,,,,,,,,,,,,,,,,,,,,,,,,,,,,,,,,,,,,,,,,,,,,,,,,,,,0.261560063,,,,,,,,,,,,,,,,,,,,,,,,,,,,left,1,10,-30,-20,1,1957.433776,1957.433776,1957.433776,None,None,3,0,2.1079579,,,,,,,,,,,,,,,,,,,10,P1,1,2024-09-24_14h11.02.902,uWM_experiment,2022.2.3,60.00092401
,,,,,,,,,,,,,,,,,,,,4,0,4,0,7,0,7,0,,,,,,,,,,,,,,,,,,,,,,,,,,,,,,,,,,,,,,,,,,,,,,,,,,,,,,,,,,,,,,,,,,,,,,0,,,,,,,,,,,,,,,,,,,,,,,,,,,,right,0,160,-30,130,0,1966.384115,1966.384115,1966.384115,None,None,1,1,0.2935625,,,,,,,,,,,,,,,,,,,10,P1,1,2024-09-24_14h11.02.902,uWM_experiment,2022.2.3,60.00092401
,,,,,,,,,,,,,,,,,,,,4,0,4,0,8,0,8,0,,,,,,,,,,,,,,,,,,,,,,,,,,,,,,,,,,,,,,,,,,,,,,,,,,,,,,,,,,,,,,,,,,,,,,0.251560063,,,,,,,,,,,,,,,,,,,,,,,,,,,,right,1,70,30,100,1,1974.051067,1974.051067,1974.051067,None,None,1,1,0.8265666,,,,,,,,,,,,,,,,,,,10,P1,1,2024-09-24_14h11.02.902,uWM_experiment,2022.2.3,60.00092401
,,,,,,,,,,,,,,,,,,,,4,0,4,0,9,0,9,0,,,,,,,,,,,,,,,,,,,,,,,,,,,,,,,,,,,,,,,,,,,,,,,,,,,,,,,,,,,,,,,,,,,,,,0.261560063,,,,,,,,,,,,,,,,,,,,,,,,,,,,right,1,70,30,100,1,1981.851373,1981.851373,1981.851373,None,None,2,0,0.4100915,,,,,,,,,,,,,,,,,,,10,P1,1,2024-09-24_14h11.02.902,uWM_experiment,2022.2.3,60.00092401
,,,,,,,,,,,,,,,,,,,,4,0,4,0,10,0,10,0,,,,,,,,,,,,,,,,,,,,,,,,,,,,,,,,,,,,,,,,,,,,,,,,,,,,,,,,,,,,,,,,,,,,,,0.251560063,,,,,,,,,,,,,,,,,,,,,,,,,,,,left,1,100,-30,70,1,1988.551641,1988.551641,1988.551641,None,None,1,1,0.4138546,,,,,,,,,,,,,,,,,,,10,P1,1,2024-09-24_14h11.02.902,uWM_experiment,2022.2.3,60.00092401
,,,,,,,,,,,,,,,,,,,,4,0,4,0,11,0,11,0,,,,,,,,,,,,,,,,,,,,,,,,,,,,,,,,,,,,,,,,,,,,,,,,,,,,,,,,,,,,,,,,,,,,,,0.261560063,,,,,,,,,,,,,,,,,,,,,,,,,,,,right,1,70,30,100,1,1995.368572,1995.368572,1995.368572,None,None,2,0,0.7329806,,,,,,,,,,,,,,,,,,,10,P1,1,2024-09-24_14h11.02.902,uWM_experiment,2022.2.3,60.00092401
,,,,,,,,,,,,,,,,,,,,4,0,4,0,12,0,12,0,,,,,,,,,,,,,,,,,,,,,,,,,,,,,,,,,,,,,,,,,,,,,,,,,,,,,,,,,,,,,,,,,,,,,,0.251560063,,,,,,,,,,,,,,,,,,,,,,,,,,,,right,0,130,-30,100,1,2003.768876,2003.768876,2003.768876,None,None,2,0,0.5486457,,,,,,,,,,,,,,,,,,,10,P1,1,2024-09-24_14h11.02.902,uWM_experiment,2022.2.3,60.00092401
,,,,,,,,,,,,,,,,,,,,4,0,4,0,13,0,13,0,,,,,,,,,,,,,,,,,,,,,,,,,,,,,,,,,,,,,,,,,,,,,,,,,,,,,,,,,,,,,,,,,,,,,,0.241560063,,,,,,,,,,,,,,,,,,,,,,,,,,,,right,1,10,30,40,1,2010.135816,2010.135816,2010.135816,None,None,2,0,0.413538,,,,,,,,,,,,,,,,,,,10,P1,1,2024-09-24_14h11.02.902,uWM_experiment,2022.2.3,60.00092401
,,,,,,,,,,,,,,,,,,,,4,0,4,0,14,0,14,0,,,,,,,,,,,,,,,,,,,,,,,,,,,,,,,,,,,,,,,,,,,,,,,,,,,,,,,,,,,,,,,,,,,,,,0.231560063,,,,,,,,,,,,,,,,,,,,,,,,,,,,right,1,70,30,100,1,2016.852711,2016.852711,2016.852711,None,None,2,0,0.4406289,,,,,,,,,,,,,,,,,,,10,P1,1,2024-09-24_14h11.02.902,uWM_experiment,2022.2.3,60.00092401
,,,,,,,,,,,,,,,,,,,,4,0,4,0,15,0,15,0,,,,,,,,,,,,,,,,,,,,,,,,,,,,,,,,,,,,,,,,,,,,,,,,,,,,,,,,,,,,,,,,,,,,,,0.221560063,,,,,,,,,,,,,,,,,,,,,,,,,,,,left,1,160,-30,130,1,2022.969625,2022.969625,2022.969625,None,None,2,0,0.4036518,,,,,,,,,,,,,,,,,,,10,P1,1,2024-09-24_14h11.02.902,uWM_experiment,2022.2.3,60.00092401
,,,,,,,,,,,,,,,,,,,,4,0,4,0,16,0,16,0,,,,,,,,,,,,,,,,,,,,,,,,,,,,,,,,,,,,,,,,,,,,,,,,,,,,,,,,,,,,,,,,,,,,,,0.211560063,,,,,,,,,,,,,,,,,,,,,,,,,,,,left,1,130,-30,100,1,2029.369883,2029.369883,2029.369883,None,None,2,0,0.4353002,,,,,,,,,,,,,,,,,,,10,P1,1,2024-09-24_14h11.02.902,uWM_experiment,2022.2.3,60.00092401
,,,,,,,,,,,,,,,,,,,,4,0,4,0,17,0,17,0,,,,,,,,,,,,,,,,,,,,,,,,,,,,,,,,,,,,,,,,,,,,,,,,,,,,,,,,,,,,,,,,,,,,,,0.201560063,,,,,,,,,,,,,,,,,,,,,,,,,,,,left,1,130,-30,100,1,2035.370129,2035.370129,2035.370129,None,None,2,0,0.4349782,,,,,,,,,,,,,,,,,,,10,P1,1,2024-09-24_14h11.02.902,uWM_experiment,2022.2.3,60.00092401
,,,,,,,,,,,,,,,,,,,,4,0,4,0,18,0,18,0,,,,,,,,,,,,,,,,,,,,,,,,,,,,,,,,,,,,,,,,,,,,,,,,,,,,,,,,,,,,,,,,,,,,,,0.191560063,,,,,,,,,,,,,,,,,,,,,,,,,,,,right,1,10,30,40,1,2041.320347,2041.320347,2041.320347,None,None,2,0,0.4847349,,,,,,,,,,,,,,,,,,,10,P1,1,2024-09-24_14h11.02.902,uWM_experiment,2022.2.3,60.00092401
,,,,,,,,,,,,,,,,,,,,4,0,4,0,19,0,19,0,,,,,,,,,,,,,,,,,,,,,,,,,,,,,,,,,,,,,,,,,,,,,,,,,,,,,,,,,,,,,,,,,,,,,,0.181560063,,,,,,,,,,,,,,,,,,,,,,,,,,,,right,1,160,30,190,1,2047.320612,2047.320612,2047.320612,None,None,2,0,0.4205694,,,,,,,,,,,,,,,,,,,10,P1,1,2024-09-24_14h11.02.902,uWM_experiment,2022.2.3,60.00092401
,,,,,,,,,,,,,,,,,,,,4,0,4,0,20,0,20,0,,,,,,,,,,,,,,,,,,,,,,,,,,,,,,,,,,,,,,,,,,,,,,,,,,,,,,,,,,,,,,,,,,,,,,0.171560063,,,,,,,,,,,,,,,,,,,,,,,,,,,,left,1,10,-30,-20,1,2053.33749,2053.33749,2053.33749,None,None,2,0,0.2915463,,,,,,,,,,,,,,,,,,,10,P1,1,2024-09-24_14h11.02.902,uWM_experiment,2022.2.3,60.00092401
,,,,,,,,,,,,,,,,,,,,4,0,4,0,21,0,21,0,,,,,,,,,,,,,,,,,,,,,,,,,,,,,,,,,,,,,,,,,,,,,,,,,,,,,,,,,,,,,,,,,,,,,,0.161560063,,,,,,,,,,,,,,,,,,,,,,,,,,,,left,1,160,-30,130,1,2059.47107,2059.47107,2059.47107,None,None,2,0,0.301932,,,,,,,,,,,,,,,,,,,10,P1,1,2024-09-24_14h11.02.902,uWM_experiment,2022.2.3,60.00092401
,,,,,,,,,,,,,,,,,,,,4,0,4,0,22,0,22,0,,,,,,,,,,,,,,,,,,,,,,,,,,,,,,,,,,,,,,,,,,,,,,,,,,,,,,,,,,,,,,,,,,,,,,0.1,,,,,,,,,,,,,,,,,,,,,,,,,,,,right,1,70,30,100,2,2066.554685,2066.554685,2066.554685,None,None,4,0,0.6743527,,,,,,,,,,,,,,,,,,,10,P1,1,2024-09-24_14h11.02.902,uWM_experiment,2022.2.3,60.00092401
,,,,,,,,,,,,,,,,,,,,4,0,4,0,23,0,23,0,,,,,,,,,,,,,,,,,,,,,,,,,,,,,,,,,,,,,,,,,,,,,,,,,,,,,,,,,,,,,,,,,,,,,,0.151560063,,,,,,,,,,,,,,,,,,,,,,,,,,,,right,1,100,30,130,1,2073.138267,2073.138267,2073.138267,None,None,2,0,0.4267561,,,,,,,,,,,,,,,,,,,10,P1,1,2024-09-24_14h11.02.902,uWM_experiment,2022.2.3,60.00092401
,,,,,,,,,,,,,,,,,,,,4,0,4,0,,,,,0,0,0,0,,,,,,,,,,,,,,,,,,,,,,,,,,,,,,,,,,,,,,,,,,,,,,,,,,,,,,,,,,,,,,,,,,,,,,,,,,,,,,,,,,,,,,,,,,,,,,,,,,,,,,,,,,,,2073.58835,2073.58835,space,12.0967423,None,None,,,,,,,,,,,,,10,P1,1,2024-09-24_14h11.02.902,uWM_experiment,2022.2.3,60.00092401
,,,,,,,,,,,,,,,,,,,,4,0,4,0,,,,,1,0,1,0,,,,,,,,,,,,,,,,,,,,,,,,,,,,,,,,,,,,,,,,,,,,,,,,,,,,,,,,,,,,,,,,,,,,,,,,,,,,,,,,,,,,,,,,,,,,,,,,,,,,,,,,,,,,,,,,,,,,,,,,,,,,,,10,P1,1,2024-09-24_14h11.02.902,uWM_experiment,2022.2.3,60.00092401
,,,,,,,,,,,,,,,,,,,,4,0,4,0,,,,,2,0,2,0,,,,,,,,,,,,,,,,,,,,,,,,,,,,,,,,,,,,,,,,,,,,,,,,,,,,,,,,,,,,,,,,,,,,,,,,,,,,,,,,,,,,,,,,,,,,,,,,,,,,,,,,,,,,,,,,,,,,,,,,,,,,,,10,P1,1,2024-09-24_14h11.02.902,uWM_experiment,2022.2.3,60.00092401
,,,,,,,,,,,,,,,,,,,,5,0,5,0,0,0,0,0,,,,,,,,,,,,,,,,,,,,,,,,,,,,,,,,,,,,,,,,,,,,,,,,,,,,,,,,,,,,,,,,,,,,,,0.141560063,,,,,,,,,,,,,,,,,,,,2085.705417,2086.405453,2086.705466,2087.405483,2087.705518,2088.405522,2088.405522,2088.722225,right,1,160,30,190,1,2093.855777,2093.855777,2093.855777,None,None,2,0,0.7890839,,,,,,,None,,,,,,,,,,,,10,P1,1,2024-09-24_14h11.02.902,uWM_experiment,2022.2.3,60.00092401
,,,,,,,,,,,,,,,,,,,,5,0,5,0,1,0,1,0,,,,,,,,,,,,,,,,,,,,,,,,,,,,,,,,,,,,,,,,,,,,,,,,,,,,,,,,,,,,,,,,,,,,,,0.131560063,,,,,,,,,,,,,,,,,,,,,,,,,,,,right,1,160,30,190,1,2100.172679,2100.172679,2100.172679,None,None,2,0,0.2241871,,,,,,,,,,,,,,,,,,,10,P1,1,2024-09-24_14h11.02.902,uWM_experiment,2022.2.3,60.00092401
,,,,,,,,,,,,,,,,,,,,5,0,5,0,2,0,2,0,,,,,,,,,,,,,,,,,,,,,,,,,,,,,,,,,,,,,,,,,,,,,,,,,,,,,,,,,,,,,,,,,,,,,,0.121560063,,,,,,,,,,,,,,,,,,,,,,,,,,,,right,1,10,30,40,1,2106.272875,2106.272875,2106.272875,None,None,2,0,0.3560123,,,,,,,,,,,,,,,,,,,10,P1,1,2024-09-24_14h11.02.902,uWM_experiment,2022.2.3,60.00092401
,,,,,,,,,,,,,,,,,,,,5,0,5,0,3,0,3,0,,,,,,,,,,,,,,,,,,,,,,,,,,,,,,,,,,,,,,,,,,,,,,,,,,,,,,,,,,,,,,,,,,,,,,0.111560063,,,,,,,,,,,,,,,,,,,,,,,,,,,,left,1,130,-30,100,1,2112.589795,2112.589795,2112.589795,None,None,2,0,0.1991153,,,,,,,,,,,,,,,,,,,10,P1,1,2024-09-24_14h11.02.902,uWM_experiment,2022.2.3,60.00092401
,,,,,,,,,,,,,,,,,,,,5,0,5,0,4,0,4,0,,,,,,,,,,,,,,,,,,,,,,,,,,,,,,,,,,,,,,,,,,,,,,,,,,,,,,,,,,,,,,,,,,,,,,0.101560063,,,,,,,,,,,,,,,,,,,,,,,,,,,,left,1,130,-30,100,1,2118.49003,2118.49003,2118.49003,None,None,2,0,0.0909232,,,,,,,,,,,,,,,,,,,10,P1,1,2024-09-24_14h11.02.902,uWM_experiment,2022.2.3,60.00092401
,,,,,,,,,,,,,,,,,,,,5,0,5,0,5,0,5,0,,,,,,,,,,,,,,,,,,,,,,,,,,,,,,,,,,,,,,,,,,,,,,,,,,,,,,,,,,,,,,,,,,,,,,0.091560063,,,,,,,,,,,,,,,,,,,,,,,,,,,,left,1,70,-30,40,1,2124.440256,2124.440256,2124.440256,None,None,2,0,0.2204148,,,,,,,,,,,,,,,,,,,10,P1,1,2024-09-24_14h11.02.902,uWM_experiment,2022.2.3,60.00092401
,,,,,,,,,,,,,,,,,,,,5,0,5,0,6,0,6,0,,,,,,,,,,,,,,,,,,,,,,,,,,,,,,,,,,,,,,,,,,,,,,,,,,,,,,,,,,,,,,,,,,,,,,0,,,,,,,,,,,,,,,,,,,,,,,,,,,,right,0,160,-30,130,0,2132.490593,2132.490593,2132.490593,None,None,1,1,0.3142117,,,,,,,,,,,,,,,,,,,10,P1,1,2024-09-24_14h11.02.902,uWM_experiment,2022.2.3,60.00092401
,,,,,,,,,,,,,,,,,,,,5,0,5,0,7,0,7,0,,,,,,,,,,,,,,,,,,,,,,,,,,,,,,,,,,,,,,,,,,,,,,,,,,,,,,,,,,,,,,,,,,,,,,0.081560063,,,,,,,,,,,,,,,,,,,,,,,,,,,,right,1,160,30,190,1,2138.374184,2138.374184,2138.374184,None,None,2,0,0.4304433,,,,,,,,,,,,,,,,,,,10,P1,1,2024-09-24_14h11.02.902,uWM_experiment,2022.2.3,60.00092401
,,,,,,,,,,,,,,,,,,,,5,0,5,0,8,0,8,0,,,,,,,,,,,,,,,,,,,,,,,,,,,,,,,,,,,,,,,,,,,,,,,,,,,,,,,,,,,,,,,,,,,,,,0,,,,,,,,,,,,,,,,,,,,,,,,,,,,left,0,100,30,130,0,2145.107727,2145.107727,2145.107727,None,None,1,1,0.6730152,,,,,,,,,,,,,,,,,,,10,P1,1,2024-09-24_14h11.02.902,uWM_experiment,2022.2.3,60.00092401
,,,,,,,,,,,,,,,,,,,,5,0,5,0,9,0,9,0,,,,,,,,,,,,,,,,,,,,,,,,,,,,,,,,,,,,,,,,,,,,,,,,,,,,,,,,,,,,,,,,,,,,,,0.071560063,,,,,,,,,,,,,,,,,,,,,,,,,,,,left,1,100,-30,70,1,2153.208078,2153.208078,2153.208078,None,None,1,1,0.6125925,,,,,,,,,,,,,,,,,,,10,P1,1,2024-09-24_14h11.02.902,uWM_experiment,2022.2.3,60.00092401
,,,,,,,,,,,,,,,,,,,,5,0,5,0,10,0,10,0,,,,,,,,,,,,,,,,,,,,,,,,,,,,,,,,,,,,,,,,,,,,,,,,,,,,,,,,,,,,,,,,,,,,,,0.081560063,,,,,,,,,,,,,,,,,,,,,,,,,,,,left,1,10,-30,-20,1,2159.45829,2159.45829,2159.45829,None,None,1,1,0.2422875,,,,,,,,,,,,,,,,,,,10,P1,1,2024-09-24_14h11.02.902,uWM_experiment,2022.2.3,60.00092401
,,,,,,,,,,,,,,,,,,,,5,0,5,0,11,0,11,0,,,,,,,,,,,,,,,,,,,,,,,,,,,,,,,,,,,,,,,,,,,,,,,,,,,,,,,,,,,,,,,,,,,,,,0.091560063,,,,,,,,,,,,,,,,,,,,,,,,,,,,right,1,10,30,40,1,2165.425184,2165.425184,2165.425184,None,None,1,1,0.195305,,,,,,,,,,,,,,,,,,,10,P1,1,2024-09-24_14h11.02.902,uWM_experiment,2022.2.3,60.00092401
,,,,,,,,,,,,,,,,,,,,5,0,5,0,12,0,12,0,,,,,,,,,,,,,,,,,,,,,,,,,,,,,,,,,,,,,,,,,,,,,,,,,,,,,,,,,,,,,,,,,,,,,,0.101560063,,,,,,,,,,,,,,,,,,,,,,,,,,,,right,1,10,30,40,1,2171.492095,2171.492095,2171.492095,None,None,1,1,0.4004147,,,,,,,,,,,,,,,,,,,10,P1,1,2024-09-24_14h11.02.902,uWM_experiment,2022.2.3,60.00092401
,,,,,,,,,,,,,,,,,,,,5,0,5,0,13,0,13,0,,,,,,,,,,,,,,,,,,,,,,,,,,,,,,,,,,,,,,,,,,,,,,,,,,,,,,,,,,,,,,,,,,,,,,0.1,,,,,,,,,,,,,,,,,,,,,,,,,,,,left,1,100,-30,70,2,2178.425716,2178.425716,2178.425716,None,None,3,0,1.9627684,,,,,,,,,,,,,,,,,,,10,P1,1,2024-09-24_14h11.02.902,uWM_experiment,2022.2.3,60.00092401
,,,,,,,,,,,,,,,,,,,,5,0,5,0,14,0,14,0,,,,,,,,,,,,,,,,,,,,,,,,,,,,,,,,,,,,,,,,,,,,,,,,,,,,,,,,,,,,,,,,,,,,,,0.111560063,,,,,,,,,,,,,,,,,,,,,,,,,,,,right,1,160,30,190,1,2185.992697,2185.992697,2185.992697,None,None,2,0,1.5556642,,,,,,,,,,,,,,,,,,,10,P1,1,2024-09-24_14h11.02.902,uWM_experiment,2022.2.3,60.00092401
,,,,,,,,,,,,,,,,,,,,5,0,5,0,15,0,15,0,,,,,,,,,,,,,,,,,,,,,,,,,,,,,,,,,,,,,,,,,,,,,,,,,,,,,,,,,,,,,,,,,,,,,,0,,,,,,,,,,,,,,,,,,,,,,,,,,,,left,0,160,30,190,0,2193.709652,2193.709652,2193.709652,None,None,1,1,0.4146646,,,,,,,,,,,,,,,,,,,10,P1,1,2024-09-24_14h11.02.902,uWM_experiment,2022.2.3,60.00092401
,,,,,,,,,,,,,,,,,,,,5,0,5,0,16,0,16,0,,,,,,,,,,,,,,,,,,,,,,,,,,,,,,,,,,,,,,,,,,,,,,,,,,,,,,,,,,,,,,,,,,,,,,0.101560063,,,,,,,,,,,,,,,,,,,,,,,,,,,,left,1,160,-30,130,1,2199.726556,2199.726556,2199.726556,None,None,1,1,0.3898947,,,,,,,,,,,,,,,,,,,10,P1,1,2024-09-24_14h11.02.902,uWM_experiment,2022.2.3,60.00092401
,,,,,,,,,,,,,,,,,,,,5,0,5,0,17,0,17,0,,,,,,,,,,,,,,,,,,,,,,,,,,,,,,,,,,,,,,,,,,,,,,,,,,,,,,,,,,,,,,,,,,,,,,0.111560063,,,,,,,,,,,,,,,,,,,,,,,,,,,,left,1,40,-30,10,1,2205.743434,2205.743434,2205.743434,None,None,2,0,0.8450538,,,,,,,,,,,,,,,,,,,10,P1,1,2024-09-24_14h11.02.902,uWM_experiment,2022.2.3,60.00092401
,,,,,,,,,,,,,,,,,,,,5,0,5,0,18,0,18,0,,,,,,,,,,,,,,,,,,,,,,,,,,,,,,,,,,,,,,,,,,,,,,,,,,,,,,,,,,,,,,,,,,,,,,0.101560063,,,,,,,,,,,,,,,,,,,,,,,,,,,,right,0,130,-30,100,1,2213.910448,2213.910448,2213.910448,None,None,2,0,0.2217942,,,,,,,,,,,,,,,,,,,10,P1,1,2024-09-24_14h11.02.902,uWM_experiment,2022.2.3,60.00092401
,,,,,,,,,,,,,,,,,,,,5,0,5,0,19,0,19,0,,,,,,,,,,,,,,,,,,,,,,,,,,,,,,,,,,,,,,,,,,,,,,,,,,,,,,,,,,,,,,,,,,,,,,0.091560063,,,,,,,,,,,,,,,,,,,,,,,,,,,,left,1,40,-30,10,1,2219.79398,2219.79398,2219.79398,None,None,2,0,0.4984241,,,,,,,,,,,,,,,,,,,10,P1,1,2024-09-24_14h11.02.902,uWM_experiment,2022.2.3,60.00092401
,,,,,,,,,,,,,,,,,,,,5,0,5,0,20,0,20,0,,,,,,,,,,,,,,,,,,,,,,,,,,,,,,,,,,,,,,,,,,,,,,,,,,,,,,,,,,,,,,,,,,,,,,0,,,,,,,,,,,,,,,,,,,,,,,,,,,,left,1,70,-30,40,0,2226.227587,2226.227587,2226.227587,None,None,2,0,0.9525502,,,,,,,,,,,,,,,,,,,10,P1,1,2024-09-24_14h11.02.902,uWM_experiment,2022.2.3,60.00092401
,,,,,,,,,,,,,,,,,,,,5,0,5,0,21,0,21,0,,,,,,,,,,,,,,,,,,,,,,,,,,,,,,,,,,,,,,,,,,,,,,,,,,,,,,,,,,,,,,,,,,,,,,0.081560063,,,,,,,,,,,,,,,,,,,,,,,,,,,,right,1,70,30,100,1,2233.594518,2233.594518,2233.594518,None,None,1,1,0.2015599,,,,,,,,,,,,,,,,,,,10,P1,1,2024-09-24_14h11.02.902,uWM_experiment,2022.2.3,60.00092401
,,,,,,,,,,,,,,,,,,,,5,0,5,0,22,0,22,0,,,,,,,,,,,,,,,,,,,,,,,,,,,,,,,,,,,,,,,,,,,,,,,,,,,,,,,,,,,,,,,,,,,,,,0.091560063,,,,,,,,,,,,,,,,,,,,,,,,,,,,right,0,130,-30,100,1,2241.011485,2241.011485,2241.011485,None,None,1,1,0.5366523,,,,,,,,,,,,,,,,,,,10,P1,1,2024-09-24_14h11.02.902,uWM_experiment,2022.2.3,60.00092401
,,,,,,,,,,,,,,,,,,,,5,0,5,0,23,0,23,0,,,,,,,,,,,,,,,,,,,,,,,,,,,,,,,,,,,,,,,,,,,,,,,,,,,,,,,,,,,,,,,,,,,,,,0,,,,,,,,,,,,,,,,,,,,,,,,,,,,right,1,10,30,40,0,2247.395078,2247.395078,2247.395078,None,None,1,1,0.3131398,,,,,,,,,,,,,,,,,,,10,P1,1,2024-09-24_14h11.02.902,uWM_experiment,2022.2.3,60.00092401
,,,,,,,,,,,,,,,,,,,,5,0,5,0,,,,,0,0,0,0,,,,,,,,,,,,,,,,,,,,,,,,,,,,,,,,,,,,,,,,,,,,,,,,,,,,,,,,,,,,,,,,,,,,,,,,,,,,,,,,,,,,,,,,,,,,,,,,,,,,,,,,,,,,2247.728427,2247.728427,space,1.235823,space,None,,2248.995138,2248.995138,3.3931003,,,,,,,,,10,P1,1,2024-09-24_14h11.02.902,uWM_experiment,2022.2.3,60.00092401
,,,,,,,,,,,,,,,,,,,,5,0,5,0,,,,,1,0,1,0,,,,,,,,,,,,,,,,,,,,,,,,,,,,,,,,,,,,,,,,,,,,,,,,,,,,,,,,,,,,,,,,,,,,,,,,,,,,,,,,,,,,,,,,,,,,,,,,,,,,,,,,,,,,,,,,,,,,,,,,,,,,,,10,P1,1,2024-09-24_14h11.02.902,uWM_experiment,2022.2.3,60.00092401
,,,,,,,,,,,,,,,,,,,,5,0,5,0,,,,,2,0,2,0,,,,,,,,,,,,,,,,,,,,,,,,,,,,,,,,,,,,,,,,,,,,,,,,,,,,,,,,,,,,,,,,,,,,,,,,,,,,,,,,,,,,,,,,,,,,,,,,,,,,,,,,,,,,,,,,,,,,,,,,,,,,,,10,P1,1,2024-09-24_14h11.02.902,uWM_experiment,2022.2.3,60.00092401
,,,,,,,,,,,,,,,,,,,,6,0,6,0,0,0,0,0,,,,,,,,,,,,,,,,,,,,,,,,,,,,,,,,,,,,,,,,,,,,,,,,,,,,,,,,,,,,,,,,,,,,,,0.101560063,,,,,,,,,,,,,,,,,,,,2252.411915,2253.111955,2253.411966,2254.111984,2254.411995,2255.112033,2255.112033,2255.428745,right,0,130,-30,100,1,2264.862425,2264.862425,2264.862425,None,None,1,1,0.7337262,,,,,,,None,,,,,,,,,,,,10,P1,1,2024-09-24_14h11.02.902,uWM_experiment,2022.2.3,60.00092401
,,,,,,,,,,,,,,,,,,,,6,0,6,0,1,0,1,0,,,,,,,,,,,,,,,,,,,,,,,,,,,,,,,,,,,,,,,,,,,,,,,,,,,,,,,,,,,,,,,,,,,,,,0.111560063,,,,,,,,,,,,,,,,,,,,,,,,,,,,right,1,70,30,100,1,2271.662694,2271.662694,2271.662694,None,None,1,1,0.5814351,,,,,,,,,,,,,,,,,,,10,P1,1,2024-09-24_14h11.02.902,uWM_experiment,2022.2.3,60.00092401
,,,,,,,,,,,,,,,,,,,,6,0,6,0,2,0,2,0,,,,,,,,,,,,,,,,,,,,,,,,,,,,,,,,,,,,,,,,,,,,,,,,,,,,,,,,,,,,,,,,,,,,,,0.121560063,,,,,,,,,,,,,,,,,,,,,,,,,,,,right,1,40,30,70,1,2278.112934,2278.112934,2278.112934,None,None,1,1,0.7390312,,,,,,,,,,,,,,,,,,,10,P1,1,2024-09-24_14h11.02.902,uWM_experiment,2022.2.3,60.00092401
,,,,,,,,,,,,,,,,,,,,6,0,6,0,3,0,3,0,,,,,,,,,,,,,,,,,,,,,,,,,,,,,,,,,,,,,,,,,,,,,,,,,,,,,,,,,,,,,,,,,,,,,,0.131560063,,,,,,,,,,,,,,,,,,,,,,,,,,,,right,1,70,30,100,1,2284.746536,2284.746536,2284.746536,None,None,2,0,0.4094277,,,,,,,,,,,,,,,,,,,10,P1,1,2024-09-24_14h11.02.902,uWM_experiment,2022.2.3,60.00092401
,,,,,,,,,,,,,,,,,,,,6,0,6,0,4,0,4,0,,,,,,,,,,,,,,,,,,,,,,,,,,,,,,,,,,,,,,,,,,,,,,,,,,,,,,,,,,,,,,,,,,,,,,0.121560063,,,,,,,,,,,,,,,,,,,,,,,,,,,,right,1,40,30,70,1,2290.930125,2290.930125,2290.930125,None,None,2,0,0.1697579,,,,,,,,,,,,,,,,,,,10,P1,1,2024-09-24_14h11.02.902,uWM_experiment,2022.2.3,60.00092401
,,,,,,,,,,,,,,,,,,,,6,0,6,0,5,0,5,0,,,,,,,,,,,,,,,,,,,,,,,,,,,,,,,,,,,,,,,,,,,,,,,,,,,,,,,,,,,,,,,,,,,,,,0.111560063,,,,,,,,,,,,,,,,,,,,,,,,,,,,left,1,40,-30,10,1,2297.030356,2297.030356,2297.030356,None,None,2,0,0.5255421,,,,,,,,,,,,,,,,,,,10,P1,1,2024-09-24_14h11.02.902,uWM_experiment,2022.2.3,60.00092401
,,,,,,,,,,,,,,,,,,,,6,0,6,0,6,0,6,0,,,,,,,,,,,,,,,,,,,,,,,,,,,,,,,,,,,,,,,,,,,,,,,,,,,,,,,,,,,,,,,,,,,,,,0,,,,,,,,,,,,,,,,,,,,,,,,,,,,right,1,70,30,100,0,2303.247244,2303.247244,2303.247244,None,None,1,1,0.4685022,,,,,,,,,,,,,,,,,,,10,P1,1,2024-09-24_14h11.02.902,uWM_experiment,2022.2.3,60.00092401
,,,,,,,,,,,,,,,,,,,,6,0,6,0,7,0,7,0,,,,,,,,,,,,,,,,,,,,,,,,,,,,,,,,,,,,,,,,,,,,,,,,,,,,,,,,,,,,,,,,,,,,,,0.101560063,,,,,,,,,,,,,,,,,,,,,,,,,,,,right,1,40,30,70,1,2309.814186,2309.814186,2309.814186,None,None,1,1,0.6936764,,,,,,,,,,,,,,,,,,,10,P1,1,2024-09-24_14h11.02.902,uWM_experiment,2022.2.3,60.00092401
,,,,,,,,,,,,,,,,,,,,6,0,6,0,8,0,8,0,,,,,,,,,,,,,,,,,,,,,,,,,,,,,,,,,,,,,,,,,,,,,,,,,,,,,,,,,,,,,,,,,,,,,,0.111560063,,,,,,,,,,,,,,,,,,,,,,,,,,,,left,1,160,-30,130,1,2316.264444,2316.264444,2316.264444,None,None,2,0,0.3793114,,,,,,,,,,,,,,,,,,,10,P1,1,2024-09-24_14h11.02.902,uWM_experiment,2022.2.3,60.00092401
,,,,,,,,,,,,,,,,,,,,6,0,6,0,9,0,9,0,,,,,,,,,,,,,,,,,,,,,,,,,,,,,,,,,,,,,,,,,,,,,,,,,,,,,,,,,,,,,,,,,,,,,,0.101560063,,,,,,,,,,,,,,,,,,,,,,,,,,,,left,1,10,-30,-20,1,2322.431334,2322.431334,2322.431334,None,None,2,0,0.196495,,,,,,,,,,,,,,,,,,,10,P1,1,2024-09-24_14h11.02.902,uWM_experiment,2022.2.3,60.00092401
,,,,,,,,,,,,,,,,,,,,6,0,6,0,10,0,10,0,,,,,,,,,,,,,,,,,,,,,,,,,,,,,,,,,,,,,,,,,,,,,,,,,,,,,,,,,,,,,,,,,,,,,,0.091560063,,,,,,,,,,,,,,,,,,,,,,,,,,,,right,1,130,30,160,1,2330.115004,2330.115004,2330.115004,None,None,2,0,0.9846499,,,,,,,,,,,,,,,,,,,10,P1,1,2024-09-24_14h11.02.902,uWM_experiment,2022.2.3,60.00092401
,,,,,,,,,,,,,,,,,,,,6,0,6,0,11,0,11,0,,,,,,,,,,,,,,,,,,,,,,,,,,,,,,,,,,,,,,,,,,,,,,,,,,,,,,,,,,,,,,,,,,,,,,0.081560063,,,,,,,,,,,,,,,,,,,,,,,,,,,,right,1,70,30,100,1,2337.348592,2337.348592,2337.348592,None,None,2,0,0.2469951,,,,,,,,,,,,,,,,,,,10,P1,1,2024-09-24_14h11.02.902,uWM_experiment,2022.2.3,60.00092401
,,,,,,,,,,,,,,,,,,,,6,0,6,0,12,0,12,0,,,,,,,,,,,,,,,,,,,,,,,,,,,,,,,,,,,,,,,,,,,,,,,,,,,,,,,,,,,,,,,,,,,,,,0.071560063,,,,,,,,,,,,,,,,,,,,,,,,,,,,right,1,70,30,100,1,2343.58216,2343.58216,2343.58216,None,None,2,0,0.4534284,,,,,,,,,,,,,,,,,,,10,P1,1,2024-09-24_14h11.02.902,uWM_experiment,2022.2.3,60.00092401
,,,,,,,,,,,,,,,,,,,,6,0,6,0,13,0,13,0,,,,,,,,,,,,,,,,,,,,,,,,,,,,,,,,,,,,,,,,,,,,,,,,,,,,,,,,,,,,,,,,,,,,,,0.061560063,,,,,,,,,,,,,,,,,,,,,,,,,,,,right,1,40,30,70,1,2349.499045,2349.499045,2349.499045,None,None,2,0,0.1525995,,,,,,,,,,,,,,,,,,,10,P1,1,2024-09-24_14h11.02.902,uWM_experiment,2022.2.3,60.00092401
,,,,,,,,,,,,,,,,,,,,6,0,6,0,14,0,14,0,,,,,,,,,,,,,,,,,,,,,,,,,,,,,,,,,,,,,,,,,,,,,,,,,,,,,,,,,,,,,,,,,,,,,,0.051560063,,,,,,,,,,,,,,,,,,,,,,,,,,,,left,1,100,-30,70,1,2356.66601,2356.66601,2356.66601,None,None,1,1,0.2975237,,,,,,,,,,,,,,,,,,,10,P1,1,2024-09-24_14h11.02.902,uWM_experiment,2022.2.3,60.00092401
,,,,,,,,,,,,,,,,,,,,6,0,6,0,15,0,15,0,,,,,,,,,,,,,,,,,,,,,,,,,,,,,,,,,,,,,,,,,,,,,,,,,,,,,,,,,,,,,,,,,,,,,,0.061560063,,,,,,,,,,,,,,,,,,,,,,,,,,,,right,1,160,30,190,1,2362.599564,2362.599564,2362.599564,None,None,1,1,0.6599557,,,,,,,,,,,,,,,,,,,10,P1,1,2024-09-24_14h11.02.902,uWM_experiment,2022.2.3,60.00092401
,,,,,,,,,,,,,,,,,,,,6,0,6,0,16,0,16,0,,,,,,,,,,,,,,,,,,,,,,,,,,,,,,,,,,,,,,,,,,,,,,,,,,,,,,,,,,,,,,,,,,,,,,0.071560063,,,,,,,,,,,,,,,,,,,,,,,,,,,,right,1,100,30,130,1,2369.283158,2369.283158,2369.283158,None,None,1,1,0.9202682,,,,,,,,,,,,,,,,,,,10,P1,1,2024-09-24_14h11.02.902,uWM_experiment,2022.2.3,60.00092401
,,,,,,,,,,,,,,,,,,,,6,0,6,0,17,0,17,0,,,,,,,,,,,,,,,,,,,,,,,,,,,,,,,,,,,,,,,,,,,,,,,,,,,,,,,,,,,,,,,,,,,,,,0.081560063,,,,,,,,,,,,,,,,,,,,,,,,,,,,right,1,160,30,190,1,2375.950082,2375.950082,2375.950082,None,None,1,1,0.4532841,,,,,,,,,,,,,,,,,,,10,P1,1,2024-09-24_14h11.02.902,uWM_experiment,2022.2.3,60.00092401
,,,,,,,,,,,,,,,,,,,,6,0,6,0,18,0,18,0,,,,,,,,,,,,,,,,,,,,,,,,,,,,,,,,,,,,,,,,,,,,,,,,,,,,,,,,,,,,,,,,,,,,,,0.091560063,,,,,,,,,,,,,,,,,,,,,,,,,,,,left,1,10,-30,-20,1,2382.050334,2382.050334,2382.050334,None,None,2,0,0.5771466,,,,,,,,,,,,,,,,,,,10,P1,1,2024-09-24_14h11.02.902,uWM_experiment,2022.2.3,60.00092401
,,,,,,,,,,,,,,,,,,,,6,0,6,0,19,0,19,0,,,,,,,,,,,,,,,,,,,,,,,,,,,,,,,,,,,,,,,,,,,,,,,,,,,,,,,,,,,,,,,,,,,,,,0,,,,,,,,,,,,,,,,,,,,,,,,,,,,right,1,160,30,190,0,2388.500579,2388.500579,2388.500579,None,None,1,1,0.1429441,,,,,,,,,,,,,,,,,,,10,P1,1,2024-09-24_14h11.02.902,uWM_experiment,2022.2.3,60.00092401
,,,,,,,,,,,,,,,,,,,,6,0,6,0,20,0,20,0,,,,,,,,,,,,,,,,,,,,,,,,,,,,,,,,,,,,,,,,,,,,,,,,,,,,,,,,,,,,,,,,,,,,,,0.081560063,,,,,,,,,,,,,,,,,,,,,,,,,,,,left,1,160,-30,130,1,2394.850844,2394.850844,2394.850844,None,None,2,0,1.0166739,,,,,,,,,,,,,,,,,,,10,P1,1,2024-09-24_14h11.02.902,uWM_experiment,2022.2.3,60.00092401
,,,,,,,,,,,,,,,,,,,,6,0,6,0,21,0,21,0,,,,,,,,,,,,,,,,,,,,,,,,,,,,,,,,,,,,,,,,,,,,,,,,,,,,,,,,,,,,,,,,,,,,,,0.071560063,,,,,,,,,,,,,,,,,,,,,,,,,,,,right,1,100,30,130,1,2401.617734,2401.617734,2401.617734,None,None,2,0,0.9296134,,,,,,,,,,,,,,,,,,,10,P1,1,2024-09-24_14h11.02.902,uWM_experiment,2022.2.3,60.00092401
,,,,,,,,,,,,,,,,,,,,6,0,6,0,22,0,22,0,,,,,,,,,,,,,,,,,,,,,,,,,,,,,,,,,,,,,,,,,,,,,,,,,,,,,,,,,,,,,,,,,,,,,,0.061560063,,,,,,,,,,,,,,,,,,,,,,,,,,,,right,1,130,30,160,1,2408.018001,2408.018001,2408.018001,None,None,2,0,0.6494474,,,,,,,,,,,,,,,,,,,10,P1,1,2024-09-24_14h11.02.902,uWM_experiment,2022.2.3,60.00092401
,,,,,,,,,,,,,,,,,,,,6,0,6,0,23,0,23,0,,,,,,,,,,,,,,,,,,,,,,,,,,,,,,,,,,,,,,,,,,,,,,,,,,,,,,,,,,,,,,,,,,,,,,0.051560063,,,,,,,,,,,,,,,,,,,,,,,,,,,,right,1,130,30,160,1,2414.284921,2414.284921,2414.284921,None,None,2,0,0.1664958,,,,,,,,,,,,,,,,,,,10,P1,1,2024-09-24_14h11.02.902,uWM_experiment,2022.2.3,60.00092401
,,,,,,,,,,,,,,,,,,,,6,0,6,0,,,,,0,0,0,0,,,,,,,,,,,,,,,,,,,,,,,,,,,,,,,,,,,,,,,,,,,,,,,,,,,,,,,,,,,,,,,,,,,,,,,,,,,,,,,,,,,,,,,,,,,,,,,,,,,,,,,,,,,,2414.468266,2414.468266,space,5.0869993,None,space,,,,,2419.585113,2419.585113,10.4580648,,,,,,10,P1,1,2024-09-24_14h11.02.902,uWM_experiment,2022.2.3,60.00092401
,,,,,,,,,,,,,,,,,,,,6,0,6,0,,,,,1,0,1,0,,,,,,,,,,,,,,,,,,,,,,,,,,,,,,,,,,,,,,,,,,,,,,,,,,,,,,,,,,,,,,,,,,,,,,,,,,,,,,,,,,,,,,,,,,,,,,,,,,,,,,,,,,,,,,,,,,,,,,,,,,,,,,10,P1,1,2024-09-24_14h11.02.902,uWM_experiment,2022.2.3,60.00092401
,,,,,,,,,,,,,,,,,,,,6,0,6,0,,,,,2,0,2,0,,,,,,,,,,,,,,,,,,,,,,,,,,,,,,,,,,,,,,,,,,,,,,,,,,,,,,,,,,,,,,,,,,,,,,,,,,,,,,,,,,,,,,,,,,,,,,,,,,,,,,,,,,,,,,,,,,,,,,,,,,,,,,10,P1,1,2024-09-24_14h11.02.902,uWM_experiment,2022.2.3,60.00092401
,,,,,,,,,,,,,,,,,,,,7,0,7,0,0,0,0,0,,,,,,,,,,,,,,,,,,,,,,,,,,,,,,,,,,,,,,,,,,,,,,,,,,,,,,,,,,,,,,,,,,,,,,0,,,,,,,,,,,,,,,,,,,,2442.402683,2443.102739,2443.386062,2444.086094,2444.386101,2445.08612,2445.08612,2445.4028,left,1,10,-30,-20,0,2450.953036,2450.953036,2450.953036,None,None,1,1,0.4900683,,,,,,,space,,,,,,,2438.319185,2438.319185,4.0520543,,,10,P1,1,2024-09-24_14h11.02.902,uWM_experiment,2022.2.3,60.00092401
,,,,,,,,,,,,,,,,,,,,7,0,7,0,1,0,1,0,,,,,,,,,,,,,,,,,,,,,,,,,,,,,,,,,,,,,,,,,,,,,,,,,,,,,,,,,,,,,,,,,,,,,,0,,,,,,,,,,,,,,,,,,,,,,,,,,,,left,0,70,30,100,0,2457.436607,2457.436607,2457.436607,None,None,1,1,0.2704296,,,,,,,,,,,,,,,,,,,10,P1,1,2024-09-24_14h11.02.902,uWM_experiment,2022.2.3,60.00092401
,,,,,,,,,,,,,,,,,,,,7,0,7,0,2,0,2,0,,,,,,,,,,,,,,,,,,,,,,,,,,,,,,,,,,,,,,,,,,,,,,,,,,,,,,,,,,,,,,,,,,,,,,0.041560063,,,,,,,,,,,,,,,,,,,,,,,,,,,,left,1,40,-30,10,1,2463.703535,2463.703535,2463.703535,None,None,2,0,1.7956362,,,,,,,,,,,,,,,,,,,10,P1,1,2024-09-24_14h11.02.902,uWM_experiment,2022.2.3,60.00092401
,,,,,,,,,,,,,,,,,,,,7,0,7,0,3,0,3,0,,,,,,,,,,,,,,,,,,,,,,,,,,,,,,,,,,,,,,,,,,,,,,,,,,,,,,,,,,,,,,,,,,,,,,0,,,,,,,,,,,,,,,,,,,,,,,,,,,,left,0,100,30,130,0,2475.320654,2475.320654,2475.320654,None,None,1,1,0.2103064,,,,,,,,,,,,,,,,,,,10,P1,1,2024-09-24_14h11.02.902,uWM_experiment,2022.2.3,60.00092401
,,,,,,,,,,,,,,,,,,,,7,0,7,0,4,0,4,0,,,,,,,,,,,,,,,,,,,,,,,,,,,,,,,,,,,,,,,,,,,,,,,,,,,,,,,,,,,,,,,,,,,,,,0.031560063,,,,,,,,,,,,,,,,,,,,,,,,,,,,right,1,160,30,190,1,2482.220902,2482.220902,2482.220902,None,None,1,1,0.3019797,,,,,,,,,,,,,,,,,,,10,P1,1,2024-09-24_14h11.02.902,uWM_experiment,2022.2.3,60.00092401
,,,,,,,,,,,,,,,,,,,,7,0,7,0,5,0,5,0,,,,,,,,,,,,,,,,,,,,,,,,,,,,,,,,,,,,,,,,,,,,,,,,,,,,,,,,,,,,,,,,,,,,,,0.041560063,,,,,,,,,,,,,,,,,,,,,,,,,,,,right,1,40,30,70,1,2489.921213,2489.921213,2489.921213,None,None,2,0,0.2656089,,,,,,,,,,,,,,,,,,,10,P1,1,2024-09-24_14h11.02.902,uWM_experiment,2022.2.3,60.00092401
,,,,,,,,,,,,,,,,,,,,7,0,7,0,6,0,6,0,,,,,,,,,,,,,,,,,,,,,,,,,,,,,,,,,,,,,,,,,,,,,,,,,,,,,,,,,,,,,,,,,,,,,,0,,,,,,,,,,,,,,,,,,,,,,,,,,,,right,0,100,-30,70,0,2496.004801,2496.004801,2496.004801,None,None,1,1,0.1420322,,,,,,,,,,,,,,,,,,,10,P1,1,2024-09-24_14h11.02.902,uWM_experiment,2022.2.3,60.00092401
,,,,,,,,,,,,,,,,,,,,7,0,7,0,7,0,7,0,,,,,,,,,,,,,,,,,,,,,,,,,,,,,,,,,,,,,,,,,,,,,,,,,,,,,,,,,,,,,,,,,,,,,,0.031560063,,,,,,,,,,,,,,,,,,,,,,,,,,,,right,1,70,30,100,1,2503.288385,2503.288385,2503.288385,None,None,1,1,0.1785513,,,,,,,,,,,,,,,,,,,10,P1,1,2024-09-24_14h11.02.902,uWM_experiment,2022.2.3,60.00092401
,,,,,,,,,,,,,,,,,,,,7,0,7,0,8,0,8,0,,,,,,,,,,,,,,,,,,,,,,,,,,,,,,,,,,,,,,,,,,,,,,,,,,,,,,,,,,,,,,,,,,,,,,0,,,,,,,,,,,,,,,,,,,,,,,,,,,,right,0,130,-30,100,0,2511.388711,2511.388711,2511.388711,None,None,1,1,0.4539483,,,,,,,,,,,,,,,,,,,10,P1,1,2024-09-24_14h11.02.902,uWM_experiment,2022.2.3,60.00092401
,,,,,,,,,,,,,,,,,,,,7,0,7,0,9,0,9,0,,,,,,,,,,,,,,,,,,,,,,,,,,,,,,,,,,,,,,,,,,,,,,,,,,,,,,,,,,,,,,,,,,,,,,0.041560063,,,,,,,,,,,,,,,,,,,,,,,,,,,,left,0,10,30,40,1,2518.972358,2518.972358,2518.972358,None,None,1,1,0.1423707,,,,,,,,,,,,,,,,,,,10,P1,1,2024-09-24_14h11.02.902,uWM_experiment,2022.2.3,60.00092401
,,,,,,,,,,,,,,,,,,,,7,0,7,0,10,0,10,0,,,,,,,,,,,,,,,,,,,,,,,,,,,,,,,,,,,,,,,,,,,,,,,,,,,,,,,,,,,,,,,,,,,,,,0.051560063,,,,,,,,,,,,,,,,,,,,,,,,,,,,left,1,160,-30,130,1,2524.872584,2524.872584,2524.872584,None,None,1,1,0.418096,,,,,,,,,,,,,,,,,,,10,P1,1,2024-09-24_14h11.02.902,uWM_experiment,2022.2.3,60.00092401
,,,,,,,,,,,,,,,,,,,,7,0,7,0,11,0,11,0,,,,,,,,,,,,,,,,,,,,,,,,,,,,,,,,,,,,,,,,,,,,,,,,,,,,,,,,,,,,,,,,,,,,,,0.061560063,,,,,,,,,,,,,,,,,,,,,,,,,,,,right,1,70,30,100,1,2531.62283,2531.62283,2531.62283,None,None,1,1,0.5319411,,,,,,,,,,,,,,,,,,,10,P1,1,2024-09-24_14h11.02.902,uWM_experiment,2022.2.3,60.00092401
,,,,,,,,,,,,,,,,,,,,7,0,7,0,12,0,12,0,,,,,,,,,,,,,,,,,,,,,,,,,,,,,,,,,,,,,,,,,,,,,,,,,,,,,,,,,,,,,,,,,,,,,,0,,,,,,,,,,,,,,,,,,,,,,,,,,,,right,1,70,30,100,0,2538.256451,2538.256451,2538.256451,None,None,1,1,0.1861501,,,,,,,,,,,,,,,,,,,10,P1,1,2024-09-24_14h11.02.902,uWM_experiment,2022.2.3,60.00092401
,,,,,,,,,,,,,,,,,,,,7,0,7,0,13,0,13,0,,,,,,,,,,,,,,,,,,,,,,,,,,,,,,,,,,,,,,,,,,,,,,,,,,,,,,,,,,,,,,,,,,,,,,0,,,,,,,,,,,,,,,,,,,,,,,,,,,,left,0,160,30,190,0,2545.606709,2545.606709,2545.606709,None,None,1,1,0.6840084,,,,,,,,,,,,,,,,,,,10,P1,1,2024-09-24_14h11.02.902,uWM_experiment,2022.2.3,60.00092401
,,,,,,,,,,,,,,,,,,,,7,0,7,0,14,0,14,0,,,,,,,,,,,,,,,,,,,,,,,,,,,,,,,,,,,,,,,,,,,,,,,,,,,,,,,,,,,,,,,,,,,,,,0,,,,,,,,,,,,,,,,,,,,,,,,,,,,left,1,130,-30,100,0,2551.773629,2551.773629,2551.773629,None,None,1,1,0.1169552,,,,,,,,,,,,,,,,,,,10,P1,1,2024-09-24_14h11.02.902,uWM_experiment,2022.2.3,60.00092401
,,,,,,,,,,,,,,,,,,,,7,0,7,0,15,0,15,0,,,,,,,,,,,,,,,,,,,,,,,,,,,,,,,,,,,,,,,,,,,,,,,,,,,,,,,,,,,,,,,,,,,,,,0.071560063,,,,,,,,,,,,,,,,,,,,,,,,,,,,left,1,100,-30,70,1,2561.37399,2561.37399,2561.37399,None,None,1,1,0.1406093,,,,,,,,,,,,,,,,,,,10,P1,1,2024-09-24_14h11.02.902,uWM_experiment,2022.2.3,60.00092401
,,,,,,,,,,,,,,,,,,,,7,0,7,0,16,0,16,0,,,,,,,,,,,,,,,,,,,,,,,,,,,,,,,,,,,,,,,,,,,,,,,,,,,,,,,,,,,,,,,,,,,,,,0.081560063,,,,,,,,,,,,,,,,,,,,,,,,,,,,left,1,40,-30,10,1,2567.357567,2567.357567,2567.357567,None,None,1,1,0.1171449,,,,,,,,,,,,,,,,,,,10,P1,1,2024-09-24_14h11.02.902,uWM_experiment,2022.2.3,60.00092401
,,,,,,,,,,,,,,,,,,,,7,0,7,0,17,0,17,0,,,,,,,,,,,,,,,,,,,,,,,,,,,,,,,,,,,,,,,,,,,,,,,,,,,,,,,,,,,,,,,,,,,,,,0.091560063,,,,,,,,,,,,,,,,,,,,,,,,,,,,left,1,10,-30,-20,1,2573.357803,2573.357803,2573.357803,None,None,1,1,0.1005476,,,,,,,,,,,,,,,,,,,10,P1,1,2024-09-24_14h11.02.902,uWM_experiment,2022.2.3,60.00092401
,,,,,,,,,,,,,,,,,,,,7,0,7,0,18,0,18,0,,,,,,,,,,,,,,,,,,,,,,,,,,,,,,,,,,,,,,,,,,,,,,,,,,,,,,,,,,,,,,,,,,,,,,0.101560063,,,,,,,,,,,,,,,,,,,,,,,,,,,,left,1,70,-30,40,1,2580.091436,2580.091436,2580.091436,None,None,2,0,0.1269142,,,,,,,,,,,,,,,,,,,10,P1,1,2024-09-24_14h11.02.902,uWM_experiment,2022.2.3,60.00092401
,,,,,,,,,,,,,,,,,,,,7,0,7,0,19,0,19,0,,,,,,,,,,,,,,,,,,,,,,,,,,,,,,,,,,,,,,,,,,,,,,,,,,,,,,,,,,,,,,,,,,,,,,0,,,,,,,,,,,,,,,,,,,,,,,,,,,,right,0,70,-30,40,0,2586.141654,2586.141654,2586.141654,None,None,1,1,0.0526987,,,,,,,,,,,,,,,,,,,10,P1,1,2024-09-24_14h11.02.902,uWM_experiment,2022.2.3,60.00092401
,,,,,,,,,,,,,,,,,,,,7,0,7,0,20,0,20,0,,,,,,,,,,,,,,,,,,,,,,,,,,,,,,,,,,,,,,,,,,,,,,,,,,,,,,,,,,,,,,,,,,,,,,0,,,,,,,,,,,,,,,,,,,,,,,,,,,,right,0,100,-30,70,0,2591.975189,2591.975189,2591.975189,None,None,1,1,0.1390033,,,,,,,,,,,,,,,,,,,10,P1,1,2024-09-24_14h11.02.902,uWM_experiment,2022.2.3,60.00092401
,,,,,,,,,,,,,,,,,,,,7,0,7,0,21,0,21,0,,,,,,,,,,,,,,,,,,,,,,,,,,,,,,,,,,,,,,,,,,,,,,,,,,,,,,,,,,,,,,,,,,,,,,0.091560063,,,,,,,,,,,,,,,,,,,,,,,,,,,,right,1,70,30,100,1,2598.225446,2598.225446,2598.225446,None,None,1,1,0.0730229,,,,,,,,,,,,,,,,,,,10,P1,1,2024-09-24_14h11.02.902,uWM_experiment,2022.2.3,60.00092401
,,,,,,,,,,,,,,,,,,,,7,0,7,0,22,0,22,0,,,,,,,,,,,,,,,,,,,,,,,,,,,,,,,,,,,,,,,,,,,,,,,,,,,,,,,,,,,,,,,,,,,,,,0.101560063,,,,,,,,,,,,,,,,,,,,,,,,,,,,right,1,70,30,100,1,2604.275678,2604.275678,2604.275678,None,None,1,1,0.0705197,,,,,,,,,,,,,,,,,,,10,P1,1,2024-09-24_14h11.02.902,uWM_experiment,2022.2.3,60.00092401
,,,,,,,,,,,,,,,,,,,,7,0,7,0,23,0,23,0,,,,,,,,,,,,,,,,,,,,,,,,,,,,,,,,,,,,,,,,,,,,,,,,,,,,,,,,,,,,,,,,,,,,,,0.111560063,,,,,,,,,,,,,,,,,,,,,,,,,,,,right,1,40,30,70,1,2610.125905,2610.125905,2610.125905,None,None,1,1,0.060496,,,,,,,,,,,,,,,,,,,10,P1,1,2024-09-24_14h11.02.902,uWM_experiment,2022.2.3,60.00092401
,,,,,,,,,,,,,,,,,,,,7,0,7,0,,,,,0,0,0,0,,,,,,,,,,,,,,,,,,,,,,,,,,,,,,,,,,,,,,,,,,,,,,,,,,,,,,,,,,,,,,,,,,,,,,,,,,,,,,,,,,,,,,,,,,,,,,,,,,,,,,,,,,,,2610.209241,2610.209241,space,34.9129946,None,None,,,,,,,,,,,,,10,P1,1,2024-09-24_14h11.02.902,uWM_experiment,2022.2.3,60.00092401
,,,,,,,,,,,,,,,,,,,,7,0,7,0,,,,,1,0,1,0,,,,,,,,,,,,,,,,,,,,,,,,,,,,,,,,,,,,,,,,,,,,,,,,,,,,,,,,,,,,,,,,,,,,,,,,,,,,,,,,,,,,,,,,,,,,,,,,,,,,,,,,,,,,,,,,,,,,,,,,,,,,,,10,P1,1,2024-09-24_14h11.02.902,uWM_experiment,2022.2.3,60.00092401
,,,,,,,,,,,,,,,,,,,,7,0,7,0,,,,,2,0,2,0,,,,,,,,,,,,,,,,,,,,,,,,,,,,,,,,,,,,,,,,,,,,,,,,,,,,,,,,,,,,,,,,,,,,,,,,,,,,,,,,,,,,,,,,,,,,,,,,,,,,,,,,,,,,,,,,,,,,,,,,,,,,,,10,P1,1,2024-09-24_14h11.02.902,uWM_experiment,2022.2.3,60.00092401
,,,,,,,,,,,,,,,,,,,,8,0,8,0,0,0,0,0,,,,,,,,,,,,,,,,,,,,,,,,,,,,,,,,,,,,,,,,,,,,,,,,,,,,,,,,,,,,,,,,,,,,,,0.121560063,,,,,,,,,,,,,,,,,,,,2645.143937,2645.84398,2646.143996,2646.844003,2647.144023,2647.844045,2647.844045,2648.160722,left,1,160,-30,130,1,2652.927569,2652.927569,2652.927569,None,None,1,1,0.1864001,,,,,,,None,,,,,,,,,,,,10,P1,1,2024-09-24_14h11.02.902,uWM_experiment,2022.2.3,60.00092401
,,,,,,,,,,,,,,,,,,,,8,0,8,0,1,0,1,0,,,,,,,,,,,,,,,,,,,,,,,,,,,,,,,,,,,,,,,,,,,,,,,,,,,,,,,,,,,,,,,,,,,,,,0.131560063,,,,,,,,,,,,,,,,,,,,,,,,,,,,right,1,100,30,130,1,2658.694473,2658.694473,2658.694473,None,None,1,1,0.7554821,,,,,,,,,,,,,,,,,,,10,P1,1,2024-09-24_14h11.02.902,uWM_experiment,2022.2.3,60.00092401
,,,,,,,,,,,,,,,,,,,,8,0,8,0,2,0,2,0,,,,,,,,,,,,,,,,,,,,,,,,,,,,,,,,,,,,,,,,,,,,,,,,,,,,,,,,,,,,,,,,,,,,,,0.1,,,,,,,,,,,,,,,,,,,,,,,,,,,,left,1,100,-30,70,2,2665.528071,2665.528071,2665.528071,None,None,3,0,1.3698205,,,,,,,,,,,,,,,,,,,10,P1,1,2024-09-24_14h11.02.902,uWM_experiment,2022.2.3,60.00092401
,,,,,,,,,,,,,,,,,,,,8,0,8,0,3,0,3,0,,,,,,,,,,,,,,,,,,,,,,,,,,,,,,,,,,,,,,,,,,,,,,,,,,,,,,,,,,,,,,,,,,,,,,0.141560063,,,,,,,,,,,,,,,,,,,,,,,,,,,,right,1,100,30,130,1,2672.728354,2672.728354,2672.728354,None,None,2,0,0.1775694,,,,,,,,,,,,,,,,,,,10,P1,1,2024-09-24_14h11.02.902,uWM_experiment,2022.2.3,60.00092401
,,,,,,,,,,,,,,,,,,,,8,0,8,0,4,0,4,0,,,,,,,,,,,,,,,,,,,,,,,,,,,,,,,,,,,,,,,,,,,,,,,,,,,,,,,,,,,,,,,,,,,,,,0,,,,,,,,,,,,,,,,,,,,,,,,,,,,left,0,10,30,40,0,2681.112034,2681.112034,2681.112034,None,None,1,1,0.1619082,,,,,,,,,,,,,,,,,,,10,P1,1,2024-09-24_14h11.02.902,uWM_experiment,2022.2.3,60.00092401
,,,,,,,,,,,,,,,,,,,,8,0,8,0,5,0,5,0,,,,,,,,,,,,,,,,,,,,,,,,,,,,,,,,,,,,,,,,,,,,,,,,,,,,,,,,,,,,,,,,,,,,,,0,,,,,,,,,,,,,,,,,,,,,,,,,,,,right,1,130,30,160,0,2686.995572,2686.995572,2686.995572,None,None,1,1,0.2782342,,,,,,,,,,,,,,,,,,,10,P1,1,2024-09-24_14h11.02.902,uWM_experiment,2022.2.3,60.00092401
,,,,,,,,,,,,,,,,,,,,8,0,8,0,6,0,6,0,,,,,,,,,,,,,,,,,,,,,,,,,,,,,,,,,,,,,,,,,,,,,,,,,,,,,,,,,,,,,,,,,,,,,,0.1,,,,,,,,,,,,,,,,,,,,,,,,,,,,right,1,160,30,190,2,2693.195828,2693.195828,2693.195828,None,None,3,0,0.5339758,,,,,,,,,,,,,,,,,,,10,P1,1,2024-09-24_14h11.02.902,uWM_experiment,2022.2.3,60.00092401
,,,,,,,,,,,,,,,,,,,,8,0,8,0,7,0,7,0,,,,,,,,,,,,,,,,,,,,,,,,,,,,,,,,,,,,,,,,,,,,,,,,,,,,,,,,,,,,,,,,,,,,,,0,,,,,,,,,,,,,,,,,,,,,,,,,,,,right,1,130,30,160,0,2701.579498,2701.579498,2701.579498,None,None,1,1,0.3181768,,,,,,,,,,,,,,,,,,,10,P1,1,2024-09-24_14h11.02.902,uWM_experiment,2022.2.3,60.00092401
,,,,,,,,,,,,,,,,,,,,8,0,8,0,8,0,8,0,,,,,,,,,,,,,,,,,,,,,,,,,,,,,,,,,,,,,,,,,,,,,,,,,,,,,,,,,,,,,,,,,,,,,,0.131560063,,,,,,,,,,,,,,,,,,,,,,,,,,,,left,1,10,-30,-20,1,2707.629719,2707.629719,2707.629719,None,None,2,0,0.8121802,,,,,,,,,,,,,,,,,,,10,P1,1,2024-09-24_14h11.02.902,uWM_experiment,2022.2.3,60.00092401
,,,,,,,,,,,,,,,,,,,,8,0,8,0,9,0,9,0,,,,,,,,,,,,,,,,,,,,,,,,,,,,,,,,,,,,,,,,,,,,,,,,,,,,,,,,,,,,,,,,,,,,,,0.1,,,,,,,,,,,,,,,,,,,,,,,,,,,,right,1,130,30,160,2,2714.446641,2714.446641,2714.446641,None,None,4,0,0.2510951,,,,,,,,,,,,,,,,,,,10,P1,1,2024-09-24_14h11.02.902,uWM_experiment,2022.2.3,60.00092401
,,,,,,,,,,,,,,,,,,,,8,0,8,0,10,0,10,0,,,,,,,,,,,,,,,,,,,,,,,,,,,,,,,,,,,,,,,,,,,,,,,,,,,,,,,,,,,,,,,,,,,,,,0,,,,,,,,,,,,,,,,,,,,,,,,,,,,left,0,100,30,130,0,2720.580223,2720.580223,2720.580223,None,None,1,1,0.1974384,,,,,,,,,,,,,,,,,,,10,P1,1,2024-09-24_14h11.02.902,uWM_experiment,2022.2.3,60.00092401
,,,,,,,,,,,,,,,,,,,,8,0,8,0,11,0,11,0,,,,,,,,,,,,,,,,,,,,,,,,,,,,,,,,,,,,,,,,,,,,,,,,,,,,,,,,,,,,,,,,,,,,,,0.121560063,,,,,,,,,,,,,,,,,,,,,,,,,,,,right,1,70,30,100,1,2727.564118,2727.564118,2727.564118,None,None,2,0,0.1975485,,,,,,,,,,,,,,,,,,,10,P1,1,2024-09-24_14h11.02.902,uWM_experiment,2022.2.3,60.00092401
,,,,,,,,,,,,,,,,,,,,8,0,8,0,12,0,12,0,,,,,,,,,,,,,,,,,,,,,,,,,,,,,,,,,,,,,,,,,,,,,,,,,,,,,,,,,,,,,,,,,,,,,,0.111560063,,,,,,,,,,,,,,,,,,,,,,,,,,,,left,1,70,-30,40,1,2733.430727,2733.430727,2733.430727,None,None,2,0,0.1789302,,,,,,,,,,,,,,,,,,,10,P1,1,2024-09-24_14h11.02.902,uWM_experiment,2022.2.3,60.00092401
,,,,,,,,,,,,,,,,,,,,8,0,8,0,13,0,13,0,,,,,,,,,,,,,,,,,,,,,,,,,,,,,,,,,,,,,,,,,,,,,,,,,,,,,,,,,,,,,,,,,,,,,,0,,,,,,,,,,,,,,,,,,,,,,,,,,,,right,1,100,30,130,0,2743.447787,2743.447787,2743.447787,None,None,1,1,0.1058614,,,,,,,,,,,,,,,,,,,10,P1,1,2024-09-24_14h11.02.902,uWM_experiment,2022.2.3,60.00092401
,,,,,,,,,,,,,,,,,,,,8,0,8,0,14,0,14,0,,,,,,,,,,,,,,,,,,,,,,,,,,,,,,,,,,,,,,,,,,,,,,,,,,,,,,,,,,,,,,,,,,,,,,0.1,,,,,,,,,,,,,,,,,,,,,,,,,,,,left,1,70,-30,40,2,2749.714706,2749.714706,2749.714706,None,None,4,0,0.1747504,,,,,,,,,,,,,,,,,,,10,P1,1,2024-09-24_14h11.02.902,uWM_experiment,2022.2.3,60.00092401
,,,,,,,,,,,,,,,,,,,,8,0,8,0,15,0,15,0,,,,,,,,,,,,,,,,,,,,,,,,,,,,,,,,,,,,,,,,,,,,,,,,,,,,,,,,,,,,,,,,,,,,,,0.101560063,,,,,,,,,,,,,,,,,,,,,,,,,,,,left,1,100,-30,70,1,2757.398336,2757.398336,2757.398336,None,None,2,0,0.0991918,,,,,,,,,,,,,,,,,,,10,P1,1,2024-09-24_14h11.02.902,uWM_experiment,2022.2.3,60.00092401
,,,,,,,,,,,,,,,,,,,,8,0,8,0,16,0,16,0,,,,,,,,,,,,,,,,,,,,,,,,,,,,,,,,,,,,,,,,,,,,,,,,,,,,,,,,,,,,,,,,,,,,,,0.091560063,,,,,,,,,,,,,,,,,,,,,,,,,,,,left,1,160,-30,130,1,2763.631906,2763.631906,2763.631906,None,None,2,0,0.0897308,,,,,,,,,,,,,,,,,,,10,P1,1,2024-09-24_14h11.02.902,uWM_experiment,2022.2.3,60.00092401
,,,,,,,,,,,,,,,,,,,,8,0,8,0,17,0,17,0,,,,,,,,,,,,,,,,,,,,,,,,,,,,,,,,,,,,,,,,,,,,,,,,,,,,,,,,,,,,,,,,,,,,,,0.081560063,,,,,,,,,,,,,,,,,,,,,,,,,,,,right,1,130,30,160,1,2769.748793,2769.748793,2769.748793,None,None,2,0,0.1087948,,,,,,,,,,,,,,,,,,,10,P1,1,2024-09-24_14h11.02.902,uWM_experiment,2022.2.3,60.00092401
,,,,,,,,,,,,,,,,,,,,8,0,8,0,18,0,18,0,,,,,,,,,,,,,,,,,,,,,,,,,,,,,,,,,,,,,,,,,,,,,,,,,,,,,,,,,,,,,,,,,,,,,,0.071560063,,,,,,,,,,,,,,,,,,,,,,,,,,,,left,1,70,-30,40,1,2775.665694,2775.665694,2775.665694,None,None,2,0,0.1117062,,,,,,,,,,,,,,,,,,,10,P1,1,2024-09-24_14h11.02.902,uWM_experiment,2022.2.3,60.00092401
,,,,,,,,,,,,,,,,,,,,8,0,8,0,19,0,19,0,,,,,,,,,,,,,,,,,,,,,,,,,,,,,,,,,,,,,,,,,,,,,,,,,,,,,,,,,,,,,,,,,,,,,,0.061560063,,,,,,,,,,,,,,,,,,,,,,,,,,,,left,1,160,-30,130,1,2781.632596,2781.632596,2781.632596,None,None,2,0,0.0809177,,,,,,,,,,,,,,,,,,,10,P1,1,2024-09-24_14h11.02.902,uWM_experiment,2022.2.3,60.00092401
,,,,,,,,,,,,,,,,,,,,8,0,8,0,20,0,20,0,,,,,,,,,,,,,,,,,,,,,,,,,,,,,,,,,,,,,,,,,,,,,,,,,,,,,,,,,,,,,,,,,,,,,,0.1,,,,,,,,,,,,,,,,,,,,,,,,,,,,left,1,70,-30,40,2,2787.882863,2787.882863,2787.882863,None,None,4,0,0.5505797,,,,,,,,,,,,,,,,,,,10,P1,1,2024-09-24_14h11.02.902,uWM_experiment,2022.2.3,60.00092401
,,,,,,,,,,,,,,,,,,,,8,0,8,0,21,0,21,0,,,,,,,,,,,,,,,,,,,,,,,,,,,,,,,,,,,,,,,,,,,,,,,,,,,,,,,,,,,,,,,,,,,,,,0.051560063,,,,,,,,,,,,,,,,,,,,,,,,,,,,right,1,40,30,70,1,2794.449809,2794.449809,2794.449809,None,None,2,0,0.079563,,,,,,,,,,,,,,,,,,,10,P1,1,2024-09-24_14h11.02.902,uWM_experiment,2022.2.3,60.00092401
,,,,,,,,,,,,,,,,,,,,8,0,8,0,22,0,22,0,,,,,,,,,,,,,,,,,,,,,,,,,,,,,,,,,,,,,,,,,,,,,,,,,,,,,,,,,,,,,,,,,,,,,,0.1,,,,,,,,,,,,,,,,,,,,,,,,,,,,left,1,130,-30,100,2,2801.0667,2801.0667,2801.0667,None,None,4,0,0.1184316,,,,,,,,,,,,,,,,,,,10,P1,1,2024-09-24_14h11.02.902,uWM_experiment,2022.2.3,60.00092401
,,,,,,,,,,,,,,,,,,,,8,0,8,0,23,0,23,0,,,,,,,,,,,,,,,,,,,,,,,,,,,,,,,,,,,,,,,,,,,,,,,,,,,,,,,,,,,,,,,,,,,,,,0,,,,,,,,,,,,,,,,,,,,,,,,,,,,left,1,100,-30,70,0,2808.51699,2808.51699,2808.51699,None,None,1,1,0.0842251,,,,,,,,,,,,,,,,,,,10,P1,1,2024-09-24_14h11.02.902,uWM_experiment,2022.2.3,60.00092401
,,,,,,,,,,,,,,,,,,,,8,0,8,0,,,,,0,0,0,0,,,,,,,,,,,,,,,,,,,,,,,,,,,,,,,,,,,,,,,,,,,,,,,,,,,,,,,,,,,,,,,,,,,,,,,,,,,,,,,,,,,,,,,,,,,,,,,,,,,,,,,,,,,,2808.633654,2808.633654,space,1.7196796,space,None,,2810.38374,2810.38374,1.1936241,,,,,,,,,10,P1,1,2024-09-24_14h11.02.902,uWM_experiment,2022.2.3,60.00092401
,,,,,,,,,,,,,,,,,,,,8,0,8,0,,,,,1,0,1,0,,,,,,,,,,,,,,,,,,,,,,,,,,,,,,,,,,,,,,,,,,,,,,,,,,,,,,,,,,,,,,,,,,,,,,,,,,,,,,,,,,,,,,,,,,,,,,,,,,,,,,,,,,,,,,,,,,,,,,,,,,,,,,10,P1,1,2024-09-24_14h11.02.902,uWM_experiment,2022.2.3,60.00092401
,,,,,,,,,,,,,,,,,,,,8,0,8,0,,,,,2,0,2,0,,,,,,,,,,,,,,,,,,,,,,,,,,,,,,,,,,,,,,,,,,,,,,,,,,,,,,,,,,,,,,,,,,,,,,,,,,,,,,,,,,,,,,,,,,,,,,,,,,,,,,,,,,,,,,,,,,,,,,,,,,,,,,10,P1,1,2024-09-24_14h11.02.902,uWM_experiment,2022.2.3,60.00092401
,,,,,,,,,,,,,,,,,,,,9,0,9,0,0,0,0,0,,,,,,,,,,,,,,,,,,,,,,,,,,,,,,,,,,,,,,,,,,,,,,,,,,,,,,,,,,,,,,,,,,,,,,0.041560063,,,,,,,,,,,,,,,,,,,,2811.600441,2812.300473,2812.600476,2813.300494,2813.600521,2814.300547,2814.300547,2814.617243,right,0,130,-30,100,1,2823.017565,2823.017565,2823.017565,None,None,1,1,0.1277231,,,,,,,None,,,,,,,,,,,,10,P1,1,2024-09-24_14h11.02.902,uWM_experiment,2022.2.3,60.00092401
,,,,,,,,,,,,,,,,,,,,9,0,9,0,1,0,1,0,,,,,,,,,,,,,,,,,,,,,,,,,,,,,,,,,,,,,,,,,,,,,,,,,,,,,,,,,,,,,,,,,,,,,,0.051560063,,,,,,,,,,,,,,,,,,,,,,,,,,,,right,1,70,30,100,1,2829.884492,2829.884492,2829.884492,None,None,2,0,2.2126943,,,,,,,,,,,,,,,,,,,10,P1,1,2024-09-24_14h11.02.902,uWM_experiment,2022.2.3,60.00092401
,,,,,,,,,,,,,,,,,,,,9,0,9,0,2,0,2,0,,,,,,,,,,,,,,,,,,,,,,,,,,,,,,,,,,,,,,,,,,,,,,,,,,,,,,,,,,,,,,,,,,,,,,0.041560063,,,,,,,,,,,,,,,,,,,,,,,,,,,,left,1,40,-30,10,1,2837.918144,2837.918144,2837.918144,None,None,2,0,1.3069487,,,,,,,,,,,,,,,,,,,10,P1,1,2024-09-24_14h11.02.902,uWM_experiment,2022.2.3,60.00092401
,,,,,,,,,,,,,,,,,,,,9,0,9,0,3,0,3,0,,,,,,,,,,,,,,,,,,,,,,,,,,,,,,,,,,,,,,,,,,,,,,,,,,,,,,,,,,,,,,,,,,,,,,0,,,,,,,,,,,,,,,,,,,,,,,,,,,,left,1,10,-30,-20,0,2845.301775,2845.301775,2845.301775,None,None,1,1,0.563415,,,,,,,,,,,,,,,,,,,10,P1,1,2024-09-24_14h11.02.902,uWM_experiment,2022.2.3,60.00092401
,,,,,,,,,,,,,,,,,,,,9,0,9,0,4,0,4,0,,,,,,,,,,,,,,,,,,,,,,,,,,,,,,,,,,,,,,,,,,,,,,,,,,,,,,,,,,,,,,,,,,,,,,0.031560063,,,,,,,,,,,,,,,,,,,,,,,,,,,,right,1,100,30,130,1,2852.035396,2852.035396,2852.035396,None,None,1,1,0.2855846,,,,,,,,,,,,,,,,,,,10,P1,1,2024-09-24_14h11.02.902,uWM_experiment,2022.2.3,60.00092401
,,,,,,,,,,,,,,,,,,,,9,0,9,0,5,0,5,0,,,,,,,,,,,,,,,,,,,,,,,,,,,,,,,,,,,,,,,,,,,,,,,,,,,,,,,,,,,,,,,,,,,,,,0.041560063,,,,,,,,,,,,,,,,,,,,,,,,,,,,left,1,40,-30,10,1,2858.118911,2858.118911,2858.118911,None,None,1,1,0.330009,,,,,,,,,,,,,,,,,,,10,P1,1,2024-09-24_14h11.02.902,uWM_experiment,2022.2.3,60.00092401
,,,,,,,,,,,,,,,,,,,,9,0,9,0,6,0,6,0,,,,,,,,,,,,,,,,,,,,,,,,,,,,,,,,,,,,,,,,,,,,,,,,,,,,,,,,,,,,,,,,,,,,,,0.051560063,,,,,,,,,,,,,,,,,,,,,,,,,,,,left,1,160,-30,130,1,2864.985864,2864.985864,2864.985864,None,None,1,1,0.2710793,,,,,,,,,,,,,,,,,,,10,P1,1,2024-09-24_14h11.02.902,uWM_experiment,2022.2.3,60.00092401
