PreTrainingPAS4_loop.thisRepN,PreTrainingPAS4_loop.thisTrialN,PreTrainingPAS4_loop.thisN,PreTrainingPAS4_loop.thisIndex,PreTrainingPAS1_loop.thisRepN,PreTrainingPAS1_loop.thisTrialN,PreTrainingPAS1_loop.thisN,PreTrainingPAS1_loop.thisIndex,RepeatCV_loop.thisRepN,RepeatCV_loop.thisTrialN,RepeatCV_loop.thisN,RepeatCV_loop.thisIndex,TrainingCV_loop.thisRepN,TrainingCV_loop.thisTrialN,TrainingCV_loop.thisN,TrainingCV_loop.thisIndex,TrainingCAL_loop.thisRepN,TrainingCAL_loop.thisTrialN,TrainingCAL_loop.thisN,TrainingCAL_loop.thisIndex,blocks_loop.thisRepN,blocks_loop.thisTrialN,blocks_loop.thisN,blocks_loop.thisIndex,trials_loop.thisRepN,trials_loop.thisTrialN,trials_loop.thisN,trials_loop.thisIndex,TrainingPAS1_loop.thisRepN,TrainingPAS1_loop.thisTrialN,TrainingPAS1_loop.thisN,TrainingPAS1_loop.thisIndex,spacebarWelcome0.started,spacebarWelcome0.keys,spacebarWelcome0.rt,spacebarWelcome1.started,gaborWelcome1.started,maskWelcome1.started,textMaskWelcome1.started,spacebarWelcome1.keys,spacebarWelcome1.rt,spacebarWelcome2.started,spacebarWelcome2.keys,spacebarWelcome2.rt,textInst_PreTrainingPAS4.started,spacebarPreTrainingPAS4.started,spacebarPreTrainingPAS4.keys,spacebarPreTrainingPAS4.rt,textPreTrainingPAS1.started,spacebarPreTrainingPAS1.started,spacebarPreTrainingPAS1.keys,spacebarPreTrainingPAS1.rt,textQUEST0.started,spacebarQUEST0.started,spacebarQUEST0.keys,spacebarQUEST0.rt,spacebar0.started,spacebar0.keys,spacebar0.rt,spacebar1.started,spacebar1.keys,spacebar1.rt,textInstructions2.started,spacebar2.started,Gabor1Inst2.started,Gabor2Inst2.started,Gabor3Inst2.started,Gabor4Inst2.started,spacebar2.keys,spacebar2.rt,textInstructionsPAS.started,spacebarInstPAS.started,spacebarInstPAS.keys,spacebarInstPAS.rt,textInstructions3.started,spacebar3.started,spacebar3.keys,spacebar3.rt,WMresp_CV,WMresp_CV_acc,oriMemo_CV,gyre_CV,oriTest_CV,feedbackText.started,sliderCV.started,PAStextCV.started,PASkeyCV.started,sliderCV.response,sliderCV.rt,PASkeyCV.keys,PASkeyCV.corr,PASkeyCV.rt,TextInstructionsCAL.started,spacebarCAL.started,spacebarCAL.keys,spacebarCAL.rt,contrast,WMresp_CAL,WMresp_CAL_acc,oriMemo_CAL,gyre_CAL,oriTest_CAL,cue_CAL,sliderCAL.started,PAStextCAL.started,PASkeyCAL.started,sliderCAL.response,sliderCAL.rt,PASkeyCAL.keys,PASkeyCAL.corr,PASkeyCAL.rt,propUnseen_CAL,textStart.started,spacebar4.started,spacebar4.keys,spacebar4.rt,three.started,three.stopped,two.started,two.stopped,one.started,one.stopped,blank_countdown.started,blank_countdown.stopped,WMresp,WMresp_acc,oriMemo,gyre,oriTest,cue,slider.started,textPAS_firstGabor.started,PASkey.started,slider.response,slider.rt,PASkey.keys,PASkey.corr,PASkey.rt,spacebarContinue.started,textBreak.started,spacebarContinue.keys,spacebarContinue.rt,spacebar_reminder.keys,spacebar_TrainingPAS1.keys,spacebar_endpractice.keys,spacebar_reminder.started,textReminder.started,spacebar_reminder.rt,textInst_TrainingPAS1.started,spacebar_TrainingPAS1.started,spacebar_TrainingPAS1.rt,textend_practicePAS1.started,spacebar_endpractice.started,spacebar_endpractice.rt,textThanks.started,buttonURL.started,buttonURL.numClicks,buttonURL.timesOn,buttonURL.timesOff,laboratory,participant,session,date,expName,psychopyVersion,frameRate
,,,,,,,,,,,,,,,,,,,,,,,,,,,,,,,,91.0880715,space,27.8200762,,,,,,,,,,,,,,,,,,,,,,,,,,,,,,,,,,,,,,,,,,,,,,,,,,,,,,,,,,,,,,,,,,,,,,,,,,,,,,,,,,,,,,,,,,,,,,,,,,,,,,,,,,,,,,,,,,,,,,,,,,,,,10,P1,2,2024-09-27_12h41.39.153,uWM_experiment,2022.2.3,119.9239203
,,,,,,,,,,,,,,,,,,,,,,,,,,,,,,,,,,,118.947678,118.947678,118.947678,118.947678,space,49.9363453,,,,,,,,,,,,,,,,,,,,,,,,,,,,,,,,,,,,,,,,,,,,,,,,,,,,,,,,,,,,,,,,,,,,,,,,,,,,,,,,,,,,,,,,,,,,,,,,,,,,,,,,,,,,,,,,,,,,,,,10,P1,2,2024-09-27_12h41.39.153,uWM_experiment,2022.2.3,119.9239203
,,,,,,,,,,,,,,,,,,,,,,,,,,,,,,,,,,,,,,,,,168.9086113,space,6.5993226,,,,,,,,,,,,,,,,,,,,,,,,,,,,,,,,,,,,,,,,,,,,,,,,,,,,,,,,,,,,,,,,,,,,,,,,,,,,,,,,,,,,,,,,,,,,,,,,,,,,,,,,,,,,,,,,,,,,10,P1,2,2024-09-27_12h41.39.153,uWM_experiment,2022.2.3,119.9239203
,,,,,,,,,,,,,,,,,,,,,,,,,,,,,,,,,,,,,,,,,,,,175.5172807,175.5172807,space,3.2387445,,,,,,,,,,,,,,,,,,,,,,,,,,,,,,,,,,,,,,,,,,,,,,,,,,,,,,,,,,,,,,,,,,,,,,,,,,,,,,,,,,,,,,,,,,,,,,,,,,,,,,,,,,,,,,,,10,P1,2,2024-09-27_12h41.39.153,uWM_experiment,2022.2.3,119.9239203
0,0,0,0,,,,,,,,,,,,,,,,,,,,,,,,,,,,,,,,,,,,,,,,,,,,,,,,,,,,,,,,,,,,,,,,,,,,,,,,,,,,,,,,,,,,,,,,,,,,,,,,,,,,,,,,,,,,,,,,,,,,,,,,,,,,,,,,,,,,,,,,,,,,,,,,,,,,,,,,,,,,10,P1,2,2024-09-27_12h41.39.153,uWM_experiment,2022.2.3,119.9239203
1,0,1,0,,,,,,,,,,,,,,,,,,,,,,,,,,,,,,,,,,,,,,,,,,,,,,,,,,,,,,,,,,,,,,,,,,,,,,,,,,,,,,,,,,,,,,,,,,,,,,,,,,,,,,,,,,,,,,,,,,,,,,,,,,,,,,,,,,,,,,,,,,,,,,,,,,,,,,,,,,,,10,P1,2,2024-09-27_12h41.39.153,uWM_experiment,2022.2.3,119.9239203
2,0,2,0,,,,,,,,,,,,,,,,,,,,,,,,,,,,,,,,,,,,,,,,,,,,,,,,,,,,,,,,,,,,,,,,,,,,,,,,,,,,,,,,,,,,,,,,,,,,,,,,,,,,,,,,,,,,,,,,,,,,,,,,,,,,,,,,,,,,,,,,,,,,,,,,,,,,,,,,,,,,10,P1,2,2024-09-27_12h41.39.153,uWM_experiment,2022.2.3,119.9239203
,,,,,,,,,,,,,,,,,,,,,,,,,,,,,,,,,,,,,,,,,,,,,,,,186.6178715,186.6178715,space,4.8821137,,,,,,,,,,,,,,,,,,,,,,,,,,,,,,,,,,,,,,,,,,,,,,,,,,,,,,,,,,,,,,,,,,,,,,,,,,,,,,,,,,,,,,,,,,,,,,,,,,,,,,,,,,,,10,P1,2,2024-09-27_12h41.39.153,uWM_experiment,2022.2.3,119.9239203
,,,,0,0,0,0,,,,,,,,,,,,,,,,,,,,,,,,,,,,,,,,,,,,,,,,,,,,,,,,,,,,,,,,,,,,,,,,,,,,,,,,,,,,,,,,,,,,,,,,,,,,,,,,,,,,,,,,,,,,,,,,,,,,,,,,,,,,,,,,,,,,,,,,,,,,,,,,,,,,,,,,10,P1,2,2024-09-27_12h41.39.153,uWM_experiment,2022.2.3,119.9239203
,,,,1,0,1,0,,,,,,,,,,,,,,,,,,,,,,,,,,,,,,,,,,,,,,,,,,,,,,,,,,,,,,,,,,,,,,,,,,,,,,,,,,,,,,,,,,,,,,,,,,,,,,,,,,,,,,,,,,,,,,,,,,,,,,,,,,,,,,,,,,,,,,,,,,,,,,,,,,,,,,,,10,P1,2,2024-09-27_12h41.39.153,uWM_experiment,2022.2.3,119.9239203
,,,,2,0,2,0,,,,,,,,,,,,,,,,,,,,,,,,,,,,,,,,,,,,,,,,,,,,,,,,,,,,,,,,,,,,,,,,,,,,,,,,,,,,,,,,,,,,,,,,,,,,,,,,,,,,,,,,,,,,,,,,,,,,,,,,,,,,,,,,,,,,,,,,,,,,,,,,,,,,,,,,10,P1,2,2024-09-27_12h41.39.153,uWM_experiment,2022.2.3,119.9239203
,,,,,,,,,,,,,,,,,,,,,,,,,,,,,,,,,,,,,,,,,,,,,,,,,,,,198.4768243,198.4768243,space,3.9911309,,,,,,,,,,,,,,,,,,,,,,,,,,,,,,,,,,,,,,,,,,,,,,,,,,,,,,,,,,,,,,,,,,,,,,,,,,,,,,,,,,,,,,,,,,,,,,,,,,,,,,,,10,P1,2,2024-09-27_12h41.39.153,uWM_experiment,2022.2.3,119.9239203
,,,,,,,,,,,,,,,,,,,,,,,,,,,,,,,,,,,,,,,,,,,,,,,,,,,,,,,,333.3089521,space,12.5427423,,,,,,,,,,,,,,,,,,,,,,,,,,,,,,,,,,,,,,,,,,,,,,,,,,,,,,,,,,,,,,,,,,,,,,,,,,,,,,,,,,,,,,,,,,,,,,,,,,,,,10,P1,2,2024-09-27_12h41.39.153,uWM_experiment,2022.2.3,119.9239203
,,,,,,,,,,,,,,,,,,,,,,,,,,,,,,,,,,,,,,,,,,,,,,,,,,,,,,,,,,,345.8679458,space,41.3117127,,,,,,,,,,,,,,,,,,,,,,,,,,,,,,,,,,,,,,,,,,,,,,,,,,,,,,,,,,,,,,,,,,,,,,,,,,,,,,,,,,,,,,,,,,,,,,,,,,10,P1,2,2024-09-27_12h41.39.153,uWM_experiment,2022.2.3,119.9239203
,,,,,,,,,,,,,,,,,,,,,,,,,,,,,,,,,,,,,,,,,,,,,,,,,,,,,,,,,,,,,,387.1951244,387.1951244,387.1951244,387.1951244,387.1951244,387.1951244,space,16.4084419,,,,,,,,,,,,,,,,,,,,,,,,,,,,,,,,,,,,,,,,,,,,,,,,,,,,,,,,,,,,,,,,,,,,,,,,,,,,,,,,,,,,,,,,,,10,P1,2,2024-09-27_12h41.39.153,uWM_experiment,2022.2.3,119.9239203
,,,,,,,,,,,,,,,,,,,,,,,,,,,,,,,,,,,,,,,,,,,,,,,,,,,,,,,,,,,,,,,,,,,,,,403.620994,403.620994,space,4.1585985,,,,,,,,,,,,,,,,,,,,,,,,,,,,,,,,,,,,,,,,,,,,,,,,,,,,,,,,,,,,,,,,,,,,,,,,,,,,,,,,,,,,,,10,P1,2,2024-09-27_12h41.39.153,uWM_experiment,2022.2.3,119.9239203
,,,,,,,,,,,,,,,,,,,,,,,,,,,,,,,,,,,,,,,,,,,,,,,,,,,,,,,,,,,,,,,,,,,,,,,,,,407.796201,407.796201,space,2.479385,,,,,,,,,,,,,,,,,,,,,,,,,,,,,,,,,,,,,,,,,,,,,,,,,,,,,,,,,,,,,,,,,,,,,,,,,,,,,,,,,,10,P1,2,2024-09-27_12h41.39.153,uWM_experiment,2022.2.3,119.9239203
,,,,,,,,0,0,0,0,0,0,0,0,,,,,,,,,,,,,,,,,,,,,,,,,,,,,,,,,,,,,,,,,,,,,,,,,,,,,,,,,,,,,,,left,1,70,-30,40,416.204998,417.2134124,417.2134124,417.2134124,None,None,4,0,1.4140626,,,,,,,,,,,,,,,,,,,,,,,,,,,,,,,,,,,,,,,,,,,,,,,,,,,,,,,,,,,,,,,,,,,,10,P1,2,2024-09-27_12h41.39.153,uWM_experiment,2022.2.3,119.9239203
,,,,,,,,0,0,0,0,1,0,1,0,,,,,,,,,,,,,,,,,,,,,,,,,,,,,,,,,,,,,,,,,,,,,,,,,,,,,,,,,,,,,,,left,1,130,-30,100,424.8137829,425.8221633,425.8221633,425.8221633,None,None,4,0,0.6372673,,,,,,,,,,,,,,,,,,,,,,,,,,,,,,,,,,,,,,,,,,,,,,,,,,,,,,,,,,,,,,,,,,,,10,P1,2,2024-09-27_12h41.39.153,uWM_experiment,2022.2.3,119.9239203
,,,,,,,,0,0,0,0,2,0,2,0,,,,,,,,,,,,,,,,,,,,,,,,,,,,,,,,,,,,,,,,,,,,,,,,,,,,,,,,,,,,,,,left,1,40,-30,10,432.3808565,433.3892428,433.3892428,433.3892428,None,None,4,0,0.5101661,,,,,,,,,,,,,,,,,,,,,,,,,,,,,,,,,,,,,,,,,,,,,,,,,,,,,,,,,,,,,,,,,,,,10,P1,2,2024-09-27_12h41.39.153,uWM_experiment,2022.2.3,119.9239203
,,,,,,,,0,0,0,0,3,0,3,0,,,,,,,,,,,,,,,,,,,,,,,,,,,,,,,,,,,,,,,,,,,,,,,,,,,,,,,,,,,,,,,right,1,70,30,100,439.7812435,440.7896359,440.7896359,440.7896359,None,None,4,0,1.0697631,,,,,,,,,,,,,,,,,,,,,,,,,,,,,,,,,,,,,,,,,,,,,,,,,,,,,,,,,,,,,,,,,,,,10,P1,2,2024-09-27_12h41.39.153,uWM_experiment,2022.2.3,119.9239203
,,,,,,,,0,0,0,0,4,0,4,0,,,,,,,,,,,,,,,,,,,,,,,,,,,,,,,,,,,,,,,,,,,,,,,,,,,,,,,,,,,,,,,right,1,40,30,70,447.7816719,448.7900707,448.7900707,448.7900707,None,None,4,0,0.4853076,,,,,,,,,,,,,,,,,,,,,,,,,,,,,,,,,,,,,,,,,,,,,,,,,,,,,,,,,,,,,,,,,,,,10,P1,2,2024-09-27_12h41.39.153,uWM_experiment,2022.2.3,119.9239203
,,,,,,,,0,0,0,0,5,0,5,0,,,,,,,,,,,,,,,,,,,,,,,,,,,,,,,,,,,,,,,,,,,,,,,,,,,,,,,,,,,,,,,right,1,160,30,190,454.9903814,455.9987739,455.9987739,455.9987739,None,None,4,0,0.6845964,,,,,,,,,,,,,,,,,,,,,,,,,,,,,,,,,,,,,,,,,,,,,,,,,,,,,,,,,,,,,,,,,,,,10,P1,2,2024-09-27_12h41.39.153,uWM_experiment,2022.2.3,119.9239203
,,,,,,,,0,0,0,0,,,,,,,,,,,,,,,,,,,,,,,,,,,,,,,,,,,,,,,,,,,,,,,,,,,,,,,,,,,,,,,,,,,,,,,,,,,,,,,,,,,,,,,,,,,,,,,,,,,,,,,,,,,,,,,,,,,,,,,,,,,,,,,,,,,,,,,,,,,,,,,,,,,,10,P1,2,2024-09-27_12h41.39.153,uWM_experiment,2022.2.3,119.9239203
,,,,,,,,,,,,,,,,,,,,,,,,,,,,,,,,,,,,,,,,,,,,,,,,,,,,,,,,,,,,,,,,,,,,,,,,,,,,,,,,,,,,,,,,,,,,472.682966,472.682966,space,3.5445013,,,,,,,,,,,,,,,,,,,,,,,,,,,,,,,,,,,,,,,,,,,,,,,,,,,,,,,,,,,,,,,,10,P1,2,2024-09-27_12h41.39.153,uWM_experiment,2022.2.3,119.9239203
,,,,,,,,,,,,,,,,0,0,0,0,,,,,,,,,,,,,,,,,,,,,,,,,,,,,,,,,,,,,,,,,,,,,,,,,,,,,,,,,,,,,,,,,,,,,,,,,,,,,0.05996904,left,1,40,-30,10,1,482.1001483,482.1001483,482.1001483,None,None,2,0,1.6631347,,,,,,,,,,,,,,,,,,,,,,,,,,,,,,,,,,,,,,,,,,,,,,,,,10,P1,2,2024-09-27_12h41.39.153,uWM_experiment,2022.2.3,119.9239203
,,,,,,,,,,,,,,,,1,0,1,0,,,,,,,,,,,,,,,,,,,,,,,,,,,,,,,,,,,,,,,,,,,,,,,,,,,,,,,,,,,,,,,,,,,,,,,,,,,,,0.1,right,1,10,30,40,2,489.2422002,489.2422002,489.2422002,None,None,3,0,0.6732309,0,,,,,,,,,,,,,,,,,,,,,,,,,,,,,,,,,,,,,,,,,,,,,,,,10,P1,2,2024-09-27_12h41.39.153,uWM_experiment,2022.2.3,119.9239203
,,,,,,,,,,,,,,,,2,0,2,0,,,,,,,,,,,,,,,,,,,,,,,,,,,,,,,,,,,,,,,,,,,,,,,,,,,,,,,,,,,,,,,,,,,,,,,,,,,,,0.1,right,1,100,30,130,2,495.7258756,495.7258756,495.7258756,None,None,4,0,0.4374293,0,,,,,,,,,,,,,,,,,,,,,,,,,,,,,,,,,,,,,,,,,,,,,,,,10,P1,2,2024-09-27_12h41.39.153,uWM_experiment,2022.2.3,119.9239203
,,,,,,,,,,,,,,,,3,0,3,0,,,,,,,,,,,,,,,,,,,,,,,,,,,,,,,,,,,,,,,,,,,,,,,,,,,,,,,,,,,,,,,,,,,,,,,,,,,,,0.04996904,left,1,70,-30,40,1,501.7178559,501.7178559,501.7178559,None,None,2,0,1.0774503,0,,,,,,,,,,,,,,,,,,,,,,,,,,,,,,,,,,,,,,,,,,,,,,,,10,P1,2,2024-09-27_12h41.39.153,uWM_experiment,2022.2.3,119.9239203
,,,,,,,,,,,,,,,,4,0,4,0,,,,,,,,,,,,,,,,,,,,,,,,,,,,,,,,,,,,,,,,,,,,,,,,,,,,,,,,,,,,,,,,,,,,,,,,,,,,,0.1,right,1,130,30,160,2,508.3598808,508.3598808,508.3598808,None,None,3,0,2.0835147,0,,,,,,,,,,,,,,,,,,,,,,,,,,,,,,,,,,,,,,,,,,,,,,,,10,P1,2,2024-09-27_12h41.39.153,uWM_experiment,2022.2.3,119.9239203
,,,,,,,,,,,,,,,,5,0,5,0,,,,,,,,,,,,,,,,,,,,,,,,,,,,,,,,,,,,,,,,,,,,,,,,,,,,,,,,,,,,,,,,,,,,,,,,,,,,,0.03996904,left,1,160,-30,130,1,516.07696,516.07696,516.07696,None,None,2,0,0.6303033,0,,,,,,,,,,,,,,,,,,,,,,,,,,,,,,,,,,,,,,,,,,,,,,,,10,P1,2,2024-09-27_12h41.39.153,uWM_experiment,2022.2.3,119.9239203
,,,,,,,,,,,,,,,,,,,,,,,,,,,,,,,,,,,,,,,,,,,,,,,,,,,,,,,,,,,,,,,,,,,,,,,,,,,,,,,,,,,,,,,,,,,,,,,,,,,,,,,,,,,,,,,,516.7186414,517.7103609,space,4.8609624,,,,,,,,,,,,,,,,,,,,,,,,,,,,,,,,,,,,,,,,,,,,10,P1,2,2024-09-27_12h41.39.153,uWM_experiment,2022.2.3,119.9239203
,,,,,,,,,,,,,,,,,,,,0,0,0,0,0,0,0,0,,,,,,,,,,,,,,,,,,,,,,,,,,,,,,,,,,,,,,,,,,,,,,,,,,,,,,,,,,,,,,,,,,,,,0.03996904,,,,,,,,,,,,,,,,,,,,522.5856337,523.28566,523.5773421,524.2773839,524.5774161,525.2774414,525.2774414,525.6274677,left,1,130,-30,100,1,530.9027402,530.9027402,530.9027402,None,None,2,0,1.3965072,,,,,,,,,,,,,,,,,,,,,,10,P1,2,2024-09-27_12h41.39.153,uWM_experiment,2022.2.3,119.9239203
,,,,,,,,,,,,,,,,,,,,0,0,0,0,1,0,1,0,,,,,,,,,,,,,,,,,,,,,,,,,,,,,,,,,,,,,,,,,,,,,,,,,,,,,,,,,,,,,,,,,,,,,0.02996904,,,,,,,,,,,,,,,,,,,,,,,,,,,,left,1,100,-30,70,1,538.4448118,538.4448118,538.4448118,None,None,2,0,0.5665949,,,,,,,,,,,,,,,,,,,,,,10,P1,2,2024-09-27_12h41.39.153,uWM_experiment,2022.2.3,119.9239203
,,,,,,,,,,,,,,,,,,,,0,0,0,0,2,0,2,0,,,,,,,,,,,,,,,,,,,,,,,,,,,,,,,,,,,,,,,,,,,,,,,,,,,,,,,,,,,,,,,,,,,,,0.01996904,,,,,,,,,,,,,,,,,,,,,,,,,,,,right,1,130,30,160,1,544.3034217,544.3034217,544.3034217,None,None,2,0,0.5479789,,,,,,,,,,,,,,,,,,,,,,10,P1,2,2024-09-27_12h41.39.153,uWM_experiment,2022.2.3,119.9239203
,,,,,,,,,,,,,,,,,,,,0,0,0,0,3,0,3,0,,,,,,,,,,,,,,,,,,,,,,,,,,,,,,,,,,,,,,,,,,,,,,,,,,,,,,,,,,,,,,,,,,,,,0.00996904,,,,,,,,,,,,,,,,,,,,,,,,,,,,right,1,130,30,160,1,550.7537898,550.7537898,550.7537898,None,None,2,0,1.5054112,,,,,,,,,,,,,,,,,,,,,,10,P1,2,2024-09-27_12h41.39.153,uWM_experiment,2022.2.3,119.9239203
,,,,,,,,,,,,,,,,,,,,0,0,0,0,4,0,4,0,,,,,,,,,,,,,,,,,,,,,,,,,,,,,,,,,,,,,,,,,,,,,,,,,,,,,,,,,,,,,,,,,,,,,0.005,,,,,,,,,,,,,,,,,,,,,,,,,,,,left,0,70,30,100,1,557.8541709,557.8541709,557.8541709,None,None,1,1,0.5172949,,,,,,,,,,,,,,,,,,,,,,10,P1,2,2024-09-27_12h41.39.153,uWM_experiment,2022.2.3,119.9239203
,,,,,,,,,,,,,,,,,,,,0,0,0,0,5,0,5,0,,,,,,,,,,,,,,,,,,,,,,,,,,,,,,,,,,,,,,,,,,,,,,,,,,,,,,,,,,,,,,,,,,,,,0.015,,,,,,,,,,,,,,,,,,,,,,,,,,,,right,1,10,30,40,1,565.5629239,565.5629239,565.5629239,None,None,1,1,0.2643937,,,,,,,,,,,,,,,,,,,,,,10,P1,2,2024-09-27_12h41.39.153,uWM_experiment,2022.2.3,119.9239203
,,,,,,,,,,,,,,,,,,,,0,0,0,0,6,0,6,0,,,,,,,,,,,,,,,,,,,,,,,,,,,,,,,,,,,,,,,,,,,,,,,,,,,,,,,,,,,,,,,,,,,,,0.025,,,,,,,,,,,,,,,,,,,,,,,,,,,,right,1,10,30,40,1,573.0299632,573.0299632,573.0299632,None,None,1,1,0.4852012,,,,,,,,,,,,,,,,,,,,,,10,P1,2,2024-09-27_12h41.39.153,uWM_experiment,2022.2.3,119.9239203
,,,,,,,,,,,,,,,,,,,,0,0,0,0,7,0,7,0,,,,,,,,,,,,,,,,,,,,,,,,,,,,,,,,,,,,,,,,,,,,,,,,,,,,,,,,,,,,,,,,,,,,,0.035,,,,,,,,,,,,,,,,,,,,,,,,,,,,left,1,10,-30,-20,1,579.9386643,579.9386643,579.9386643,None,None,1,1,0.1364643,,,,,,,,,,,,,,,,,,,,,,10,P1,2,2024-09-27_12h41.39.153,uWM_experiment,2022.2.3,119.9239203
,,,,,,,,,,,,,,,,,,,,0,0,0,0,8,0,8,0,,,,,,,,,,,,,,,,,,,,,,,,,,,,,,,,,,,,,,,,,,,,,,,,,,,,,,,,,,,,,,,,,,,,,0.045,,,,,,,,,,,,,,,,,,,,,,,,,,,,right,1,70,30,100,1,586.647327,586.647327,586.647327,None,None,1,1,0.1318139,,,,,,,,,,,,,,,,,,,,,,10,P1,2,2024-09-27_12h41.39.153,uWM_experiment,2022.2.3,119.9239203
,,,,,,,,,,,,,,,,,,,,0,0,0,0,9,0,9,0,,,,,,,,,,,,,,,,,,,,,,,,,,,,,,,,,,,,,,,,,,,,,,,,,,,,,,,,,,,,,,,,,,,,,0.055,,,,,,,,,,,,,,,,,,,,,,,,,,,,left,1,70,-30,40,1,592.3643184,592.3643184,592.3643184,None,None,1,1,0.0788376,,,,,,,,,,,,,,,,,,,,,,10,P1,2,2024-09-27_12h41.39.153,uWM_experiment,2022.2.3,119.9239203
,,,,,,,,,,,,,,,,,,,,0,0,0,0,10,0,10,0,,,,,,,,,,,,,,,,,,,,,,,,,,,,,,,,,,,,,,,,,,,,,,,,,,,,,,,,,,,,,,,,,,,,,0,,,,,,,,,,,,,,,,,,,,,,,,,,,,left,0,10,30,40,0,598.5479611,598.5479611,598.5479611,None,None,1,1,0.0951309,,,,,,,,,,,,,,,,,,,,,,10,P1,2,2024-09-27_12h41.39.153,uWM_experiment,2022.2.3,119.9239203
,,,,,,,,,,,,,,,,,,,,0,0,0,0,11,0,11,0,,,,,,,,,,,,,,,,,,,,,,,,,,,,,,,,,,,,,,,,,,,,,,,,,,,,,,,,,,,,,,,,,,,,,0,,,,,,,,,,,,,,,,,,,,,,,,,,,,left,1,40,-30,10,0,604.7982892,604.7982892,604.7982892,None,None,1,1,0.1169529,,,,,,,,,,,,,,,,,,,,,,10,P1,2,2024-09-27_12h41.39.153,uWM_experiment,2022.2.3,119.9239203
,,,,,,,,,,,,,,,,,,,,0,0,0,0,12,0,12,0,,,,,,,,,,,,,,,,,,,,,,,,,,,,,,,,,,,,,,,,,,,,,,,,,,,,,,,,,,,,,,,,,,,,,0,,,,,,,,,,,,,,,,,,,,,,,,,,,,left,1,40,-30,10,0,610.890301,610.890301,610.890301,None,None,1,1,0.0887613,,,,,,,,,,,,,,,,,,,,,,10,P1,2,2024-09-27_12h41.39.153,uWM_experiment,2022.2.3,119.9239203
,,,,,,,,,,,,,,,,,,,,0,0,0,0,13,0,13,0,,,,,,,,,,,,,,,,,,,,,,,,,,,,,,,,,,,,,,,,,,,,,,,,,,,,,,,,,,,,,,,,,,,,,0,,,,,,,,,,,,,,,,,,,,,,,,,,,,right,1,10,30,40,0,618.1073551,618.1073551,618.1073551,None,None,1,1,0.1037245,,,,,,,,,,,,,,,,,,,,,,10,P1,2,2024-09-27_12h41.39.153,uWM_experiment,2022.2.3,119.9239203
,,,,,,,,,,,,,,,,,,,,0,0,0,0,14,0,14,0,,,,,,,,,,,,,,,,,,,,,,,,,,,,,,,,,,,,,,,,,,,,,,,,,,,,,,,,,,,,,,,,,,,,,0.065,,,,,,,,,,,,,,,,,,,,,,,,,,,,left,1,70,-30,40,1,623.8243152,623.8243152,623.8243152,None,None,1,1,0.1307367,,,,,,,,,,,,,,,,,,,,,,10,P1,2,2024-09-27_12h41.39.153,uWM_experiment,2022.2.3,119.9239203
,,,,,,,,,,,,,,,,,,,,0,0,0,0,15,0,15,0,,,,,,,,,,,,,,,,,,,,,,,,,,,,,,,,,,,,,,,,,,,,,,,,,,,,,,,,,,,,,,,,,,,,,0,,,,,,,,,,,,,,,,,,,,,,,,,,,,left,0,160,30,190,0,631.2580497,631.2580497,631.2580497,None,None,1,1,0.1129984,,,,,,,,,,,,,,,,,,,,,,10,P1,2,2024-09-27_12h41.39.153,uWM_experiment,2022.2.3,119.9239203
,,,,,,,,,,,,,,,,,,,,0,0,0,0,16,0,16,0,,,,,,,,,,,,,,,,,,,,,,,,,,,,,,,,,,,,,,,,,,,,,,,,,,,,,,,,,,,,,,,,,,,,,0,,,,,,,,,,,,,,,,,,,,,,,,,,,,right,0,100,-30,70,0,637.8083818,637.8083818,637.8083818,None,None,1,1,0.1227597,,,,,,,,,,,,,,,,,,,,,,10,P1,2,2024-09-27_12h41.39.153,uWM_experiment,2022.2.3,119.9239203
,,,,,,,,,,,,,,,,,,,,0,0,0,0,17,0,17,0,,,,,,,,,,,,,,,,,,,,,,,,,,,,,,,,,,,,,,,,,,,,,,,,,,,,,,,,,,,,,,,,,,,,,0.075,,,,,,,,,,,,,,,,,,,,,,,,,,,,right,1,10,30,40,1,643.5503602,643.5503602,643.5503602,None,None,2,0,0.8206831,,,,,,,,,,,,,,,,,,,,,,10,P1,2,2024-09-27_12h41.39.153,uWM_experiment,2022.2.3,119.9239203
,,,,,,,,,,,,,,,,,,,,0,0,0,0,18,0,18,0,,,,,,,,,,,,,,,,,,,,,,,,,,,,,,,,,,,,,,,,,,,,,,,,,,,,,,,,,,,,,,,,,,,,,0.065,,,,,,,,,,,,,,,,,,,,,,,,,,,,right,1,130,30,160,1,650.0257261,650.0257261,650.0257261,None,None,2,0,0.5453467,,,,,,,,,,,,,,,,,,,,,,10,P1,2,2024-09-27_12h41.39.153,uWM_experiment,2022.2.3,119.9239203
,,,,,,,,,,,,,,,,,,,,0,0,0,0,19,0,19,0,,,,,,,,,,,,,,,,,,,,,,,,,,,,,,,,,,,,,,,,,,,,,,,,,,,,,,,,,,,,,,,,,,,,,0,,,,,,,,,,,,,,,,,,,,,,,,,,,,right,1,70,30,100,0,658.6178207,658.6178207,658.6178207,None,None,1,1,0.1211936,,,,,,,,,,,,,,,,,,,,,,10,P1,2,2024-09-27_12h41.39.153,uWM_experiment,2022.2.3,119.9239203
,,,,,,,,,,,,,,,,,,,,0,0,0,0,20,0,20,0,,,,,,,,,,,,,,,,,,,,,,,,,,,,,,,,,,,,,,,,,,,,,,,,,,,,,,,,,,,,,,,,,,,,,0.055,,,,,,,,,,,,,,,,,,,,,,,,,,,,right,1,130,30,160,1,664.4348015,664.4348015,664.4348015,None,None,2,0,0.1601746,,,,,,,,,,,,,,,,,,,,,,10,P1,2,2024-09-27_12h41.39.153,uWM_experiment,2022.2.3,119.9239203
,,,,,,,,,,,,,,,,,,,,0,0,0,0,21,0,21,0,,,,,,,,,,,,,,,,,,,,,,,,,,,,,,,,,,,,,,,,,,,,,,,,,,,,,,,,,,,,,,,,,,,,,0.045,,,,,,,,,,,,,,,,,,,,,,,,,,,,right,1,130,30,160,1,670.1517863,670.1517863,670.1517863,None,None,2,0,0.1153507,,,,,,,,,,,,,,,,,,,,,,10,P1,2,2024-09-27_12h41.39.153,uWM_experiment,2022.2.3,119.9239203
,,,,,,,,,,,,,,,,,,,,0,0,0,0,22,0,22,0,,,,,,,,,,,,,,,,,,,,,,,,,,,,,,,,,,,,,,,,,,,,,,,,,,,,,,,,,,,,,,,,,,,,,0.035,,,,,,,,,,,,,,,,,,,,,,,,,,,,right,1,10,30,40,1,676.0270764,676.0270764,676.0270764,None,None,1,1,0.0800213,,,,,,,,,,,,,,,,,,,,,,10,P1,2,2024-09-27_12h41.39.153,uWM_experiment,2022.2.3,119.9239203
,,,,,,,,,,,,,,,,,,,,0,0,0,0,23,0,23,0,,,,,,,,,,,,,,,,,,,,,,,,,,,,,,,,,,,,,,,,,,,,,,,,,,,,,,,,,,,,,,,,,,,,,0.045,,,,,,,,,,,,,,,,,,,,,,,,,,,,left,0,160,30,190,1,682.1690724,682.1690724,682.1690724,None,None,1,1,0.0979005,,,,,,,,,,,,,,,,,,,,,,10,P1,2,2024-09-27_12h41.39.153,uWM_experiment,2022.2.3,119.9239203
,,,,,,,,,,,,,,,,,,,,0,0,0,0,,,,,0,0,0,0,,,,,,,,,,,,,,,,,,,,,,,,,,,,,,,,,,,,,,,,,,,,,,,,,,,,,,,,,,,,,,,,,,,,,,,,,,,,,,,,,,,,,,,,,,,,,,,,,,,,,,,,,,,682.2857273,682.2857273,space,1.5013585,None,None,,,,,,,,,,,,,,,,10,P1,2,2024-09-27_12h41.39.153,uWM_experiment,2022.2.3,119.9239203
,,,,,,,,,,,,,,,,,,,,0,0,0,0,,,,,1,0,1,0,,,,,,,,,,,,,,,,,,,,,,,,,,,,,,,,,,,,,,,,,,,,,,,,,,,,,,,,,,,,,,,,,,,,,,,,,,,,,,,,,,,,,,,,,,,,,,,,,,,,,,,,,,,,,,,,,,,,,,,,,,,,,,,,10,P1,2,2024-09-27_12h41.39.153,uWM_experiment,2022.2.3,119.9239203
,,,,,,,,,,,,,,,,,,,,0,0,0,0,,,,,2,0,2,0,,,,,,,,,,,,,,,,,,,,,,,,,,,,,,,,,,,,,,,,,,,,,,,,,,,,,,,,,,,,,,,,,,,,,,,,,,,,,,,,,,,,,,,,,,,,,,,,,,,,,,,,,,,,,,,,,,,,,,,,,,,,,,,,10,P1,2,2024-09-27_12h41.39.153,uWM_experiment,2022.2.3,119.9239203
,,,,,,,,,,,,,,,,,,,,1,0,1,0,0,0,0,0,,,,,,,,,,,,,,,,,,,,,,,,,,,,,,,,,,,,,,,,,,,,,,,,,,,,,,,,,,,,,,,,,,,,,0.055,,,,,,,,,,,,,,,,,,,,683.8108164,684.5108517,684.8108723,685.5109122,685.8109415,686.5109609,686.5109609,686.8359858,left,1,130,-30,100,1,691.8029124,691.8029124,691.8029124,None,None,1,1,0.0721777,,,,,,,None,,,,,,,,,,,,,,,10,P1,2,2024-09-27_12h41.39.153,uWM_experiment,2022.2.3,119.9239203
,,,,,,,,,,,,,,,,,,,,1,0,1,0,1,0,1,0,,,,,,,,,,,,,,,,,,,,,,,,,,,,,,,,,,,,,,,,,,,,,,,,,,,,,,,,,,,,,,,,,,,,,0.065,,,,,,,,,,,,,,,,,,,,,,,,,,,,right,0,100,-30,70,1,697.6198809,697.6198809,697.6198809,None,None,1,1,0.0711916,,,,,,,,,,,,,,,,,,,,,,10,P1,2,2024-09-27_12h41.39.153,uWM_experiment,2022.2.3,119.9239203
,,,,,,,,,,,,,,,,,,,,1,0,1,0,2,0,2,0,,,,,,,,,,,,,,,,,,,,,,,,,,,,,,,,,,,,,,,,,,,,,,,,,,,,,,,,,,,,,,,,,,,,,0.075,,,,,,,,,,,,,,,,,,,,,,,,,,,,left,1,100,-30,70,1,704.7952882,704.7952882,704.7952882,None,None,1,1,0.1115882,,,,,,,,,,,,,,,,,,,,,,10,P1,2,2024-09-27_12h41.39.153,uWM_experiment,2022.2.3,119.9239203
,,,,,,,,,,,,,,,,,,,,1,0,1,0,3,0,3,0,,,,,,,,,,,,,,,,,,,,,,,,,,,,,,,,,,,,,,,,,,,,,,,,,,,,,,,,,,,,,,,,,,,,,0.085,,,,,,,,,,,,,,,,,,,,,,,,,,,,right,1,160,30,190,1,710.7705821,710.7705821,710.7705821,None,None,2,0,0.0804351,,,,,,,,,,,,,,,,,,,,,,10,P1,2,2024-09-27_12h41.39.153,uWM_experiment,2022.2.3,119.9239203
,,,,,,,,,,,,,,,,,,,,1,0,1,0,4,0,4,0,,,,,,,,,,,,,,,,,,,,,,,,,,,,,,,,,,,,,,,,,,,,,,,,,,,,,,,,,,,,,,,,,,,,,0.075,,,,,,,,,,,,,,,,,,,,,,,,,,,,left,1,40,-30,10,1,718.5709917,718.5709917,718.5709917,None,None,1,1,0.0720639,,,,,,,,,,,,,,,,,,,,,,10,P1,2,2024-09-27_12h41.39.153,uWM_experiment,2022.2.3,119.9239203
,,,,,,,,,,,,,,,,,,,,1,0,1,0,5,0,5,0,,,,,,,,,,,,,,,,,,,,,,,,,,,,,,,,,,,,,,,,,,,,,,,,,,,,,,,,,,,,,,,,,,,,,0,,,,,,,,,,,,,,,,,,,,,,,,,,,,left,0,130,30,160,0,724.4212954,724.4212954,724.4212954,None,None,1,1,0.0777247,,,,,,,,,,,,,,,,,,,,,,10,P1,2,2024-09-27_12h41.39.153,uWM_experiment,2022.2.3,119.9239203
,,,,,,,,,,,,,,,,,,,,1,0,1,0,6,0,6,0,,,,,,,,,,,,,,,,,,,,,,,,,,,,,,,,,,,,,,,,,,,,,,,,,,,,,,,,,,,,,,,,,,,,,0,,,,,,,,,,,,,,,,,,,,,,,,,,,,right,1,10,30,40,0,730.4716041,730.4716041,730.4716041,None,None,1,1,0.0593217,,,,,,,,,,,,,,,,,,,,,,10,P1,2,2024-09-27_12h41.39.153,uWM_experiment,2022.2.3,119.9239203
,,,,,,,,,,,,,,,,,,,,1,0,1,0,7,0,7,0,,,,,,,,,,,,,,,,,,,,,,,,,,,,,,,,,,,,,,,,,,,,,,,,,,,,,,,,,,,,,,,,,,,,,0.085,,,,,,,,,,,,,,,,,,,,,,,,,,,,right,1,160,30,190,1,736.0969206,736.0969206,736.0969206,None,None,1,1,0.2179507,,,,,,,,,,,,,,,,,,,,,,10,P1,2,2024-09-27_12h41.39.153,uWM_experiment,2022.2.3,119.9239203
,,,,,,,,,,,,,,,,,,,,1,0,1,0,8,0,8,0,,,,,,,,,,,,,,,,,,,,,,,,,,,,,,,,,,,,,,,,,,,,,,,,,,,,,,,,,,,,,,,,,,,,,0,,,,,,,,,,,,,,,,,,,,,,,,,,,,right,0,40,-30,10,0,742.4639206,742.4639206,742.4639206,None,None,1,1,0.0590565,,,,,,,,,,,,,,,,,,,,,,10,P1,2,2024-09-27_12h41.39.153,uWM_experiment,2022.2.3,119.9239203
,,,,,,,,,,,,,,,,,,,,1,0,1,0,9,0,9,0,,,,,,,,,,,,,,,,,,,,,,,,,,,,,,,,,,,,,,,,,,,,,,,,,,,,,,,,,,,,,,,,,,,,,0.095,,,,,,,,,,,,,,,,,,,,,,,,,,,,right,1,130,30,160,1,750.2893146,750.2893146,750.2893146,None,None,2,0,0.0496313,,,,,,,,,,,,,,,,,,,,,,10,P1,2,2024-09-27_12h41.39.153,uWM_experiment,2022.2.3,119.9239203
,,,,,,,,,,,,,,,,,,,,1,0,1,0,10,0,10,0,,,,,,,,,,,,,,,,,,,,,,,,,,,,,,,,,,,,,,,,,,,,,,,,,,,,,,,,,,,,,,,,,,,,,0,,,,,,,,,,,,,,,,,,,,,,,,,,,,left,1,160,-30,130,0,756.8063395,756.8063395,756.8063395,None,None,1,1,0.0686459,,,,,,,,,,,,,,,,,,,,,,10,P1,2,2024-09-27_12h41.39.153,uWM_experiment,2022.2.3,119.9239203
,,,,,,,,,,,,,,,,,,,,1,0,1,0,11,0,11,0,,,,,,,,,,,,,,,,,,,,,,,,,,,,,,,,,,,,,,,,,,,,,,,,,,,,,,,,,,,,,,,,,,,,,0.085,,,,,,,,,,,,,,,,,,,,,,,,,,,,left,1,40,-30,10,1,762.6316736,762.6316736,762.6316736,None,None,2,0,0.0432713,,,,,,,,,,,,,,,,,,,,,,10,P1,2,2024-09-27_12h41.39.153,uWM_experiment,2022.2.3,119.9239203
,,,,,,,,,,,,,,,,,,,,1,0,1,0,12,0,12,0,,,,,,,,,,,,,,,,,,,,,,,,,,,,,,,,,,,,,,,,,,,,,,,,,,,,,,,,,,,,,,,,,,,,,0.075,,,,,,,,,,,,,,,,,,,,,,,,,,,,right,1,70,30,100,1,769.5319989,769.5319989,769.5319989,None,None,2,0,0.0549884,,,,,,,,,,,,,,,,,,,,,,10,P1,2,2024-09-27_12h41.39.153,uWM_experiment,2022.2.3,119.9239203
,,,,,,,,,,,,,,,,,,,,1,0,1,0,13,0,13,0,,,,,,,,,,,,,,,,,,,,,,,,,,,,,,,,,,,,,,,,,,,,,,,,,,,,,,,,,,,,,,,,,,,,,0.065,,,,,,,,,,,,,,,,,,,,,,,,,,,,right,1,40,30,70,1,776.9740807,776.9740807,776.9740807,None,None,2,0,0.060712,,,,,,,,,,,,,,,,,,,,,,10,P1,2,2024-09-27_12h41.39.153,uWM_experiment,2022.2.3,119.9239203
,,,,,,,,,,,,,,,,,,,,1,0,1,0,14,0,14,0,,,,,,,,,,,,,,,,,,,,,,,,,,,,,,,,,,,,,,,,,,,,,,,,,,,,,,,,,,,,,,,,,,,,,0.055,,,,,,,,,,,,,,,,,,,,,,,,,,,,right,1,70,30,100,1,782.8827222,782.8827222,782.8827222,None,None,2,0,0.0642807,,,,,,,,,,,,,,,,,,,,,,10,P1,2,2024-09-27_12h41.39.153,uWM_experiment,2022.2.3,119.9239203
,,,,,,,,,,,,,,,,,,,,1,0,1,0,15,0,15,0,,,,,,,,,,,,,,,,,,,,,,,,,,,,,,,,,,,,,,,,,,,,,,,,,,,,,,,,,,,,,,,,,,,,,0.045,,,,,,,,,,,,,,,,,,,,,,,,,,,,left,1,100,-30,70,1,791.4915304,791.4915304,791.4915304,None,None,2,0,0.0394527,,,,,,,,,,,,,,,,,,,,,,10,P1,2,2024-09-27_12h41.39.153,uWM_experiment,2022.2.3,119.9239203
,,,,,,,,,,,,,,,,,,,,1,0,1,0,16,0,16,0,,,,,,,,,,,,,,,,,,,,,,,,,,,,,,,,,,,,,,,,,,,,,,,,,,,,,,,,,,,,,,,,,,,,,0.1,,,,,,,,,,,,,,,,,,,,,,,,,,,,left,0,10,30,40,2,798.7418973,798.7418973,798.7418973,None,None,1,1,0.6849223,,,,,,,,,,,,,,,,,,,,,,10,P1,2,2024-09-27_12h41.39.153,uWM_experiment,2022.2.3,119.9239203
,,,,,,,,,,,,,,,,,,,,1,0,1,0,17,0,17,0,,,,,,,,,,,,,,,,,,,,,,,,,,,,,,,,,,,,,,,,,,,,,,,,,,,,,,,,,,,,,,,,,,,,,0.035,,,,,,,,,,,,,,,,,,,,,,,,,,,,left,0,100,30,130,1,806.5923197,806.5923197,806.5923197,None,None,1,1,0.0825604,,,,,,,,,,,,,,,,,,,,,,10,P1,2,2024-09-27_12h41.39.153,uWM_experiment,2022.2.3,119.9239203
,,,,,,,,,,,,,,,,,,,,1,0,1,0,18,0,18,0,,,,,,,,,,,,,,,,,,,,,,,,,,,,,,,,,,,,,,,,,,,,,,,,,,,,,,,,,,,,,,,,,,,,,0,,,,,,,,,,,,,,,,,,,,,,,,,,,,left,1,130,-30,100,0,812.634323,812.634323,812.634323,None,None,1,1,0.0965244,,,,,,,,,,,,,,,,,,,,,,10,P1,2,2024-09-27_12h41.39.153,uWM_experiment,2022.2.3,119.9239203
,,,,,,,,,,,,,,,,,,,,1,0,1,0,19,0,19,0,,,,,,,,,,,,,,,,,,,,,,,,,,,,,,,,,,,,,,,,,,,,,,,,,,,,,,,,,,,,,,,,,,,,,0.045,,,,,,,,,,,,,,,,,,,,,,,,,,,,left,1,160,-30,130,1,818.5096042,818.5096042,818.5096042,None,None,2,0,0.1572731,,,,,,,,,,,,,,,,,,,,,,10,P1,2,2024-09-27_12h41.39.153,uWM_experiment,2022.2.3,119.9239203
,,,,,,,,,,,,,,,,,,,,1,0,1,0,20,0,20,0,,,,,,,,,,,,,,,,,,,,,,,,,,,,,,,,,,,,,,,,,,,,,,,,,,,,,,,,,,,,,,,,,,,,,0.035,,,,,,,,,,,,,,,,,,,,,,,,,,,,left,1,130,-30,100,1,829.2851851,829.2851851,829.2851851,None,None,2,0,0.0455621,,,,,,,,,,,,,,,,,,,,,,10,P1,2,2024-09-27_12h41.39.153,uWM_experiment,2022.2.3,119.9239203
,,,,,,,,,,,,,,,,,,,,1,0,1,0,21,0,21,0,,,,,,,,,,,,,,,,,,,,,,,,,,,,,,,,,,,,,,,,,,,,,,,,,,,,,,,,,,,,,,,,,,,,,0.025,,,,,,,,,,,,,,,,,,,,,,,,,,,,left,1,130,-30,100,1,835.2104931,835.2104931,835.2104931,None,None,2,0,0.0481836,,,,,,,,,,,,,,,,,,,,,,10,P1,2,2024-09-27_12h41.39.153,uWM_experiment,2022.2.3,119.9239203
,,,,,,,,,,,,,,,,,,,,1,0,1,0,22,0,22,0,,,,,,,,,,,,,,,,,,,,,,,,,,,,,,,,,,,,,,,,,,,,,,,,,,,,,,,,,,,,,,,,,,,,,0.015,,,,,,,,,,,,,,,,,,,,,,,,,,,,right,0,100,-30,70,1,840.9774771,840.9774771,840.9774771,None,None,1,1,0.6172146,,,,,,,,,,,,,,,,,,,,,,10,P1,2,2024-09-27_12h41.39.153,uWM_experiment,2022.2.3,119.9239203
,,,,,,,,,,,,,,,,,,,,1,0,1,0,23,0,23,0,,,,,,,,,,,,,,,,,,,,,,,,,,,,,,,,,,,,,,,,,,,,,,,,,,,,,,,,,,,,,,,,,,,,,0.025,,,,,,,,,,,,,,,,,,,,,,,,,,,,right,0,10,-30,-20,1,848.2111594,848.2111594,848.2111594,None,None,1,1,0.0796461,,,,,,,,,,,,,,,,,,,,,,10,P1,2,2024-09-27_12h41.39.153,uWM_experiment,2022.2.3,119.9239203
,,,,,,,,,,,,,,,,,,,,1,0,1,0,,,,,0,0,0,0,,,,,,,,,,,,,,,,,,,,,,,,,,,,,,,,,,,,,,,,,,,,,,,,,,,,,,,,,,,,,,,,,,,,,,,,,,,,,,,,,,,,,,,,,,,,,,,,,,,,,,,,,,,848.3111688,848.3111688,space,12.763649,None,None,,,,,,,,,,,,,,,,10,P1,2,2024-09-27_12h41.39.153,uWM_experiment,2022.2.3,119.9239203
,,,,,,,,,,,,,,,,,,,,1,0,1,0,,,,,1,0,1,0,,,,,,,,,,,,,,,,,,,,,,,,,,,,,,,,,,,,,,,,,,,,,,,,,,,,,,,,,,,,,,,,,,,,,,,,,,,,,,,,,,,,,,,,,,,,,,,,,,,,,,,,,,,,,,,,,,,,,,,,,,,,,,,,10,P1,2,2024-09-27_12h41.39.153,uWM_experiment,2022.2.3,119.9239203
,,,,,,,,,,,,,,,,,,,,1,0,1,0,,,,,2,0,2,0,,,,,,,,,,,,,,,,,,,,,,,,,,,,,,,,,,,,,,,,,,,,,,,,,,,,,,,,,,,,,,,,,,,,,,,,,,,,,,,,,,,,,,,,,,,,,,,,,,,,,,,,,,,,,,,,,,,,,,,,,,,,,,,,10,P1,2,2024-09-27_12h41.39.153,uWM_experiment,2022.2.3,119.9239203
,,,,,,,,,,,,,,,,,,,,2,0,2,0,0,0,0,0,,,,,,,,,,,,,,,,,,,,,,,,,,,,,,,,,,,,,,,,,,,,,,,,,,,,,,,,,,,,,,,,,,,,,0.035,,,,,,,,,,,,,,,,,,,,861.0951916,861.7952274,862.095221,862.7952772,863.0952976,863.7953298,863.7953298,864.1120175,left,1,160,-30,130,1,868.9872766,868.9872766,868.9872766,None,None,1,1,0.0634636,,,,,,,None,,,,,,,,,,,,,,,10,P1,2,2024-09-27_12h41.39.153,uWM_experiment,2022.2.3,119.9239203
,,,,,,,,,,,,,,,,,,,,2,0,2,0,1,0,1,0,,,,,,,,,,,,,,,,,,,,,,,,,,,,,,,,,,,,,,,,,,,,,,,,,,,,,,,,,,,,,,,,,,,,,0.045,,,,,,,,,,,,,,,,,,,,,,,,,,,,left,0,100,30,130,1,875.2292766,875.2292766,875.2292766,None,None,1,1,0.0774533,,,,,,,,,,,,,,,,,,,,,,10,P1,2,2024-09-27_12h41.39.153,uWM_experiment,2022.2.3,119.9239203
,,,,,,,,,,,,,,,,,,,,2,0,2,0,2,0,2,0,,,,,,,,,,,,,,,,,,,,,,,,,,,,,,,,,,,,,,,,,,,,,,,,,,,,,,,,,,,,,,,,,,,,,0.055,,,,,,,,,,,,,,,,,,,,,,,,,,,,left,0,160,30,190,1,884.21308,884.21308,884.21308,None,None,2,0,1.4455488,,,,,,,,,,,,,,,,,,,,,,10,P1,2,2024-09-27_12h41.39.153,uWM_experiment,2022.2.3,119.9239203
,,,,,,,,,,,,,,,,,,,,2,0,2,0,3,0,3,0,,,,,,,,,,,,,,,,,,,,,,,,,,,,,,,,,,,,,,,,,,,,,,,,,,,,,,,,,,,,,,,,,,,,,0.045,,,,,,,,,,,,,,,,,,,,,,,,,,,,right,1,130,30,160,1,891.488458,891.488458,891.488458,None,None,2,0,0.1221055,,,,,,,,,,,,,,,,,,,,,,10,P1,2,2024-09-27_12h41.39.153,uWM_experiment,2022.2.3,119.9239203
,,,,,,,,,,,,,,,,,,,,2,0,2,0,4,0,4,0,,,,,,,,,,,,,,,,,,,,,,,,,,,,,,,,,,,,,,,,,,,,,,,,,,,,,,,,,,,,,,,,,,,,,0.1,,,,,,,,,,,,,,,,,,,,,,,,,,,,left,1,40,-30,10,2,897.7054661,897.7054661,897.7054661,None,None,3,0,0.6252114,,,,,,,,,,,,,,,,,,,,,,10,P1,2,2024-09-27_12h41.39.153,uWM_experiment,2022.2.3,119.9239203
,,,,,,,,,,,,,,,,,,,,2,0,2,0,5,0,5,0,,,,,,,,,,,,,,,,,,,,,,,,,,,,,,,,,,,,,,,,,,,,,,,,,,,,,,,,,,,,,,,,,,,,,0.035,,,,,,,,,,,,,,,,,,,,,,,,,,,,left,1,160,-30,130,1,904.1557963,904.1557963,904.1557963,None,None,2,0,0.7108183,,,,,,,,,,,,,,,,,,,,,,10,P1,2,2024-09-27_12h41.39.153,uWM_experiment,2022.2.3,119.9239203
,,,,,,,,,,,,,,,,,,,,2,0,2,0,6,0,6,0,,,,,,,,,,,,,,,,,,,,,,,,,,,,,,,,,,,,,,,,,,,,,,,,,,,,,,,,,,,,,,,,,,,,,0.025,,,,,,,,,,,,,,,,,,,,,,,,,,,,right,0,70,-30,40,1,910.722816,910.722816,910.722816,None,None,2,0,0.8158218,,,,,,,,,,,,,,,,,,,,,,10,P1,2,2024-09-27_12h41.39.153,uWM_experiment,2022.2.3,119.9239203
,,,,,,,,,,,,,,,,,,,,2,0,2,0,7,0,7,0,,,,,,,,,,,,,,,,,,,,,,,,,,,,,,,,,,,,,,,,,,,,,,,,,,,,,,,,,,,,,,,,,,,,,0,,,,,,,,,,,,,,,,,,,,,,,,,,,,left,1,130,-30,100,0,918.0815376,918.0815376,918.0815376,None,None,1,1,0.0969879,,,,,,,,,,,,,,,,,,,,,,10,P1,2,2024-09-27_12h41.39.153,uWM_experiment,2022.2.3,119.9239203
,,,,,,,,,,,,,,,,,,,,2,0,2,0,8,0,8,0,,,,,,,,,,,,,,,,,,,,,,,,,,,,,,,,,,,,,,,,,,,,,,,,,,,,,,,,,,,,,,,,,,,,,0.015,,,,,,,,,,,,,,,,,,,,,,,,,,,,left,1,40,-30,10,1,925.0402448,925.0402448,925.0402448,None,None,1,1,0.1062898,,,,,,,,,,,,,,,,,,,,,,10,P1,2,2024-09-27_12h41.39.153,uWM_experiment,2022.2.3,119.9239203
,,,,,,,,,,,,,,,,,,,,2,0,2,0,9,0,9,0,,,,,,,,,,,,,,,,,,,,,,,,,,,,,,,,,,,,,,,,,,,,,,,,,,,,,,,,,,,,,,,,,,,,,0.025,,,,,,,,,,,,,,,,,,,,,,,,,,,,left,1,40,-30,10,1,931.3989121,931.3989121,931.3989121,None,None,2,0,0.0755954,,,,,,,,,,,,,,,,,,,,,,10,P1,2,2024-09-27_12h41.39.153,uWM_experiment,2022.2.3,119.9239203
,,,,,,,,,,,,,,,,,,,,2,0,2,0,10,0,10,0,,,,,,,,,,,,,,,,,,,,,,,,,,,,,,,,,,,,,,,,,,,,,,,,,,,,,,,,,,,,,,,,,,,,,0.1,,,,,,,,,,,,,,,,,,,,,,,,,,,,right,1,160,30,190,2,937.5242406,937.5242406,937.5242406,None,None,4,0,0.7744381,,,,,,,,,,,,,,,,,,,,,,10,P1,2,2024-09-27_12h41.39.153,uWM_experiment,2022.2.3,119.9239203
,,,,,,,,,,,,,,,,,,,,2,0,2,0,11,0,11,0,,,,,,,,,,,,,,,,,,,,,,,,,,,,,,,,,,,,,,,,,,,,,,,,,,,,,,,,,,,,,,,,,,,,,0.1,,,,,,,,,,,,,,,,,,,,,,,,,,,,right,1,130,30,160,2,944.2162579,944.2162579,944.2162579,None,None,4,0,0.2503335,,,,,,,,,,,,,,,,,,,,,,10,P1,2,2024-09-27_12h41.39.153,uWM_experiment,2022.2.3,119.9239203
,,,,,,,,,,,,,,,,,,,,2,0,2,0,12,0,12,0,,,,,,,,,,,,,,,,,,,,,,,,,,,,,,,,,,,,,,,,,,,,,,,,,,,,,,,,,,,,,,,,,,,,,0.015,,,,,,,,,,,,,,,,,,,,,,,,,,,,right,1,160,30,190,1,951.6416466,951.6416466,951.6416466,None,None,1,1,0.1929087,,,,,,,,,,,,,,,,,,,,,,10,P1,2,2024-09-27_12h41.39.153,uWM_experiment,2022.2.3,119.9239203
,,,,,,,,,,,,,,,,,,,,2,0,2,0,13,0,13,0,,,,,,,,,,,,,,,,,,,,,,,,,,,,,,,,,,,,,,,,,,,,,,,,,,,,,,,,,,,,,,,,,,,,,0,,,,,,,,,,,,,,,,,,,,,,,,,,,,left,1,130,-30,100,0,959.8587531,959.8587531,959.8587531,None,None,1,1,0.0798603,,,,,,,,,,,,,,,,,,,,,,10,P1,2,2024-09-27_12h41.39.153,uWM_experiment,2022.2.3,119.9239203
,,,,,,,,,,,,,,,,,,,,2,0,2,0,14,0,14,0,,,,,,,,,,,,,,,,,,,,,,,,,,,,,,,,,,,,,,,,,,,,,,,,,,,,,,,,,,,,,,,,,,,,,0.1,,,,,,,,,,,,,,,,,,,,,,,,,,,,left,1,10,-30,-20,2,968.1925246,968.1925246,968.1925246,None,None,1,1,0.0819683,,,,,,,,,,,,,,,,,,,,,,10,P1,2,2024-09-27_12h41.39.153,uWM_experiment,2022.2.3,119.9239203
,,,,,,,,,,,,,,,,,,,,2,0,2,0,15,0,15,0,,,,,,,,,,,,,,,,,,,,,,,,,,,,,,,,,,,,,,,,,,,,,,,,,,,,,,,,,,,,,,,,,,,,,0.025,,,,,,,,,,,,,,,,,,,,,,,,,,,,left,1,160,-30,130,1,974.3845231,974.3845231,974.3845231,None,None,1,1,0.0660986,,,,,,,,,,,,,,,,,,,,,,10,P1,2,2024-09-27_12h41.39.153,uWM_experiment,2022.2.3,119.9239203
,,,,,,,,,,,,,,,,,,,,2,0,2,0,16,0,16,0,,,,,,,,,,,,,,,,,,,,,,,,,,,,,,,,,,,,,,,,,,,,,,,,,,,,,,,,,,,,,,,,,,,,,0.035,,,,,,,,,,,,,,,,,,,,,,,,,,,,right,1,10,30,40,1,982.3349568,982.3349568,982.3349568,None,None,2,0,0.2194669,,,,,,,,,,,,,,,,,,,,,,10,P1,2,2024-09-27_12h41.39.153,uWM_experiment,2022.2.3,119.9239203
,,,,,,,,,,,,,,,,,,,,2,0,2,0,17,0,17,0,,,,,,,,,,,,,,,,,,,,,,,,,,,,,,,,,,,,,,,,,,,,,,,,,,,,,,,,,,,,,,,,,,,,,0.025,,,,,,,,,,,,,,,,,,,,,,,,,,,,left,0,100,30,130,1,988.8686157,988.8686157,988.8686157,None,None,1,1,0.1098331,,,,,,,,,,,,,,,,,,,,,,10,P1,2,2024-09-27_12h41.39.153,uWM_experiment,2022.2.3,119.9239203
,,,,,,,,,,,,,,,,,,,,2,0,2,0,18,0,18,0,,,,,,,,,,,,,,,,,,,,,,,,,,,,,,,,,,,,,,,,,,,,,,,,,,,,,,,,,,,,,,,,,,,,,0.035,,,,,,,,,,,,,,,,,,,,,,,,,,,,left,1,10,-30,-20,1,994.2272461,994.2272461,994.2272461,None,None,1,1,0.0791154,,,,,,,,,,,,,,,,,,,,,,10,P1,2,2024-09-27_12h41.39.153,uWM_experiment,2022.2.3,119.9239203
,,,,,,,,,,,,,,,,,,,,2,0,2,0,19,0,19,0,,,,,,,,,,,,,,,,,,,,,,,,,,,,,,,,,,,,,,,,,,,,,,,,,,,,,,,,,,,,,,,,,,,,,0,,,,,,,,,,,,,,,,,,,,,,,,,,,,left,0,10,30,40,0,1000.0942,1000.0942,1000.0942,None,None,1,1,0.0603975,,,,,,,,,,,,,,,,,,,,,,10,P1,2,2024-09-27_12h41.39.153,uWM_experiment,2022.2.3,119.9239203
,,,,,,,,,,,,,,,,,,,,2,0,2,0,20,0,20,0,,,,,,,,,,,,,,,,,,,,,,,,,,,,,,,,,,,,,,,,,,,,,,,,,,,,,,,,,,,,,,,,,,,,,0.045,,,,,,,,,,,,,,,,,,,,,,,,,,,,left,1,40,-30,10,1,1005.869768,1005.869768,1005.869768,None,None,1,1,0.060655,,,,,,,,,,,,,,,,,,,,,,10,P1,2,2024-09-27_12h41.39.153,uWM_experiment,2022.2.3,119.9239203
,,,,,,,,,,,,,,,,,,,,2,0,2,0,21,0,21,0,,,,,,,,,,,,,,,,,,,,,,,,,,,,,,,,,,,,,,,,,,,,,,,,,,,,,,,,,,,,,,,,,,,,,0.055,,,,,,,,,,,,,,,,,,,,,,,,,,,,right,1,130,30,160,1,1011.844834,1011.844834,1011.844834,None,None,2,0,0.0855518,,,,,,,,,,,,,,,,,,,,,,10,P1,2,2024-09-27_12h41.39.153,uWM_experiment,2022.2.3,119.9239203
,,,,,,,,,,,,,,,,,,,,2,0,2,0,22,0,22,0,,,,,,,,,,,,,,,,,,,,,,,,,,,,,,,,,,,,,,,,,,,,,,,,,,,,,,,,,,,,,,,,,,,,,0.045,,,,,,,,,,,,,,,,,,,,,,,,,,,,left,1,70,-30,40,1,1017.720145,1017.720145,1017.720145,None,None,2,0,0.058408,,,,,,,,,,,,,,,,,,,,,,10,P1,2,2024-09-27_12h41.39.153,uWM_experiment,2022.2.3,119.9239203
,,,,,,,,,,,,,,,,,,,,2,0,2,0,23,0,23,0,,,,,,,,,,,,,,,,,,,,,,,,,,,,,,,,,,,,,,,,,,,,,,,,,,,,,,,,,,,,,,,,,,,,,0,,,,,,,,,,,,,,,,,,,,,,,,,,,,left,0,130,30,160,0,1024.495502,1024.495502,1024.495502,None,None,1,1,0.0348843,,,,,,,,,,,,,,,,,,,,,,10,P1,2,2024-09-27_12h41.39.153,uWM_experiment,2022.2.3,119.9239203
,,,,,,,,,,,,,,,,,,,,2,0,2,0,,,,,0,0,0,0,,,,,,,,,,,,,,,,,,,,,,,,,,,,,,,,,,,,,,,,,,,,,,,,,,,,,,,,,,,,,,,,,,,,,,,,,,,,,,,,,,,,,,,,,,,,,,,,,,,,,,,,,,,1024.55383,1024.55383,space,7.6806383,space,None,,1032.254235,1032.254235,2.0602925,,,,,,,,,,,,10,P1,2,2024-09-27_12h41.39.153,uWM_experiment,2022.2.3,119.9239203
,,,,,,,,,,,,,,,,,,,,2,0,2,0,,,,,1,0,1,0,,,,,,,,,,,,,,,,,,,,,,,,,,,,,,,,,,,,,,,,,,,,,,,,,,,,,,,,,,,,,,,,,,,,,,,,,,,,,,,,,,,,,,,,,,,,,,,,,,,,,,,,,,,,,,,,,,,,,,,,,,,,,,,,10,P1,2,2024-09-27_12h41.39.153,uWM_experiment,2022.2.3,119.9239203
,,,,,,,,,,,,,,,,,,,,2,0,2,0,,,,,2,0,2,0,,,,,,,,,,,,,,,,,,,,,,,,,,,,,,,,,,,,,,,,,,,,,,,,,,,,,,,,,,,,,,,,,,,,,,,,,,,,,,,,,,,,,,,,,,,,,,,,,,,,,,,,,,,,,,,,,,,,,,,,,,,,,,,,10,P1,2,2024-09-27_12h41.39.153,uWM_experiment,2022.2.3,119.9239203
,,,,,,,,,,,,,,,,,,,,3,0,3,0,0,0,0,0,,,,,,,,,,,,,,,,,,,,,,,,,,,,,,,,,,,,,,,,,,,,,,,,,,,,,,,,,,,,,,,,,,,,,0,,,,,,,,,,,,,,,,,,,,1034.329352,1035.029389,1035.329426,1036.02944,1036.329459,1037.029486,1037.029486,1037.354496,right,1,40,30,70,0,1043.529849,1043.529849,1043.529849,None,None,1,1,0.0486366,,,,,,,None,,,,,,,,,,,,,,,10,P1,2,2024-09-27_12h41.39.153,uWM_experiment,2022.2.3,119.9239203
,,,,,,,,,,,,,,,,,,,,3,0,3,0,1,0,1,0,,,,,,,,,,,,,,,,,,,,,,,,,,,,,,,,,,,,,,,,,,,,,,,,,,,,,,,,,,,,,,,,,,,,,0,,,,,,,,,,,,,,,,,,,,,,,,,,,,right,0,10,-30,-20,0,1050.038523,1050.038523,1050.038523,None,None,1,1,0.0598262,,,,,,,,,,,,,,,,,,,,,,10,P1,2,2024-09-27_12h41.39.153,uWM_experiment,2022.2.3,119.9239203
,,,,,,,,,,,,,,,,,,,,3,0,3,0,2,0,2,0,,,,,,,,,,,,,,,,,,,,,,,,,,,,,,,,,,,,,,,,,,,,,,,,,,,,,,,,,,,,,,,,,,,,,0.035,,,,,,,,,,,,,,,,,,,,,,,,,,,,right,1,160,30,190,1,1056.188849,1056.188849,1056.188849,None,None,1,1,0.069492,,,,,,,,,,,,,,,,,,,,,,10,P1,2,2024-09-27_12h41.39.153,uWM_experiment,2022.2.3,119.9239203
,,,,,,,,,,,,,,,,,,,,3,0,3,0,3,0,3,0,,,,,,,,,,,,,,,,,,,,,,,,,,,,,,,,,,,,,,,,,,,,,,,,,,,,,,,,,,,,,,,,,,,,,0.045,,,,,,,,,,,,,,,,,,,,,,,,,,,,left,1,130,-30,100,1,1063.414227,1063.414227,1063.414227,None,None,1,1,0.1002689,,,,,,,,,,,,,,,,,,,,,,10,P1,2,2024-09-27_12h41.39.153,uWM_experiment,2022.2.3,119.9239203
,,,,,,,,,,,,,,,,,,,,3,0,3,0,4,0,4,0,,,,,,,,,,,,,,,,,,,,,,,,,,,,,,,,,,,,,,,,,,,,,,,,,,,,,,,,,,,,,,,,,,,,,0.055,,,,,,,,,,,,,,,,,,,,,,,,,,,,right,1,40,30,70,1,1069.372877,1069.372877,1069.372877,None,None,1,1,0.0854215,,,,,,,,,,,,,,,,,,,,,,10,P1,2,2024-09-27_12h41.39.153,uWM_experiment,2022.2.3,119.9239203
,,,,,,,,,,,,,,,,,,,,3,0,3,0,5,0,5,0,,,,,,,,,,,,,,,,,,,,,,,,,,,,,,,,,,,,,,,,,,,,,,,,,,,,,,,,,,,,,,,,,,,,,0.065,,,,,,,,,,,,,,,,,,,,,,,,,,,,right,1,160,30,190,1,1075.214832,1075.214832,1075.214832,None,None,2,0,0.0995279,,,,,,,,,,,,,,,,,,,,,,10,P1,2,2024-09-27_12h41.39.153,uWM_experiment,2022.2.3,119.9239203
,,,,,,,,,,,,,,,,,,,,3,0,3,0,6,0,6,0,,,,,,,,,,,,,,,,,,,,,,,,,,,,,,,,,,,,,,,,,,,,,,,,,,,,,,,,,,,,,,,,,,,,,0.055,,,,,,,,,,,,,,,,,,,,,,,,,,,,right,1,130,30,160,1,1081.348513,1081.348513,1081.348513,None,None,2,0,0.0458081,,,,,,,,,,,,,,,,,,,,,,10,P1,2,2024-09-27_12h41.39.153,uWM_experiment,2022.2.3,119.9239203
,,,,,,,,,,,,,,,,,,,,3,0,3,0,7,0,7,0,,,,,,,,,,,,,,,,,,,,,,,,,,,,,,,,,,,,,,,,,,,,,,,,,,,,,,,,,,,,,,,,,,,,,0,,,,,,,,,,,,,,,,,,,,,,,,,,,,right,1,10,30,40,0,1088.698892,1088.698892,1088.698892,None,None,1,1,0.1034742,,,,,,,,,,,,,,,,,,,,,,10,P1,2,2024-09-27_12h41.39.153,uWM_experiment,2022.2.3,119.9239203
,,,,,,,,,,,,,,,,,,,,3,0,3,0,8,0,8,0,,,,,,,,,,,,,,,,,,,,,,,,,,,,,,,,,,,,,,,,,,,,,,,,,,,,,,,,,,,,,,,,,,,,,0.045,,,,,,,,,,,,,,,,,,,,,,,,,,,,left,1,100,-30,70,1,1095.715929,1095.715929,1095.715929,None,None,1,1,0.070454,,,,,,,,,,,,,,,,,,,,,,10,P1,2,2024-09-27_12h41.39.153,uWM_experiment,2022.2.3,119.9239203
,,,,,,,,,,,,,,,,,,,,3,0,3,0,9,0,9,0,,,,,,,,,,,,,,,,,,,,,,,,,,,,,,,,,,,,,,,,,,,,,,,,,,,,,,,,,,,,,,,,,,,,,0.055,,,,,,,,,,,,,,,,,,,,,,,,,,,,left,1,70,-30,40,1,1101.757921,1101.757921,1101.757921,None,None,2,0,0.0604288,,,,,,,,,,,,,,,,,,,,,,10,P1,2,2024-09-27_12h41.39.153,uWM_experiment,2022.2.3,119.9239203
,,,,,,,,,,,,,,,,,,,,3,0,3,0,10,0,10,0,,,,,,,,,,,,,,,,,,,,,,,,,,,,,,,,,,,,,,,,,,,,,,,,,,,,,,,,,,,,,,,,,,,,,0.045,,,,,,,,,,,,,,,,,,,,,,,,,,,,left,1,70,-30,40,1,1107.524873,1107.524873,1107.524873,None,None,2,0,0.0613336,,,,,,,,,,,,,,,,,,,,,,10,P1,2,2024-09-27_12h41.39.153,uWM_experiment,2022.2.3,119.9239203
,,,,,,,,,,,,,,,,,,,,3,0,3,0,11,0,11,0,,,,,,,,,,,,,,,,,,,,,,,,,,,,,,,,,,,,,,,,,,,,,,,,,,,,,,,,,,,,,,,,,,,,,0,,,,,,,,,,,,,,,,,,,,,,,,,,,,left,0,160,30,190,0,1113.816892,1113.816892,1113.816892,None,None,2,0,0.0415246,,,,,,,,,,,,,,,,,,,,,,10,P1,2,2024-09-27_12h41.39.153,uWM_experiment,2022.2.3,119.9239203
,,,,,,,,,,,,,,,,,,,,3,0,3,0,12,0,12,0,,,,,,,,,,,,,,,,,,,,,,,,,,,,,,,,,,,,,,,,,,,,,,,,,,,,,,,,,,,,,,,,,,,,,0.035,,,,,,,,,,,,,,,,,,,,,,,,,,,,right,0,70,-30,40,1,1119.708866,1119.708866,1119.708866,None,None,2,0,0.0613346,,,,,,,,,,,,,,,,,,,,,,10,P1,2,2024-09-27_12h41.39.153,uWM_experiment,2022.2.3,119.9239203
,,,,,,,,,,,,,,,,,,,,3,0,3,0,13,0,13,0,,,,,,,,,,,,,,,,,,,,,,,,,,,,,,,,,,,,,,,,,,,,,,,,,,,,,,,,,,,,,,,,,,,,,0,,,,,,,,,,,,,,,,,,,,,,,,,,,,left,1,160,-30,130,0,1127.117601,1127.117601,1127.117601,None,None,2,0,0.108693,,,,,,,,,,,,,,,,,,,,,,10,P1,2,2024-09-27_12h41.39.153,uWM_experiment,2022.2.3,119.9239203
,,,,,,,,,,,,,,,,,,,,3,0,3,0,14,0,14,0,,,,,,,,,,,,,,,,,,,,,,,,,,,,,,,,,,,,,,,,,,,,,,,,,,,,,,,,,,,,,,,,,,,,,0.025,,,,,,,,,,,,,,,,,,,,,,,,,,,,left,1,130,-30,100,1,1150.002118,1150.002118,1150.002118,None,None,1,1,2.7520353,,,,,,,,,,,,,,,,,,,,,,10,P1,2,2024-09-27_12h41.39.153,uWM_experiment,2022.2.3,119.9239203
,,,,,,,,,,,,,,,,,,,,3,0,3,0,15,0,15,0,,,,,,,,,,,,,,,,,,,,,,,,,,,,,,,,,,,,,,,,,,,,,,,,,,,,,,,,,,,,,,,,,,,,,0,,,,,,,,,,,,,,,,,,,,,,,,,,,,left,0,10,30,40,0,1161.986096,1161.986096,1161.986096,None,None,1,1,1.8960329,,,,,,,,,,,,,,,,,,,,,,10,P1,2,2024-09-27_12h41.39.153,uWM_experiment,2022.2.3,119.9239203
,,,,,,,,,,,,,,,,,,,,3,0,3,0,16,0,16,0,,,,,,,,,,,,,,,,,,,,,,,,,,,,,,,,,,,,,,,,,,,,,,,,,,,,,,,,,,,,,,,,,,,,,0.035,,,,,,,,,,,,,,,,,,,,,,,,,,,,left,1,40,-30,10,1,1170.811588,1170.811588,1170.811588,None,None,1,1,1.4545834,,,,,,,,,,,,,,,,,,,,,,10,P1,2,2024-09-27_12h41.39.153,uWM_experiment,2022.2.3,119.9239203
,,,,,,,,,,,,,,,,,,,,3,0,3,0,17,0,17,0,,,,,,,,,,,,,,,,,,,,,,,,,,,,,,,,,,,,,,,,,,,,,,,,,,,,,,,,,,,,,,,,,,,,,0.045,,,,,,,,,,,,,,,,,,,,,,,,,,,,left,0,160,30,190,1,1180.845439,1180.845439,1180.845439,None,None,1,1,1.1006699,,,,,,,,,,,,,,,,,,,,,,10,P1,2,2024-09-27_12h41.39.153,uWM_experiment,2022.2.3,119.9239203
,,,,,,,,,,,,,,,,,,,,3,0,3,0,18,0,18,0,,,,,,,,,,,,,,,,,,,,,,,,,,,,,,,,,,,,,,,,,,,,,,,,,,,,,,,,,,,,,,,,,,,,,0.055,,,,,,,,,,,,,,,,,,,,,,,,,,,,right,1,40,30,70,1,1188.087509,1188.087509,1188.087509,None,None,1,1,0.1466398,,,,,,,,,,,,,,,,,,,,,,10,P1,2,2024-09-27_12h41.39.153,uWM_experiment,2022.2.3,119.9239203
,,,,,,,,,,,,,,,,,,,,3,0,3,0,19,0,19,0,,,,,,,,,,,,,,,,,,,,,,,,,,,,,,,,,,,,,,,,,,,,,,,,,,,,,,,,,,,,,,,,,,,,,0.065,,,,,,,,,,,,,,,,,,,,,,,,,,,,right,0,10,-30,-20,1,1194.446168,1194.446168,1194.446168,None,None,1,1,0.0839232,,,,,,,,,,,,,,,,,,,,,,10,P1,2,2024-09-27_12h41.39.153,uWM_experiment,2022.2.3,119.9239203
,,,,,,,,,,,,,,,,,,,,3,0,3,0,20,0,20,0,,,,,,,,,,,,,,,,,,,,,,,,,,,,,,,,,,,,,,,,,,,,,,,,,,,,,,,,,,,,,,,,,,,,,0.075,,,,,,,,,,,,,,,,,,,,,,,,,,,,left,1,130,-30,100,1,1201.113171,1201.113171,1201.113171,None,None,2,0,0.0410596,,,,,,,,,,,,,,,,,,,,,,10,P1,2,2024-09-27_12h41.39.153,uWM_experiment,2022.2.3,119.9239203
,,,,,,,,,,,,,,,,,,,,3,0,3,0,21,0,21,0,,,,,,,,,,,,,,,,,,,,,,,,,,,,,,,,,,,,,,,,,,,,,,,,,,,,,,,,,,,,,,,,,,,,,0.065,,,,,,,,,,,,,,,,,,,,,,,,,,,,right,1,160,30,190,1,1206.830143,1206.830143,1206.830143,None,None,2,0,0.0599211,,,,,,,,,,,,,,,,,,,,,,10,P1,2,2024-09-27_12h41.39.153,uWM_experiment,2022.2.3,119.9239203
,,,,,,,,,,,,,,,,,,,,3,0,3,0,22,0,22,0,,,,,,,,,,,,,,,,,,,,,,,,,,,,,,,,,,,,,,,,,,,,,,,,,,,,,,,,,,,,,,,,,,,,,0.055,,,,,,,,,,,,,,,,,,,,,,,,,,,,right,1,160,30,190,1,1212.48044,1212.48044,1212.48044,None,None,2,0,0.0657515,,,,,,,,,,,,,,,,,,,,,,10,P1,2,2024-09-27_12h41.39.153,uWM_experiment,2022.2.3,119.9239203
,,,,,,,,,,,,,,,,,,,,3,0,3,0,23,0,23,0,,,,,,,,,,,,,,,,,,,,,,,,,,,,,,,,,,,,,,,,,,,,,,,,,,,,,,,,,,,,,,,,,,,,,0,,,,,,,,,,,,,,,,,,,,,,,,,,,,right,0,70,-30,40,0,1220.714224,1220.714224,1220.714224,None,None,1,1,0.039939,,,,,,,,,,,,,,,,,,,,,,10,P1,2,2024-09-27_12h41.39.153,uWM_experiment,2022.2.3,119.9239203
,,,,,,,,,,,,,,,,,,,,3,0,3,0,,,,,0,0,0,0,,,,,,,,,,,,,,,,,,,,,,,,,,,,,,,,,,,,,,,,,,,,,,,,,,,,,,,,,,,,,,,,,,,,,,,,,,,,,,,,,,,,,,,,,,,,,,,,,,,,,,,,,,,1220.772529,1220.772529,space,12.0456474,None,None,,,,,,,,,,,,,,,,10,P1,2,2024-09-27_12h41.39.153,uWM_experiment,2022.2.3,119.9239203
,,,,,,,,,,,,,,,,,,,,3,0,3,0,,,,,1,0,1,0,,,,,,,,,,,,,,,,,,,,,,,,,,,,,,,,,,,,,,,,,,,,,,,,,,,,,,,,,,,,,,,,,,,,,,,,,,,,,,,,,,,,,,,,,,,,,,,,,,,,,,,,,,,,,,,,,,,,,,,,,,,,,,,,10,P1,2,2024-09-27_12h41.39.153,uWM_experiment,2022.2.3,119.9239203
,,,,,,,,,,,,,,,,,,,,3,0,3,0,,,,,2,0,2,0,,,,,,,,,,,,,,,,,,,,,,,,,,,,,,,,,,,,,,,,,,,,,,,,,,,,,,,,,,,,,,,,,,,,,,,,,,,,,,,,,,,,,,,,,,,,,,,,,,,,,,,,,,,,,,,,,,,,,,,,,,,,,,,,10,P1,2,2024-09-27_12h41.39.153,uWM_experiment,2022.2.3,119.9239203
,,,,,,,,,,,,,,,,,,,,4,0,4,0,0,0,0,0,,,,,,,,,,,,,,,,,,,,,,,,,,,,,,,,,,,,,,,,,,,,,,,,,,,,,,,,,,,,,,,,,,,,,0.045,,,,,,,,,,,,,,,,,,,,1232.839857,1233.539879,1233.839895,1234.539929,1234.839955,1235.53998,1235.53998,1235.865009,right,0,10,-30,-20,1,1244.573807,1244.573807,1244.573807,None,None,1,1,0.0761945,,,,,,,None,,,,,,,,,,,,,,,10,P1,2,2024-09-27_12h41.39.153,uWM_experiment,2022.2.3,119.9239203
,,,,,,,,,,,,,,,,,,,,4,0,4,0,1,0,1,0,,,,,,,,,,,,,,,,,,,,,,,,,,,,,,,,,,,,,,,,,,,,,,,,,,,,,,,,,,,,,,,,,,,,,0.055,,,,,,,,,,,,,,,,,,,,,,,,,,,,left,1,10,-30,-20,1,1251.457495,1251.457495,1251.457495,None,None,2,0,0.0646673,,,,,,,,,,,,,,,,,,,,,,10,P1,2,2024-09-27_12h41.39.153,uWM_experiment,2022.2.3,119.9239203
,,,,,,,,,,,,,,,,,,,,4,0,4,0,2,0,2,0,,,,,,,,,,,,,,,,,,,,,,,,,,,,,,,,,,,,,,,,,,,,,,,,,,,,,,,,,,,,,,,,,,,,,0.045,,,,,,,,,,,,,,,,,,,,,,,,,,,,right,1,160,30,190,1,1257.107799,1257.107799,1257.107799,None,None,2,0,0.030231,,,,,,,,,,,,,,,,,,,,,,10,P1,2,2024-09-27_12h41.39.153,uWM_experiment,2022.2.3,119.9239203
,,,,,,,,,,,,,,,,,,,,4,0,4,0,3,0,3,0,,,,,,,,,,,,,,,,,,,,,,,,,,,,,,,,,,,,,,,,,,,,,,,,,,,,,,,,,,,,,,,,,,,,,0.035,,,,,,,,,,,,,,,,,,,,,,,,,,,,right,1,70,30,100,1,1263.366484,1263.366484,1263.366484,None,None,2,0,0.0515516,,,,,,,,,,,,,,,,,,,,,,10,P1,2,2024-09-27_12h41.39.153,uWM_experiment,2022.2.3,119.9239203
,,,,,,,,,,,,,,,,,,,,4,0,4,0,4,0,4,0,,,,,,,,,,,,,,,,,,,,,,,,,,,,,,,,,,,,,,,,,,,,,,,,,,,,,,,,,,,,,,,,,,,,,0.025,,,,,,,,,,,,,,,,,,,,,,,,,,,,right,0,100,-30,70,1,1269.358434,1269.358434,1269.358434,None,None,2,0,0.0676508,,,,,,,,,,,,,,,,,,,,,,10,P1,2,2024-09-27_12h41.39.153,uWM_experiment,2022.2.3,119.9239203
,,,,,,,,,,,,,,,,,,,,4,0,4,0,5,0,5,0,,,,,,,,,,,,,,,,,,,,,,,,,,,,,,,,,,,,,,,,,,,,,,,,,,,,,,,,,,,,,,,,,,,,,0,,,,,,,,,,,,,,,,,,,,,,,,,,,,right,0,130,-30,100,0,1275.308757,1275.308757,1275.308757,None,None,1,1,0.0612933,,,,,,,,,,,,,,,,,,,,,,10,P1,2,2024-09-27_12h41.39.153,uWM_experiment,2022.2.3,119.9239203
,,,,,,,,,,,,,,,,,,,,4,0,4,0,6,0,6,0,,,,,,,,,,,,,,,,,,,,,,,,,,,,,,,,,,,,,,,,,,,,,,,,,,,,,,,,,,,,,,,,,,,,,0.015,,,,,,,,,,,,,,,,,,,,,,,,,,,,right,1,70,30,100,1,1282.459138,1282.459138,1282.459138,None,None,1,1,0.0309284,,,,,,,,,,,,,,,,,,,,,,10,P1,2,2024-09-27_12h41.39.153,uWM_experiment,2022.2.3,119.9239203
,,,,,,,,,,,,,,,,,,,,4,0,4,0,7,0,7,0,,,,,,,,,,,,,,,,,,,,,,,,,,,,,,,,,,,,,,,,,,,,,,,,,,,,,,,,,,,,,,,,,,,,,0.025,,,,,,,,,,,,,,,,,,,,,,,,,,,,right,1,70,30,100,1,1288.5678,1288.5678,1288.5678,None,None,1,1,0.0261204,,,,,,,,,,,,,,,,,,,,,,10,P1,2,2024-09-27_12h41.39.153,uWM_experiment,2022.2.3,119.9239203
,,,,,,,,,,,,,,,,,,,,4,0,4,0,8,0,8,0,,,,,,,,,,,,,,,,,,,,,,,,,,,,,,,,,,,,,,,,,,,,,,,,,,,,,,,,,,,,,,,,,,,,,0,,,,,,,,,,,,,,,,,,,,,,,,,,,,right,1,100,30,130,0,1294.576452,1294.576452,1294.576452,None,None,1,1,0.0415369,,,,,,,,,,,,,,,,,,,,,,10,P1,2,2024-09-27_12h41.39.153,uWM_experiment,2022.2.3,119.9239203
,,,,,,,,,,,,,,,,,,,,4,0,4,0,9,0,9,0,,,,,,,,,,,,,,,,,,,,,,,,,,,,,,,,,,,,,,,,,,,,,,,,,,,,,,,,,,,,,,,,,,,,,0,,,,,,,,,,,,,,,,,,,,,,,,,,,,left,1,100,-30,70,0,1300.701772,1300.701772,1300.701772,None,None,1,1,0.0682014,,,,,,,,,,,,,,,,,,,,,,10,P1,2,2024-09-27_12h41.39.153,uWM_experiment,2022.2.3,119.9239203
,,,,,,,,,,,,,,,,,,,,4,0,4,0,10,0,10,0,,,,,,,,,,,,,,,,,,,,,,,,,,,,,,,,,,,,,,,,,,,,,,,,,,,,,,,,,,,,,,,,,,,,,0.035,,,,,,,,,,,,,,,,,,,,,,,,,,,,left,1,100,-30,70,1,1308.360515,1308.360515,1308.360515,None,None,1,1,0.0494534,,,,,,,,,,,,,,,,,,,,,,10,P1,2,2024-09-27_12h41.39.153,uWM_experiment,2022.2.3,119.9239203
,,,,,,,,,,,,,,,,,,,,4,0,4,0,11,0,11,0,,,,,,,,,,,,,,,,,,,,,,,,,,,,,,,,,,,,,,,,,,,,,,,,,,,,,,,,,,,,,,,,,,,,,0,,,,,,,,,,,,,,,,,,,,,,,,,,,,left,0,130,30,160,0,1314.610868,1314.610868,1314.610868,None,None,1,1,0.0310014,,,,,,,,,,,,,,,,,,,,,,10,P1,2,2024-09-27_12h41.39.153,uWM_experiment,2022.2.3,119.9239203
,,,,,,,,,,,,,,,,,,,,4,0,4,0,12,0,12,0,,,,,,,,,,,,,,,,,,,,,,,,,,,,,,,,,,,,,,,,,,,,,,,,,,,,,,,,,,,,,,,,,,,,,0,,,,,,,,,,,,,,,,,,,,,,,,,,,,left,0,160,30,190,0,1323.136293,1323.136293,1323.136293,None,None,1,1,0.0818019,,,,,,,,,,,,,,,,,,,,,,10,P1,2,2024-09-27_12h41.39.153,uWM_experiment,2022.2.3,119.9239203
,,,,,,,,,,,,,,,,,,,,4,0,4,0,13,0,13,0,,,,,,,,,,,,,,,,,,,,,,,,,,,,,,,,,,,,,,,,,,,,,,,,,,,,,,,,,,,,,,,,,,,,,0.045,,,,,,,,,,,,,,,,,,,,,,,,,,,,left,1,130,-30,100,1,1330.670026,1330.670026,1330.670026,None,None,1,1,0.0678559,,,,,,,,,,,,,,,,,,,,,,10,P1,2,2024-09-27_12h41.39.153,uWM_experiment,2022.2.3,119.9239203
,,,,,,,,,,,,,,,,,,,,4,0,4,0,14,0,14,0,,,,,,,,,,,,,,,,,,,,,,,,,,,,,,,,,,,,,,,,,,,,,,,,,,,,,,,,,,,,,,,,,,,,,0,,,,,,,,,,,,,,,,,,,,,,,,,,,,right,0,100,-30,70,0,1337.962083,1337.962083,1337.962083,None,None,1,1,0.0718297,,,,,,,,,,,,,,,,,,,,,,10,P1,2,2024-09-27_12h41.39.153,uWM_experiment,2022.2.3,119.9239203
,,,,,,,,,,,,,,,,,,,,4,0,4,0,15,0,15,0,,,,,,,,,,,,,,,,,,,,,,,,,,,,,,,,,,,,,,,,,,,,,,,,,,,,,,,,,,,,,,,,,,,,,0.055,,,,,,,,,,,,,,,,,,,,,,,,,,,,left,1,160,-30,130,1,1344.395762,1344.395762,1344.395762,None,None,2,0,0.0540107,,,,,,,,,,,,,,,,,,,,,,10,P1,2,2024-09-27_12h41.39.153,uWM_experiment,2022.2.3,119.9239203
,,,,,,,,,,,,,,,,,,,,4,0,4,0,16,0,16,0,,,,,,,,,,,,,,,,,,,,,,,,,,,,,,,,,,,,,,,,,,,,,,,,,,,,,,,,,,,,,,,,,,,,,0.045,,,,,,,,,,,,,,,,,,,,,,,,,,,,right,0,100,-30,70,1,1350.679421,1350.679421,1350.679421,None,None,1,1,0.5224267,,,,,,,,,,,,,,,,,,,,,,10,P1,2,2024-09-27_12h41.39.153,uWM_experiment,2022.2.3,119.9239203
,,,,,,,,,,,,,,,,,,,,4,0,4,0,17,0,17,0,,,,,,,,,,,,,,,,,,,,,,,,,,,,,,,,,,,,,,,,,,,,,,,,,,,,,,,,,,,,,,,,,,,,,0.055,,,,,,,,,,,,,,,,,,,,,,,,,,,,left,1,100,-30,70,1,1357.596433,1357.596433,1357.596433,None,None,1,1,0.1094792,,,,,,,,,,,,,,,,,,,,,,10,P1,2,2024-09-27_12h41.39.153,uWM_experiment,2022.2.3,119.9239203
,,,,,,,,,,,,,,,,,,,,4,0,4,0,18,0,18,0,,,,,,,,,,,,,,,,,,,,,,,,,,,,,,,,,,,,,,,,,,,,,,,,,,,,,,,,,,,,,,,,,,,,,0.065,,,,,,,,,,,,,,,,,,,,,,,,,,,,right,1,40,30,70,1,1364.180131,1364.180131,1364.180131,None,None,1,1,0.0456612,,,,,,,,,,,,,,,,,,,,,,10,P1,2,2024-09-27_12h41.39.153,uWM_experiment,2022.2.3,119.9239203
,,,,,,,,,,,,,,,,,,,,4,0,4,0,19,0,19,0,,,,,,,,,,,,,,,,,,,,,,,,,,,,,,,,,,,,,,,,,,,,,,,,,,,,,,,,,,,,,,,,,,,,,0.075,,,,,,,,,,,,,,,,,,,,,,,,,,,,right,1,40,30,70,1,1370.330471,1370.330471,1370.330471,None,None,1,1,0.0394399,,,,,,,,,,,,,,,,,,,,,,10,P1,2,2024-09-27_12h41.39.153,uWM_experiment,2022.2.3,119.9239203
,,,,,,,,,,,,,,,,,,,,4,0,4,0,20,0,20,0,,,,,,,,,,,,,,,,,,,,,,,,,,,,,,,,,,,,,,,,,,,,,,,,,,,,,,,,,,,,,,,,,,,,,0.085,,,,,,,,,,,,,,,,,,,,,,,,,,,,right,1,100,30,130,1,1377.039151,1377.039151,1377.039151,None,None,1,1,0.106722,,,,,,,,,,,,,,,,,,,,,,10,P1,2,2024-09-27_12h41.39.153,uWM_experiment,2022.2.3,119.9239203
,,,,,,,,,,,,,,,,,,,,4,0,4,0,21,0,21,0,,,,,,,,,,,,,,,,,,,,,,,,,,,,,,,,,,,,,,,,,,,,,,,,,,,,,,,,,,,,,,,,,,,,,0.095,,,,,,,,,,,,,,,,,,,,,,,,,,,,left,1,10,-30,-20,1,1382.814454,1382.814454,1382.814454,None,None,2,0,0.0914525,,,,,,,,,,,,,,,,,,,,,,10,P1,2,2024-09-27_12h41.39.153,uWM_experiment,2022.2.3,119.9239203
,,,,,,,,,,,,,,,,,,,,4,0,4,0,22,0,22,0,,,,,,,,,,,,,,,,,,,,,,,,,,,,,,,,,,,,,,,,,,,,,,,,,,,,,,,,,,,,,,,,,,,,,0.085,,,,,,,,,,,,,,,,,,,,,,,,,,,,left,1,130,-30,100,1,1388.773128,1388.773128,1388.773128,None,None,2,0,0.0526459,,,,,,,,,,,,,,,,,,,,,,10,P1,2,2024-09-27_12h41.39.153,uWM_experiment,2022.2.3,119.9239203
,,,,,,,,,,,,,,,,,,,,4,0,4,0,23,0,23,0,,,,,,,,,,,,,,,,,,,,,,,,,,,,,,,,,,,,,,,,,,,,,,,,,,,,,,,,,,,,,,,,,,,,,0,,,,,,,,,,,,,,,,,,,,,,,,,,,,left,0,100,30,130,0,1397.31522,1397.31522,1397.31522,None,None,2,0,0.0706423,,,,,,,,,,,,,,,,,,,,,,10,P1,2,2024-09-27_12h41.39.153,uWM_experiment,2022.2.3,119.9239203
,,,,,,,,,,,,,,,,,,,,4,0,4,0,,,,,0,0,0,0,,,,,,,,,,,,,,,,,,,,,,,,,,,,,,,,,,,,,,,,,,,,,,,,,,,,,,,,,,,,,,,,,,,,,,,,,,,,,,,,,,,,,,,,,,,,,,,,,,,,,,,,,,,1397.406874,1397.406874,space,50.3468615,None,None,,,,,,,,,,,,,,,,10,P1,2,2024-09-27_12h41.39.153,uWM_experiment,2022.2.3,119.9239203
,,,,,,,,,,,,,,,,,,,,4,0,4,0,,,,,1,0,1,0,,,,,,,,,,,,,,,,,,,,,,,,,,,,,,,,,,,,,,,,,,,,,,,,,,,,,,,,,,,,,,,,,,,,,,,,,,,,,,,,,,,,,,,,,,,,,,,,,,,,,,,,,,,,,,,,,,,,,,,,,,,,,,,,10,P1,2,2024-09-27_12h41.39.153,uWM_experiment,2022.2.3,119.9239203
,,,,,,,,,,,,,,,,,,,,4,0,4,0,,,,,2,0,2,0,,,,,,,,,,,,,,,,,,,,,,,,,,,,,,,,,,,,,,,,,,,,,,,,,,,,,,,,,,,,,,,,,,,,,,,,,,,,,,,,,,,,,,,,,,,,,,,,,,,,,,,,,,,,,,,,,,,,,,,,,,,,,,,,10,P1,2,2024-09-27_12h41.39.153,uWM_experiment,2022.2.3,119.9239203
,,,,,,,,,,,,,,,,,,,,5,0,5,0,0,0,0,0,,,,,,,,,,,,,,,,,,,,,,,,,,,,,,,,,,,,,,,,,,,,,,,,,,,,,,,,,,,,,,,,,,,,,0.075,,,,,,,,,,,,,,,,,,,,1447.776222,1448.476257,1448.776294,1449.476304,1449.776321,1450.476356,1450.476356,1450.801378,right,1,100,30,130,1,1462.943717,1462.943717,1462.943717,None,None,1,1,0.089957,,,,,,,None,,,,,,,,,,,,,,,10,P1,2,2024-09-27_12h41.39.153,uWM_experiment,2022.2.3,119.9239203
,,,,,,,,,,,,,,,,,,,,5,0,5,0,1,0,1,0,,,,,,,,,,,,,,,,,,,,,,,,,,,,,,,,,,,,,,,,,,,,,,,,,,,,,,,,,,,,,,,,,,,,,0.085,,,,,,,,,,,,,,,,,,,,,,,,,,,,left,1,10,-30,-20,1,1468.885672,1468.885672,1468.885672,None,None,2,0,0.07604,,,,,,,,,,,,,,,,,,,,,,10,P1,2,2024-09-27_12h41.39.153,uWM_experiment,2022.2.3,119.9239203
,,,,,,,,,,,,,,,,,,,,5,0,5,0,2,0,2,0,,,,,,,,,,,,,,,,,,,,,,,,,,,,,,,,,,,,,,,,,,,,,,,,,,,,,,,,,,,,,,,,,,,,,0.075,,,,,,,,,,,,,,,,,,,,,,,,,,,,left,1,10,-30,-20,1,1474.527642,1474.527642,1474.527642,None,None,2,0,0.066092,,,,,,,,,,,,,,,,,,,,,,10,P1,2,2024-09-27_12h41.39.153,uWM_experiment,2022.2.3,119.9239203
,,,,,,,,,,,,,,,,,,,,5,0,5,0,3,0,3,0,,,,,,,,,,,,,,,,,,,,,,,,,,,,,,,,,,,,,,,,,,,,,,,,,,,,,,,,,,,,,,,,,,,,,0,,,,,,,,,,,,,,,,,,,,,,,,,,,,right,1,130,30,160,0,1480.452961,1480.452961,1480.452961,None,None,2,0,0.0685712,,,,,,,,,,,,,,,,,,,,,,10,P1,2,2024-09-27_12h41.39.153,uWM_experiment,2022.2.3,119.9239203
,,,,,,,,,,,,,,,,,,,,5,0,5,0,4,0,4,0,,,,,,,,,,,,,,,,,,,,,,,,,,,,,,,,,,,,,,,,,,,,,,,,,,,,,,,,,,,,,,,,,,,,,0.065,,,,,,,,,,,,,,,,,,,,,,,,,,,,left,1,100,-30,70,1,1487.320001,1487.320001,1487.320001,None,None,1,1,0.0657671,,,,,,,,,,,,,,,,,,,,,,10,P1,2,2024-09-27_12h41.39.153,uWM_experiment,2022.2.3,119.9239203
,,,,,,,,,,,,,,,,,,,,5,0,5,0,5,0,5,0,,,,,,,,,,,,,,,,,,,,,,,,,,,,,,,,,,,,,,,,,,,,,,,,,,,,,,,,,,,,,,,,,,,,,0,,,,,,,,,,,,,,,,,,,,,,,,,,,,right,1,70,30,100,0,1493.311965,1493.311965,1493.311965,None,None,1,1,0.0577386,,,,,,,,,,,,,,,,,,,,,,10,P1,2,2024-09-27_12h41.39.153,uWM_experiment,2022.2.3,119.9239203
,,,,,,,,,,,,,,,,,,,,5,0,5,0,6,0,6,0,,,,,,,,,,,,,,,,,,,,,,,,,,,,,,,,,,,,,,,,,,,,,,,,,,,,,,,,,,,,,,,,,,,,,0.1,,,,,,,,,,,,,,,,,,,,,,,,,,,,right,1,100,30,130,2,1499.703977,1499.703977,1499.703977,None,None,4,0,0.1455689,,,,,,,,,,,,,,,,,,,,,,10,P1,2,2024-09-27_12h41.39.153,uWM_experiment,2022.2.3,119.9239203
,,,,,,,,,,,,,,,,,,,,5,0,5,0,7,0,7,0,,,,,,,,,,,,,,,,,,,,,,,,,,,,,,,,,,,,,,,,,,,,,,,,,,,,,,,,,,,,,,,,,,,,,0.075,,,,,,,,,,,,,,,,,,,,,,,,,,,,right,1,70,30,100,1,1506.254321,1506.254321,1506.254321,None,None,3,0,1.0833326,,,,,,,,,,,,,,,,,,,,,,10,P1,2,2024-09-27_12h41.39.153,uWM_experiment,2022.2.3,119.9239203
,,,,,,,,,,,,,,,,,,,,5,0,5,0,8,0,8,0,,,,,,,,,,,,,,,,,,,,,,,,,,,,,,,,,,,,,,,,,,,,,,,,,,,,,,,,,,,,,,,,,,,,,0.065,,,,,,,,,,,,,,,,,,,,,,,,,,,,right,0,160,-30,130,1,1513.738045,1513.738045,1513.738045,None,None,2,0,0.0554958,,,,,,,,,,,,,,,,,,,,,,10,P1,2,2024-09-27_12h41.39.153,uWM_experiment,2022.2.3,119.9239203
,,,,,,,,,,,,,,,,,,,,5,0,5,0,9,0,9,0,,,,,,,,,,,,,,,,,,,,,,,,,,,,,,,,,,,,,,,,,,,,,,,,,,,,,,,,,,,,,,,,,,,,,0.055,,,,,,,,,,,,,,,,,,,,,,,,,,,,right,1,160,30,190,1,1519.780044,1519.780044,1519.780044,None,None,1,1,0.0694734,,,,,,,,,,,,,,,,,,,,,,10,P1,2,2024-09-27_12h41.39.153,uWM_experiment,2022.2.3,119.9239203
,,,,,,,,,,,,,,,,,,,,5,0,5,0,10,0,10,0,,,,,,,,,,,,,,,,,,,,,,,,,,,,,,,,,,,,,,,,,,,,,,,,,,,,,,,,,,,,,,,,,,,,,0.065,,,,,,,,,,,,,,,,,,,,,,,,,,,,left,1,70,-30,40,1,1526.572073,1526.572073,1526.572073,None,None,2,0,0.0854449,,,,,,,,,,,,,,,,,,,,,,10,P1,2,2024-09-27_12h41.39.153,uWM_experiment,2022.2.3,119.9239203
,,,,,,,,,,,,,,,,,,,,5,0,5,0,11,0,11,0,,,,,,,,,,,,,,,,,,,,,,,,,,,,,,,,,,,,,,,,,,,,,,,,,,,,,,,,,,,,,,,,,,,,,0,,,,,,,,,,,,,,,,,,,,,,,,,,,,right,1,40,30,70,0,1533.405769,1533.405769,1533.405769,None,None,1,1,0.2277566,,,,,,,,,,,,,,,,,,,,,,10,P1,2,2024-09-27_12h41.39.153,uWM_experiment,2022.2.3,119.9239203
,,,,,,,,,,,,,,,,,,,,5,0,5,0,12,0,12,0,,,,,,,,,,,,,,,,,,,,,,,,,,,,,,,,,,,,,,,,,,,,,,,,,,,,,,,,,,,,,,,,,,,,,0,,,,,,,,,,,,,,,,,,,,,,,,,,,,right,0,100,-30,70,0,1540.28946,1540.28946,1540.28946,None,None,1,1,0.0481552,,,,,,,,,,,,,,,,,,,,,,10,P1,2,2024-09-27_12h41.39.153,uWM_experiment,2022.2.3,119.9239203
,,,,,,,,,,,,,,,,,,,,5,0,5,0,13,0,13,0,,,,,,,,,,,,,,,,,,,,,,,,,,,,,,,,,,,,,,,,,,,,,,,,,,,,,,,,,,,,,,,,,,,,,0.1,,,,,,,,,,,,,,,,,,,,,,,,,,,,right,1,40,30,70,2,1547.323167,1547.323167,1547.323167,None,None,3,0,0.0383688,,,,,,,,,,,,,,,,,,,,,,10,P1,2,2024-09-27_12h41.39.153,uWM_experiment,2022.2.3,119.9239203
,,,,,,,,,,,,,,,,,,,,5,0,5,0,14,0,14,0,,,,,,,,,,,,,,,,,,,,,,,,,,,,,,,,,,,,,,,,,,,,,,,,,,,,,,,,,,,,,,,,,,,,,0.055,,,,,,,,,,,,,,,,,,,,,,,,,,,,right,0,10,-30,-20,1,1553.756846,1553.756846,1553.756846,None,None,2,0,0.0686181,,,,,,,,,,,,,,,,,,,,,,10,P1,2,2024-09-27_12h41.39.153,uWM_experiment,2022.2.3,119.9239203
,,,,,,,,,,,,,,,,,,,,5,0,5,0,15,0,15,0,,,,,,,,,,,,,,,,,,,,,,,,,,,,,,,,,,,,,,,,,,,,,,,,,,,,,,,,,,,,,,,,,,,,,0,,,,,,,,,,,,,,,,,,,,,,,,,,,,right,1,70,30,100,0,1559.757158,1559.757158,1559.757158,None,None,1,1,0.7643613,,,,,,,,,,,,,,,,,,,,,,10,P1,2,2024-09-27_12h41.39.153,uWM_experiment,2022.2.3,119.9239203
,,,,,,,,,,,,,,,,,,,,5,0,5,0,16,0,16,0,,,,,,,,,,,,,,,,,,,,,,,,,,,,,,,,,,,,,,,,,,,,,,,,,,,,,,,,,,,,,,,,,,,,,0.045,,,,,,,,,,,,,,,,,,,,,,,,,,,,left,0,70,30,100,1,1566.407513,1566.407513,1566.407513,None,None,1,1,0.0500575,,,,,,,,,,,,,,,,,,,,,,10,P1,2,2024-09-27_12h41.39.153,uWM_experiment,2022.2.3,119.9239203
,,,,,,,,,,,,,,,,,,,,5,0,5,0,17,0,17,0,,,,,,,,,,,,,,,,,,,,,,,,,,,,,,,,,,,,,,,,,,,,,,,,,,,,,,,,,,,,,,,,,,,,,0.055,,,,,,,,,,,,,,,,,,,,,,,,,,,,left,1,10,-30,-20,1,1573.516216,1573.516216,1573.516216,None,None,1,1,0.0772099,,,,,,,,,,,,,,,,,,,,,,10,P1,2,2024-09-27_12h41.39.153,uWM_experiment,2022.2.3,119.9239203
,,,,,,,,,,,,,,,,,,,,5,0,5,0,18,0,18,0,,,,,,,,,,,,,,,,,,,,,,,,,,,,,,,,,,,,,,,,,,,,,,,,,,,,,,,,,,,,,,,,,,,,,0.065,,,,,,,,,,,,,,,,,,,,,,,,,,,,left,1,100,-30,70,1,1580.841613,1580.841613,1580.841613,None,None,2,0,0.0478982,,,,,,,,,,,,,,,,,,,,,,10,P1,2,2024-09-27_12h41.39.153,uWM_experiment,2022.2.3,119.9239203
,,,,,,,,,,,,,,,,,,,,5,0,5,0,19,0,19,0,,,,,,,,,,,,,,,,,,,,,,,,,,,,,,,,,,,,,,,,,,,,,,,,,,,,,,,,,,,,,,,,,,,,,0.055,,,,,,,,,,,,,,,,,,,,,,,,,,,,left,1,10,-30,-20,1,1586.950264,1586.950264,1586.950264,None,None,2,0,0.075363,,,,,,,,,,,,,,,,,,,,,,10,P1,2,2024-09-27_12h41.39.153,uWM_experiment,2022.2.3,119.9239203
,,,,,,,,,,,,,,,,,,,,5,0,5,0,20,0,20,0,,,,,,,,,,,,,,,,,,,,,,,,,,,,,,,,,,,,,,,,,,,,,,,,,,,,,,,,,,,,,,,,,,,,,0.045,,,,,,,,,,,,,,,,,,,,,,,,,,,,left,1,10,-30,-20,1,1592.708907,1592.708907,1592.708907,None,None,2,0,0.0685343,,,,,,,,,,,,,,,,,,,,,,10,P1,2,2024-09-27_12h41.39.153,uWM_experiment,2022.2.3,119.9239203
,,,,,,,,,,,,,,,,,,,,5,0,5,0,21,0,21,0,,,,,,,,,,,,,,,,,,,,,,,,,,,,,,,,,,,,,,,,,,,,,,,,,,,,,,,,,,,,,,,,,,,,,0.035,,,,,,,,,,,,,,,,,,,,,,,,,,,,left,1,100,-30,70,1,1601.201029,1601.201029,1601.201029,None,None,2,0,0.048486,,,,,,,,,,,,,,,,,,,,,,10,P1,2,2024-09-27_12h41.39.153,uWM_experiment,2022.2.3,119.9239203
,,,,,,,,,,,,,,,,,,,,5,0,5,0,22,0,22,0,,,,,,,,,,,,,,,,,,,,,,,,,,,,,,,,,,,,,,,,,,,,,,,,,,,,,,,,,,,,,,,,,,,,,0.1,,,,,,,,,,,,,,,,,,,,,,,,,,,,left,1,100,-30,70,2,1608.076388,1608.076388,1608.076388,None,None,4,0,0.0770678,,,,,,,,,,,,,,,,,,,,,,10,P1,2,2024-09-27_12h41.39.153,uWM_experiment,2022.2.3,119.9239203
,,,,,,,,,,,,,,,,,,,,5,0,5,0,23,0,23,0,,,,,,,,,,,,,,,,,,,,,,,,,,,,,,,,,,,,,,,,,,,,,,,,,,,,,,,,,,,,,,,,,,,,,0.025,,,,,,,,,,,,,,,,,,,,,,,,,,,,left,0,40,30,70,1,1620.443727,1620.443727,1620.443727,None,None,2,0,0.0697629,,,,,,,,,,,,,,,,,,,,,,10,P1,2,2024-09-27_12h41.39.153,uWM_experiment,2022.2.3,119.9239203
,,,,,,,,,,,,,,,,,,,,5,0,5,0,,,,,0,0,0,0,,,,,,,,,,,,,,,,,,,,,,,,,,,,,,,,,,,,,,,,,,,,,,,,,,,,,,,,,,,,,,,,,,,,,,,,,,,,,,,,,,,,,,,,,,,,,,,,,,,,,,,,,,,1620.535374,1620.535374,space,989.9043529,space,None,,2610.462886,2610.462886,1.4488115,,,,,,,,,,,,10,P1,2,2024-09-27_12h41.39.153,uWM_experiment,2022.2.3,119.9239203
,,,,,,,,,,,,,,,,,,,,5,0,5,0,,,,,1,0,1,0,,,,,,,,,,,,,,,,,,,,,,,,,,,,,,,,,,,,,,,,,,,,,,,,,,,,,,,,,,,,,,,,,,,,,,,,,,,,,,,,,,,,,,,,,,,,,,,,,,,,,,,,,,,,,,,,,,,,,,,,,,,,,,,,10,P1,2,2024-09-27_12h41.39.153,uWM_experiment,2022.2.3,119.9239203
,,,,,,,,,,,,,,,,,,,,5,0,5,0,,,,,2,0,2,0,,,,,,,,,,,,,,,,,,,,,,,,,,,,,,,,,,,,,,,,,,,,,,,,,,,,,,,,,,,,,,,,,,,,,,,,,,,,,,,,,,,,,,,,,,,,,,,,,,,,,,,,,,,,,,,,,,,,,,,,,,,,,,,,10,P1,2,2024-09-27_12h41.39.153,uWM_experiment,2022.2.3,119.9239203
,,,,,,,,,,,,,,,,,,,,6,0,6,0,0,0,0,0,,,,,,,,,,,,,,,,,,,,,,,,,,,,,,,,,,,,,,,,,,,,,,,,,,,,,,,,,,,,,,,,,,,,,0.1,,,,,,,,,,,,,,,,,,,,2611.921301,2612.621336,2612.921355,2613.621385,2613.9214,2614.62145,2614.62145,2614.946452,right,1,70,30,100,2,2620.721774,2620.721774,2620.721774,None,None,4,0,0.0619483,,,,,,,None,,,,,,,,,,,,,,,10,P1,2,2024-09-27_12h41.39.153,uWM_experiment,2022.2.3,119.9239203
,,,,,,,,,,,,,,,,,,,,6,0,6,0,1,0,1,0,,,,,,,,,,,,,,,,,,,,,,,,,,,,,,,,,,,,,,,,,,,,,,,,,,,,,,,,,,,,,,,,,,,,,0.015,,,,,,,,,,,,,,,,,,,,,,,,,,,,left,0,160,30,190,1,2626.555413,2626.555413,2626.555413,None,None,1,1,0.0603099,,,,,,,,,,,,,,,,,,,,,,10,P1,2,2024-09-27_12h41.39.153,uWM_experiment,2022.2.3,119.9239203
,,,,,,,,,,,,,,,,,,,,6,0,6,0,2,0,2,0,,,,,,,,,,,,,,,,,,,,,,,,,,,,,,,,,,,,,,,,,,,,,,,,,,,,,,,,,,,,,,,,,,,,,0.025,,,,,,,,,,,,,,,,,,,,,,,,,,,,right,1,100,30,130,1,2632.71407,2632.71407,2632.71407,None,None,1,1,0.0695453,,,,,,,,,,,,,,,,,,,,,,10,P1,2,2024-09-27_12h41.39.153,uWM_experiment,2022.2.3,119.9239203
,,,,,,,,,,,,,,,,,,,,6,0,6,0,3,0,3,0,,,,,,,,,,,,,,,,,,,,,,,,,,,,,,,,,,,,,,,,,,,,,,,,,,,,,,,,,,,,,,,,,,,,,0.035,,,,,,,,,,,,,,,,,,,,,,,,,,,,right,1,100,30,130,1,2639.914456,2639.914456,2639.914456,None,None,2,0,0.0371291,,,,,,,,,,,,,,,,,,,,,,10,P1,2,2024-09-27_12h41.39.153,uWM_experiment,2022.2.3,119.9239203
,,,,,,,,,,,,,,,,,,,,6,0,6,0,4,0,4,0,,,,,,,,,,,,,,,,,,,,,,,,,,,,,,,,,,,,,,,,,,,,,,,,,,,,,,,,,,,,,,,,,,,,,0.025,,,,,,,,,,,,,,,,,,,,,,,,,,,,right,0,70,-30,40,1,2646.248128,2646.248128,2646.248128,None,None,2,0,0.0794495,,,,,,,,,,,,,,,,,,,,,,10,P1,2,2024-09-27_12h41.39.153,uWM_experiment,2022.2.3,119.9239203
,,,,,,,,,,,,,,,,,,,,6,0,6,0,5,0,5,0,,,,,,,,,,,,,,,,,,,,,,,,,,,,,,,,,,,,,,,,,,,,,,,,,,,,,,,,,,,,,,,,,,,,,0.015,,,,,,,,,,,,,,,,,,,,,,,,,,,,left,0,10,30,40,1,2651.615082,2651.615082,2651.615082,None,None,1,1,0.072587,,,,,,,,,,,,,,,,,,,,,,10,P1,2,2024-09-27_12h41.39.153,uWM_experiment,2022.2.3,119.9239203
,,,,,,,,,,,,,,,,,,,,6,0,6,0,6,0,6,0,,,,,,,,,,,,,,,,,,,,,,,,,,,,,,,,,,,,,,,,,,,,,,,,,,,,,,,,,,,,,,,,,,,,,0.025,,,,,,,,,,,,,,,,,,,,,,,,,,,,left,1,10,-30,-20,1,2657.907072,2657.907072,2657.907072,None,None,2,0,0.0526026,,,,,,,,,,,,,,,,,,,,,,10,P1,2,2024-09-27_12h41.39.153,uWM_experiment,2022.2.3,119.9239203
,,,,,,,,,,,,,,,,,,,,6,0,6,0,7,0,7,0,,,,,,,,,,,,,,,,,,,,,,,,,,,,,,,,,,,,,,,,,,,,,,,,,,,,,,,,,,,,,,,,,,,,,0.1,,,,,,,,,,,,,,,,,,,,,,,,,,,,left,1,40,-30,10,2,2664.490765,2664.490765,2664.490765,None,None,2,0,0.0528803,,,,,,,,,,,,,,,,,,,,,,10,P1,2,2024-09-27_12h41.39.153,uWM_experiment,2022.2.3,119.9239203
,,,,,,,,,,,,,,,,,,,,6,0,6,0,8,0,8,0,,,,,,,,,,,,,,,,,,,,,,,,,,,,,,,,,,,,,,,,,,,,,,,,,,,,,,,,,,,,,,,,,,,,,0,,,,,,,,,,,,,,,,,,,,,,,,,,,,left,0,70,30,100,0,2674.774637,2674.774637,2674.774637,None,None,1,1,0.1288737,,,,,,,,,,,,,,,,,,,,,,10,P1,2,2024-09-27_12h41.39.153,uWM_experiment,2022.2.3,119.9239203
,,,,,,,,,,,,,,,,,,,,6,0,6,0,9,0,9,0,,,,,,,,,,,,,,,,,,,,,,,,,,,,,,,,,,,,,,,,,,,,,,,,,,,,,,,,,,,,,,,,,,,,,0,,,,,,,,,,,,,,,,,,,,,,,,,,,,right,0,10,-30,-20,0,2680.733295,2680.733295,2680.733295,None,None,1,1,0.0663487,,,,,,,,,,,,,,,,,,,,,,10,P1,2,2024-09-27_12h41.39.153,uWM_experiment,2022.2.3,119.9239203
,,,,,,,,,,,,,,,,,,,,6,0,6,0,10,0,10,0,,,,,,,,,,,,,,,,,,,,,,,,,,,,,,,,,,,,,,,,,,,,,,,,,,,,,,,,,,,,,,,,,,,,,0,,,,,,,,,,,,,,,,,,,,,,,,,,,,left,0,10,30,40,0,2686.366927,2686.366927,2686.366927,None,None,1,1,0.0406558,,,,,,,,,,,,,,,,,,,,,,10,P1,2,2024-09-27_12h41.39.153,uWM_experiment,2022.2.3,119.9239203
,,,,,,,,,,,,,,,,,,,,6,0,6,0,11,0,11,0,,,,,,,,,,,,,,,,,,,,,,,,,,,,,,,,,,,,,,,,,,,,,,,,,,,,,,,,,,,,,,,,,,,,,0,,,,,,,,,,,,,,,,,,,,,,,,,,,,right,1,10,30,40,0,2691.767186,2691.767186,2691.767186,None,None,1,1,0.064426,,,,,,,,,,,,,,,,,,,,,,10,P1,2,2024-09-27_12h41.39.153,uWM_experiment,2022.2.3,119.9239203
,,,,,,,,,,,,,,,,,,,,6,0,6,0,12,0,12,0,,,,,,,,,,,,,,,,,,,,,,,,,,,,,,,,,,,,,,,,,,,,,,,,,,,,,,,,,,,,,,,,,,,,,0.015,,,,,,,,,,,,,,,,,,,,,,,,,,,,left,0,160,30,190,1,2697.542513,2697.542513,2697.542513,None,None,1,1,0.0490966,,,,,,,,,,,,,,,,,,,,,,10,P1,2,2024-09-27_12h41.39.153,uWM_experiment,2022.2.3,119.9239203
,,,,,,,,,,,,,,,,,,,,6,0,6,0,13,0,13,0,,,,,,,,,,,,,,,,,,,,,,,,,,,,,,,,,,,,,,,,,,,,,,,,,,,,,,,,,,,,,,,,,,,,,0.025,,,,,,,,,,,,,,,,,,,,,,,,,,,,left,1,10,-30,-20,1,2703.067802,2703.067802,2703.067802,None,None,1,1,0.0357111,,,,,,,,,,,,,,,,,,,,,,10,P1,2,2024-09-27_12h41.39.153,uWM_experiment,2022.2.3,119.9239203
,,,,,,,,,,,,,,,,,,,,6,0,6,0,14,0,14,0,,,,,,,,,,,,,,,,,,,,,,,,,,,,,,,,,,,,,,,,,,,,,,,,,,,,,,,,,,,,,,,,,,,,,0.035,,,,,,,,,,,,,,,,,,,,,,,,,,,,right,1,100,30,130,1,2709.118131,2709.118131,2709.118131,None,None,1,1,0.1693315,,,,,,,,,,,,,,,,,,,,,,10,P1,2,2024-09-27_12h41.39.153,uWM_experiment,2022.2.3,119.9239203
,,,,,,,,,,,,,,,,,,,,6,0,6,0,15,0,15,0,,,,,,,,,,,,,,,,,,,,,,,,,,,,,,,,,,,,,,,,,,,,,,,,,,,,,,,,,,,,,,,,,,,,,0.045,,,,,,,,,,,,,,,,,,,,,,,,,,,,left,1,130,-30,100,1,2714.901767,2714.901767,2714.901767,None,None,1,1,0.0657866,,,,,,,,,,,,,,,,,,,,,,10,P1,2,2024-09-27_12h41.39.153,uWM_experiment,2022.2.3,119.9239203
,,,,,,,,,,,,,,,,,,,,6,0,6,0,16,0,16,0,,,,,,,,,,,,,,,,,,,,,,,,,,,,,,,,,,,,,,,,,,,,,,,,,,,,,,,,,,,,,,,,,,,,,0.055,,,,,,,,,,,,,,,,,,,,,,,,,,,,right,1,100,30,130,1,2720.752079,2720.752079,2720.752079,None,None,1,1,0.0394719,,,,,,,,,,,,,,,,,,,,,,10,P1,2,2024-09-27_12h41.39.153,uWM_experiment,2022.2.3,119.9239203
,,,,,,,,,,,,,,,,,,,,6,0,6,0,17,0,17,0,,,,,,,,,,,,,,,,,,,,,,,,,,,,,,,,,,,,,,,,,,,,,,,,,,,,,,,,,,,,,,,,,,,,,0.065,,,,,,,,,,,,,,,,,,,,,,,,,,,,left,1,10,-30,-20,1,2726.585719,2726.585719,2726.585719,None,None,1,1,0.0137143,,,,,,,,,,,,,,,,,,,,,,10,P1,2,2024-09-27_12h41.39.153,uWM_experiment,2022.2.3,119.9239203
,,,,,,,,,,,,,,,,,,,,6,0,6,0,18,0,18,0,,,,,,,,,,,,,,,,,,,,,,,,,,,,,,,,,,,,,,,,,,,,,,,,,,,,,,,,,,,,,,,,,,,,,0,,,,,,,,,,,,,,,,,,,,,,,,,,,,right,0,40,-30,10,0,2732.952722,2732.952722,2732.952722,None,None,1,1,0.046719,,,,,,,,,,,,,,,,,,,,,,10,P1,2,2024-09-27_12h41.39.153,uWM_experiment,2022.2.3,119.9239203
,,,,,,,,,,,,,,,,,,,,6,0,6,0,19,0,19,0,,,,,,,,,,,,,,,,,,,,,,,,,,,,,,,,,,,,,,,,,,,,,,,,,,,,,,,,,,,,,,,,,,,,,0,,,,,,,,,,,,,,,,,,,,,,,,,,,,right,1,100,30,130,0,2738.7697,2738.7697,2738.7697,None,None,1,1,0.0457035,,,,,,,,,,,,,,,,,,,,,,10,P1,2,2024-09-27_12h41.39.153,uWM_experiment,2022.2.3,119.9239203
,,,,,,,,,,,,,,,,,,,,6,0,6,0,20,0,20,0,,,,,,,,,,,,,,,,,,,,,,,,,,,,,,,,,,,,,,,,,,,,,,,,,,,,,,,,,,,,,,,,,,,,,0.075,,,,,,,,,,,,,,,,,,,,,,,,,,,,right,1,40,30,70,1,2744.73668,2744.73668,2744.73668,None,None,2,0,0.0307967,,,,,,,,,,,,,,,,,,,,,,10,P1,2,2024-09-27_12h41.39.153,uWM_experiment,2022.2.3,119.9239203
,,,,,,,,,,,,,,,,,,,,6,0,6,0,21,0,21,0,,,,,,,,,,,,,,,,,,,,,,,,,,,,,,,,,,,,,,,,,,,,,,,,,,,,,,,,,,,,,,,,,,,,,0.065,,,,,,,,,,,,,,,,,,,,,,,,,,,,right,1,70,30,100,1,2750.59531,2750.59531,2750.59531,None,None,2,0,0.0680796,,,,,,,,,,,,,,,,,,,,,,10,P1,2,2024-09-27_12h41.39.153,uWM_experiment,2022.2.3,119.9239203
,,,,,,,,,,,,,,,,,,,,6,0,6,0,22,0,22,0,,,,,,,,,,,,,,,,,,,,,,,,,,,,,,,,,,,,,,,,,,,,,,,,,,,,,,,,,,,,,,,,,,,,,0,,,,,,,,,,,,,,,,,,,,,,,,,,,,left,0,70,30,100,0,2757.437354,2757.437354,2757.437354,None,None,1,1,0.0340522,,,,,,,,,,,,,,,,,,,,,,10,P1,2,2024-09-27_12h41.39.153,uWM_experiment,2022.2.3,119.9239203
,,,,,,,,,,,,,,,,,,,,6,0,6,0,23,0,23,0,,,,,,,,,,,,,,,,,,,,,,,,,,,,,,,,,,,,,,,,,,,,,,,,,,,,,,,,,,,,,,,,,,,,,0.055,,,,,,,,,,,,,,,,,,,,,,,,,,,,left,1,70,-30,40,1,2763.42934,2763.42934,2763.42934,None,None,2,0,0.0340106,,,,,,,,,,,,,,,,,,,,,,10,P1,2,2024-09-27_12h41.39.153,uWM_experiment,2022.2.3,119.9239203
,,,,,,,,,,,,,,,,,,,,6,0,6,0,,,,,0,0,0,0,,,,,,,,,,,,,,,,,,,,,,,,,,,,,,,,,,,,,,,,,,,,,,,,,,,,,,,,,,,,,,,,,,,,,,,,,,,,,,,,,,,,,,,,,,,,,,,,,,,,,,,,,,,2763.487661,2763.487661,space,0.8077971,None,space,,,,,2764.312721,2764.312721,0.5026835,,,,,,,,,10,P1,2,2024-09-27_12h41.39.153,uWM_experiment,2022.2.3,119.9239203
,,,,,,,,,,,,,,,,,,,,6,0,6,0,,,,,1,0,1,0,,,,,,,,,,,,,,,,,,,,,,,,,,,,,,,,,,,,,,,,,,,,,,,,,,,,,,,,,,,,,,,,,,,,,,,,,,,,,,,,,,,,,,,,,,,,,,,,,,,,,,,,,,,,,,,,,,,,,,,,,,,,,,,,10,P1,2,2024-09-27_12h41.39.153,uWM_experiment,2022.2.3,119.9239203
,,,,,,,,,,,,,,,,,,,,6,0,6,0,,,,,2,0,2,0,,,,,,,,,,,,,,,,,,,,,,,,,,,,,,,,,,,,,,,,,,,,,,,,,,,,,,,,,,,,,,,,,,,,,,,,,,,,,,,,,,,,,,,,,,,,,,,,,,,,,,,,,,,,,,,,,,,,,,,,,,,,,,,,10,P1,2,2024-09-27_12h41.39.153,uWM_experiment,2022.2.3,119.9239203
,,,,,,,,,,,,,,,,,,,,7,0,7,0,0,0,0,0,,,,,,,,,,,,,,,,,,,,,,,,,,,,,,,,,,,,,,,,,,,,,,,,,,,,,,,,,,,,,,,,,,,,,0.045,,,,,,,,,,,,,,,,,,,,2777.480083,2778.180114,2778.471808,2779.171827,2779.471844,2780.171881,2780.171881,2780.496893,right,1,100,30,130,1,2785.888866,2785.888866,2785.888866,None,None,2,0,0.0464761,,,,,,,space,,,,,,,2776.071697,2776.071697,1.3918724,,,,,,10,P1,2,2024-09-27_12h41.39.153,uWM_experiment,2022.2.3,119.9239203
,,,,,,,,,,,,,,,,,,,,7,0,7,0,1,0,1,0,,,,,,,,,,,,,,,,,,,,,,,,,,,,,,,,,,,,,,,,,,,,,,,,,,,,,,,,,,,,,,,,,,,,,0.1,,,,,,,,,,,,,,,,,,,,,,,,,,,,right,1,10,30,40,2,2791.922508,2791.922508,2791.922508,None,None,4,0,0.0688106,,,,,,,,,,,,,,,,,,,,,,10,P1,2,2024-09-27_12h41.39.153,uWM_experiment,2022.2.3,119.9239203
,,,,,,,,,,,,,,,,,,,,7,0,7,0,2,0,2,0,,,,,,,,,,,,,,,,,,,,,,,,,,,,,,,,,,,,,,,,,,,,,,,,,,,,,,,,,,,,,,,,,,,,,0.035,,,,,,,,,,,,,,,,,,,,,,,,,,,,right,1,160,30,190,1,2798.056169,2798.056169,2798.056169,None,None,2,0,0.0471362,,,,,,,,,,,,,,,,,,,,,,10,P1,2,2024-09-27_12h41.39.153,uWM_experiment,2022.2.3,119.9239203
,,,,,,,,,,,,,,,,,,,,7,0,7,0,3,0,3,0,,,,,,,,,,,,,,,,,,,,,,,,,,,,,,,,,,,,,,,,,,,,,,,,,,,,,,,,,,,,,,,,,,,,,0.025,,,,,,,,,,,,,,,,,,,,,,,,,,,,right,1,70,30,100,1,2803.839812,2803.839812,2803.839812,None,None,2,0,0.0316178,,,,,,,,,,,,,,,,,,,,,,10,P1,2,2024-09-27_12h41.39.153,uWM_experiment,2022.2.3,119.9239203
,,,,,,,,,,,,,,,,,,,,7,0,7,0,4,0,4,0,,,,,,,,,,,,,,,,,,,,,,,,,,,,,,,,,,,,,,,,,,,,,,,,,,,,,,,,,,,,,,,,,,,,,0.1,,,,,,,,,,,,,,,,,,,,,,,,,,,,left,1,70,-30,40,2,2810.731825,2810.731825,2810.731825,None,None,4,0,0.0835784,,,,,,,,,,,,,,,,,,,,,,10,P1,2,2024-09-27_12h41.39.153,uWM_experiment,2022.2.3,119.9239203
,,,,,,,,,,,,,,,,,,,,7,0,7,0,5,0,5,0,,,,,,,,,,,,,,,,,,,,,,,,,,,,,,,,,,,,,,,,,,,,,,,,,,,,,,,,,,,,,,,,,,,,,0.015,,,,,,,,,,,,,,,,,,,,,,,,,,,,right,0,160,-30,130,1,2816.673823,2816.673823,2816.673823,None,None,1,1,0.0695644,,,,,,,,,,,,,,,,,,,,,,10,P1,2,2024-09-27_12h41.39.153,uWM_experiment,2022.2.3,119.9239203
,,,,,,,,,,,,,,,,,,,,7,0,7,0,6,0,6,0,,,,,,,,,,,,,,,,,,,,,,,,,,,,,,,,,,,,,,,,,,,,,,,,,,,,,,,,,,,,,,,,,,,,,0.025,,,,,,,,,,,,,,,,,,,,,,,,,,,,left,0,160,30,190,1,2822.707482,2822.707482,2822.707482,None,None,1,1,0.0437792,,,,,,,,,,,,,,,,,,,,,,10,P1,2,2024-09-27_12h41.39.153,uWM_experiment,2022.2.3,119.9239203
,,,,,,,,,,,,,,,,,,,,7,0,7,0,7,0,7,0,,,,,,,,,,,,,,,,,,,,,,,,,,,,,,,,,,,,,,,,,,,,,,,,,,,,,,,,,,,,,,,,,,,,,0.035,,,,,,,,,,,,,,,,,,,,,,,,,,,,right,1,100,30,130,1,2828.457797,2828.457797,2828.457797,None,None,1,1,0.0454351,,,,,,,,,,,,,,,,,,,,,,10,P1,2,2024-09-27_12h41.39.153,uWM_experiment,2022.2.3,119.9239203
,,,,,,,,,,,,,,,,,,,,7,0,7,0,8,0,8,0,,,,,,,,,,,,,,,,,,,,,,,,,,,,,,,,,,,,,,,,,,,,,,,,,,,,,,,,,,,,,,,,,,,,,0.045,,,,,,,,,,,,,,,,,,,,,,,,,,,,right,1,130,30,160,1,2834.291427,2834.291427,2834.291427,None,None,2,0,0.0278364,,,,,,,,,,,,,,,,,,,,,,10,P1,2,2024-09-27_12h41.39.153,uWM_experiment,2022.2.3,119.9239203
,,,,,,,,,,,,,,,,,,,,7,0,7,0,9,0,9,0,,,,,,,,,,,,,,,,,,,,,,,,,,,,,,,,,,,,,,,,,,,,,,,,,,,,,,,,,,,,,,,,,,,,,0.035,,,,,,,,,,,,,,,,,,,,,,,,,,,,right,1,130,30,160,1,2840.166735,2840.166735,2840.166735,None,None,2,0,0.0565029,,,,,,,,,,,,,,,,,,,,,,10,P1,2,2024-09-27_12h41.39.153,uWM_experiment,2022.2.3,119.9239203
,,,,,,,,,,,,,,,,,,,,7,0,7,0,10,0,10,0,,,,,,,,,,,,,,,,,,,,,,,,,,,,,,,,,,,,,,,,,,,,,,,,,,,,,,,,,,,,,,,,,,,,,0.025,,,,,,,,,,,,,,,,,,,,,,,,,,,,right,1,70,30,100,1,2846.733753,2846.733753,2846.733753,None,None,2,0,0.033663,,,,,,,,,,,,,,,,,,,,,,10,P1,2,2024-09-27_12h41.39.153,uWM_experiment,2022.2.3,119.9239203
,,,,,,,,,,,,,,,,,,,,7,0,7,0,11,0,11,0,,,,,,,,,,,,,,,,,,,,,,,,,,,,,,,,,,,,,,,,,,,,,,,,,,,,,,,,,,,,,,,,,,,,,0.015,,,,,,,,,,,,,,,,,,,,,,,,,,,,right,0,100,-30,70,1,2855.584201,2855.584201,2855.584201,None,None,1,1,0.0310543,,,,,,,,,,,,,,,,,,,,,,10,P1,2,2024-09-27_12h41.39.153,uWM_experiment,2022.2.3,119.9239203
,,,,,,,,,,,,,,,,,,,,7,0,7,0,12,0,12,0,,,,,,,,,,,,,,,,,,,,,,,,,,,,,,,,,,,,,,,,,,,,,,,,,,,,,,,,,,,,,,,,,,,,,0.025,,,,,,,,,,,,,,,,,,,,,,,,,,,,left,1,100,-30,70,1,2862.292909,2862.292909,2862.292909,None,None,1,1,0.0342676,,,,,,,,,,,,,,,,,,,,,,10,P1,2,2024-09-27_12h41.39.153,uWM_experiment,2022.2.3,119.9239203
,,,,,,,,,,,,,,,,,,,,7,0,7,0,13,0,13,0,,,,,,,,,,,,,,,,,,,,,,,,,,,,,,,,,,,,,,,,,,,,,,,,,,,,,,,,,,,,,,,,,,,,,0.035,,,,,,,,,,,,,,,,,,,,,,,,,,,,left,1,70,-30,40,1,2869.74331,2869.74331,2869.74331,None,None,1,1,0.0958221,,,,,,,,,,,,,,,,,,,,,,10,P1,2,2024-09-27_12h41.39.153,uWM_experiment,2022.2.3,119.9239203
,,,,,,,,,,,,,,,,,,,,7,0,7,0,14,0,14,0,,,,,,,,,,,,,,,,,,,,,,,,,,,,,,,,,,,,,,,,,,,,,,,,,,,,,,,,,,,,,,,,,,,,,0.045,,,,,,,,,,,,,,,,,,,,,,,,,,,,right,1,160,30,190,1,2875.801952,2875.801952,2875.801952,None,None,2,0,0.029235,,,,,,,,,,,,,,,,,,,,,,10,P1,2,2024-09-27_12h41.39.153,uWM_experiment,2022.2.3,119.9239203
,,,,,,,,,,,,,,,,,,,,7,0,7,0,15,0,15,0,,,,,,,,,,,,,,,,,,,,,,,,,,,,,,,,,,,,,,,,,,,,,,,,,,,,,,,,,,,,,,,,,,,,,0.035,,,,,,,,,,,,,,,,,,,,,,,,,,,,left,1,40,-30,10,1,2881.64391,2881.64391,2881.64391,None,None,2,0,0.0592456,,,,,,,,,,,,,,,,,,,,,,10,P1,2,2024-09-27_12h41.39.153,uWM_experiment,2022.2.3,119.9239203
,,,,,,,,,,,,,,,,,,,,7,0,7,0,16,0,16,0,,,,,,,,,,,,,,,,,,,,,,,,,,,,,,,,,,,,,,,,,,,,,,,,,,,,,,,,,,,,,,,,,,,,,0.025,,,,,,,,,,,,,,,,,,,,,,,,,,,,right,1,40,30,70,1,2888.477649,2888.477649,2888.477649,None,None,1,1,0.0415625,,,,,,,,,,,,,,,,,,,,,,10,P1,2,2024-09-27_12h41.39.153,uWM_experiment,2022.2.3,119.9239203
,,,,,,,,,,,,,,,,,,,,7,0,7,0,17,0,17,0,,,,,,,,,,,,,,,,,,,,,,,,,,,,,,,,,,,,,,,,,,,,,,,,,,,,,,,,,,,,,,,,,,,,,0.035,,,,,,,,,,,,,,,,,,,,,,,,,,,,left,0,160,30,190,1,2894.052922,2894.052922,2894.052922,None,None,1,1,0.0662615,,,,,,,,,,,,,,,,,,,,,,10,P1,2,2024-09-27_12h41.39.153,uWM_experiment,2022.2.3,119.9239203
,,,,,,,,,,,,,,,,,,,,7,0,7,0,18,0,18,0,,,,,,,,,,,,,,,,,,,,,,,,,,,,,,,,,,,,,,,,,,,,,,,,,,,,,,,,,,,,,,,,,,,,,0,,,,,,,,,,,,,,,,,,,,,,,,,,,,right,0,10,-30,-20,0,2900.336619,2900.336619,2900.336619,None,None,1,1,0.0705195,,,,,,,,,,,,,,,,,,,,,,10,P1,2,2024-09-27_12h41.39.153,uWM_experiment,2022.2.3,119.9239203
,,,,,,,,,,,,,,,,,,,,7,0,7,0,19,0,19,0,,,,,,,,,,,,,,,,,,,,,,,,,,,,,,,,,,,,,,,,,,,,,,,,,,,,,,,,,,,,,,,,,,,,,0.045,,,,,,,,,,,,,,,,,,,,,,,,,,,,left,1,70,-30,40,1,2906.253573,2906.253573,2906.253573,None,None,2,0,0.0736022,,,,,,,,,,,,,,,,,,,,,,10,P1,2,2024-09-27_12h41.39.153,uWM_experiment,2022.2.3,119.9239203
,,,,,,,,,,,,,,,,,,,,7,0,7,0,20,0,20,0,,,,,,,,,,,,,,,,,,,,,,,,,,,,,,,,,,,,,,,,,,,,,,,,,,,,,,,,,,,,,,,,,,,,,0.035,,,,,,,,,,,,,,,,,,,,,,,,,,,,left,0,100,30,130,1,2912.062213,2912.062213,2912.062213,None,None,1,1,0.4809476,,,,,,,,,,,,,,,,,,,,,,10,P1,2,2024-09-27_12h41.39.153,uWM_experiment,2022.2.3,119.9239203
,,,,,,,,,,,,,,,,,,,,7,0,7,0,21,0,21,0,,,,,,,,,,,,,,,,,,,,,,,,,,,,,,,,,,,,,,,,,,,,,,,,,,,,,,,,,,,,,,,,,,,,,0,,,,,,,,,,,,,,,,,,,,,,,,,,,,left,0,100,30,130,0,2918.245872,2918.245872,2918.245872,None,None,1,1,0.0653261,,,,,,,,,,,,,,,,,,,,,,10,P1,2,2024-09-27_12h41.39.153,uWM_experiment,2022.2.3,119.9239203
,,,,,,,,,,,,,,,,,,,,7,0,7,0,22,0,22,0,,,,,,,,,,,,,,,,,,,,,,,,,,,,,,,,,,,,,,,,,,,,,,,,,,,,,,,,,,,,,,,,,,,,,0.045,,,,,,,,,,,,,,,,,,,,,,,,,,,,right,0,70,-30,40,1,2924.637875,2924.637875,2924.637875,None,None,1,1,0.1373267,,,,,,,,,,,,,,,,,,,,,,10,P1,2,2024-09-27_12h41.39.153,uWM_experiment,2022.2.3,119.9239203
,,,,,,,,,,,,,,,,,,,,7,0,7,0,23,0,23,0,,,,,,,,,,,,,,,,,,,,,,,,,,,,,,,,,,,,,,,,,,,,,,,,,,,,,,,,,,,,,,,,,,,,,0.055,,,,,,,,,,,,,,,,,,,,,,,,,,,,right,1,40,30,70,1,2930.604844,2930.604844,2930.604844,None,None,1,1,0.050243,,,,,,,,,,,,,,,,,,,,,,10,P1,2,2024-09-27_12h41.39.153,uWM_experiment,2022.2.3,119.9239203
,,,,,,,,,,,,,,,,,,,,7,0,7,0,,,,,0,0,0,0,,,,,,,,,,,,,,,,,,,,,,,,,,,,,,,,,,,,,,,,,,,,,,,,,,,,,,,,,,,,,,,,,,,,,,,,,,,,,,,,,,,,,,,,,,,,,,,,,,,,,,,,,,,2930.679853,2930.679853,space,6.9992817,None,None,,,,,,,,,,,,,,,,10,P1,2,2024-09-27_12h41.39.153,uWM_experiment,2022.2.3,119.9239203
,,,,,,,,,,,,,,,,,,,,7,0,7,0,,,,,1,0,1,0,,,,,,,,,,,,,,,,,,,,,,,,,,,,,,,,,,,,,,,,,,,,,,,,,,,,,,,,,,,,,,,,,,,,,,,,,,,,,,,,,,,,,,,,,,,,,,,,,,,,,,,,,,,,,,,,,,,,,,,,,,,,,,,,10,P1,2,2024-09-27_12h41.39.153,uWM_experiment,2022.2.3,119.9239203
,,,,,,,,,,,,,,,,,,,,7,0,7,0,,,,,2,0,2,0,,,,,,,,,,,,,,,,,,,,,,,,,,,,,,,,,,,,,,,,,,,,,,,,,,,,,,,,,,,,,,,,,,,,,,,,,,,,,,,,,,,,,,,,,,,,,,,,,,,,,,,,,,,,,,,,,,,,,,,,,,,,,,,,10,P1,2,2024-09-27_12h41.39.153,uWM_experiment,2022.2.3,119.9239203
,,,,,,,,,,,,,,,,,,,,8,0,8,0,0,0,0,0,,,,,,,,,,,,,,,,,,,,,,,,,,,,,,,,,,,,,,,,,,,,,,,,,,,,,,,,,,,,,,,,,,,,,0.065,,,,,,,,,,,,,,,,,,,,2937.696911,2938.396931,2938.696953,2939.396982,2939.697002,2940.397035,2940.397035,2940.713716,right,1,160,30,190,1,2946.847387,2946.847387,2946.847387,None,None,2,0,0.0638032,,,,,,,None,,,,,,,,,,,,,,,10,P1,2,2024-09-27_12h41.39.153,uWM_experiment,2022.2.3,119.9239203
,,,,,,,,,,,,,,,,,,,,8,0,8,0,1,0,1,0,,,,,,,,,,,,,,,,,,,,,,,,,,,,,,,,,,,,,,,,,,,,,,,,,,,,,,,,,,,,,,,,,,,,,0,,,,,,,,,,,,,,,,,,,,,,,,,,,,left,1,160,-30,130,0,2952.57269,2952.57269,2952.57269,None,None,1,1,0.050489,,,,,,,,,,,,,,,,,,,,,,10,P1,2,2024-09-27_12h41.39.153,uWM_experiment,2022.2.3,119.9239203
,,,,,,,,,,,,,,,,,,,,8,0,8,0,2,0,2,0,,,,,,,,,,,,,,,,,,,,,,,,,,,,,,,,,,,,,,,,,,,,,,,,,,,,,,,,,,,,,,,,,,,,,0.055,,,,,,,,,,,,,,,,,,,,,,,,,,,,right,1,10,30,40,1,2959.481389,2959.481389,2959.481389,None,None,2,0,0.0777314,,,,,,,,,,,,,,,,,,,,,,10,P1,2,2024-09-27_12h41.39.153,uWM_experiment,2022.2.3,119.9239203
,,,,,,,,,,,,,,,,,,,,8,0,8,0,3,0,3,0,,,,,,,,,,,,,,,,,,,,,,,,,,,,,,,,,,,,,,,,,,,,,,,,,,,,,,,,,,,,,,,,,,,,,0.045,,,,,,,,,,,,,,,,,,,,,,,,,,,,left,1,130,-30,100,1,2966.240079,2966.240079,2966.240079,None,None,2,0,0.0390987,,,,,,,,,,,,,,,,,,,,,,10,P1,2,2024-09-27_12h41.39.153,uWM_experiment,2022.2.3,119.9239203
,,,,,,,,,,,,,,,,,,,,8,0,8,0,4,0,4,0,,,,,,,,,,,,,,,,,,,,,,,,,,,,,,,,,,,,,,,,,,,,,,,,,,,,,,,,,,,,,,,,,,,,,0.035,,,,,,,,,,,,,,,,,,,,,,,,,,,,right,1,10,30,40,1,2972.073725,2972.073725,2972.073725,None,None,2,0,0.0772685,,,,,,,,,,,,,,,,,,,,,,10,P1,2,2024-09-27_12h41.39.153,uWM_experiment,2022.2.3,119.9239203
,,,,,,,,,,,,,,,,,,,,8,0,8,0,5,0,5,0,,,,,,,,,,,,,,,,,,,,,,,,,,,,,,,,,,,,,,,,,,,,,,,,,,,,,,,,,,,,,,,,,,,,,0.025,,,,,,,,,,,,,,,,,,,,,,,,,,,,left,1,130,-30,100,1,2978.790768,2978.790768,2978.790768,None,None,1,1,0.0403727,,,,,,,,,,,,,,,,,,,,,,10,P1,2,2024-09-27_12h41.39.153,uWM_experiment,2022.2.3,119.9239203
,,,,,,,,,,,,,,,,,,,,8,0,8,0,6,0,6,0,,,,,,,,,,,,,,,,,,,,,,,,,,,,,,,,,,,,,,,,,,,,,,,,,,,,,,,,,,,,,,,,,,,,,0,,,,,,,,,,,,,,,,,,,,,,,,,,,,right,0,40,-30,10,0,2984.491058,2984.491058,2984.491058,None,None,1,1,0.1320347,,,,,,,,,,,,,,,,,,,,,,10,P1,2,2024-09-27_12h41.39.153,uWM_experiment,2022.2.3,119.9239203
,,,,,,,,,,,,,,,,,,,,8,0,8,0,7,0,7,0,,,,,,,,,,,,,,,,,,,,,,,,,,,,,,,,,,,,,,,,,,,,,,,,,,,,,,,,,,,,,,,,,,,,,0.035,,,,,,,,,,,,,,,,,,,,,,,,,,,,left,1,160,-30,130,1,2990.274689,2990.274689,2990.274689,None,None,1,1,0.0523021,,,,,,,,,,,,,,,,,,,,,,10,P1,2,2024-09-27_12h41.39.153,uWM_experiment,2022.2.3,119.9239203
,,,,,,,,,,,,,,,,,,,,8,0,8,0,8,0,8,0,,,,,,,,,,,,,,,,,,,,,,,,,,,,,,,,,,,,,,,,,,,,,,,,,,,,,,,,,,,,,,,,,,,,,0,,,,,,,,,,,,,,,,,,,,,,,,,,,,left,1,40,-30,10,0,2995.524953,2995.524953,2995.524953,None,None,1,1,0.0580662,,,,,,,,,,,,,,,,,,,,,,10,P1,2,2024-09-27_12h41.39.153,uWM_experiment,2022.2.3,119.9239203
,,,,,,,,,,,,,,,,,,,,8,0,8,0,9,0,9,0,,,,,,,,,,,,,,,,,,,,,,,,,,,,,,,,,,,,,,,,,,,,,,,,,,,,,,,,,,,,,,,,,,,,,0,,,,,,,,,,,,,,,,,,,,,,,,,,,,right,0,70,-30,40,0,3001.425317,3001.425317,3001.425317,None,None,1,1,0.0536629,,,,,,,,,,,,,,,,,,,,,,10,P1,2,2024-09-27_12h41.39.153,uWM_experiment,2022.2.3,119.9239203
,,,,,,,,,,,,,,,,,,,,8,0,8,0,10,0,10,0,,,,,,,,,,,,,,,,,,,,,,,,,,,,,,,,,,,,,,,,,,,,,,,,,,,,,,,,,,,,,,,,,,,,,0.045,,,,,,,,,,,,,,,,,,,,,,,,,,,,left,1,40,-30,10,1,3007.608945,3007.608945,3007.608945,None,None,1,1,0.0700499,,,,,,,,,,,,,,,,,,,,,,10,P1,2,2024-09-27_12h41.39.153,uWM_experiment,2022.2.3,119.9239203
,,,,,,,,,,,,,,,,,,,,8,0,8,0,11,0,11,0,,,,,,,,,,,,,,,,,,,,,,,,,,,,,,,,,,,,,,,,,,,,,,,,,,,,,,,,,,,,,,,,,,,,,0,,,,,,,,,,,,,,,,,,,,,,,,,,,,left,0,100,30,130,0,3013.18424,3013.18424,3013.18424,None,None,1,1,0.0708667,,,,,,,,,,,,,,,,,,,,,,10,P1,2,2024-09-27_12h41.39.153,uWM_experiment,2022.2.3,119.9239203
,,,,,,,,,,,,,,,,,,,,8,0,8,0,12,0,12,0,,,,,,,,,,,,,,,,,,,,,,,,,,,,,,,,,,,,,,,,,,,,,,,,,,,,,,,,,,,,,,,,,,,,,0.055,,,,,,,,,,,,,,,,,,,,,,,,,,,,left,1,160,-30,130,1,3019.067885,3019.067885,3019.067885,None,None,2,0,0.0510551,,,,,,,,,,,,,,,,,,,,,,10,P1,2,2024-09-27_12h41.39.153,uWM_experiment,2022.2.3,119.9239203
,,,,,,,,,,,,,,,,,,,,8,0,8,0,13,0,13,0,,,,,,,,,,,,,,,,,,,,,,,,,,,,,,,,,,,,,,,,,,,,,,,,,,,,,,,,,,,,,,,,,,,,,0.045,,,,,,,,,,,,,,,,,,,,,,,,,,,,right,1,160,30,190,1,3026.409945,3026.409945,3026.409945,None,None,2,0,0.0449991,,,,,,,,,,,,,,,,,,,,,,10,P1,2,2024-09-27_12h41.39.153,uWM_experiment,2022.2.3,119.9239203
,,,,,,,,,,,,,,,,,,,,8,0,8,0,14,0,14,0,,,,,,,,,,,,,,,,,,,,,,,,,,,,,,,,,,,,,,,,,,,,,,,,,,,,,,,,,,,,,,,,,,,,,0.035,,,,,,,,,,,,,,,,,,,,,,,,,,,,left,0,100,30,130,1,3032.151901,3032.151901,3032.151901,None,None,1,1,0.0469962,,,,,,,,,,,,,,,,,,,,,,10,P1,2,2024-09-27_12h41.39.153,uWM_experiment,2022.2.3,119.9239203
,,,,,,,,,,,,,,,,,,,,8,0,8,0,15,0,15,0,,,,,,,,,,,,,,,,,,,,,,,,,,,,,,,,,,,,,,,,,,,,,,,,,,,,,,,,,,,,,,,,,,,,,0.1,,,,,,,,,,,,,,,,,,,,,,,,,,,,left,1,160,-30,130,2,3038.635593,3038.635593,3038.635593,None,None,2,0,0.0513072,,,,,,,,,,,,,,,,,,,,,,10,P1,2,2024-09-27_12h41.39.153,uWM_experiment,2022.2.3,119.9239203
,,,,,,,,,,,,,,,,,,,,8,0,8,0,16,0,16,0,,,,,,,,,,,,,,,,,,,,,,,,,,,,,,,,,,,,,,,,,,,,,,,,,,,,,,,,,,,,,,,,,,,,,0,,,,,,,,,,,,,,,,,,,,,,,,,,,,left,0,70,30,100,0,3044.360878,3044.360878,3044.360878,None,None,2,0,0.0219977,,,,,,,,,,,,,,,,,,,,,,10,P1,2,2024-09-27_12h41.39.153,uWM_experiment,2022.2.3,119.9239203
,,,,,,,,,,,,,,,,,,,,8,0,8,0,17,0,17,0,,,,,,,,,,,,,,,,,,,,,,,,,,,,,,,,,,,,,,,,,,,,,,,,,,,,,,,,,,,,,,,,,,,,,0,,,,,,,,,,,,,,,,,,,,,,,,,,,,right,1,130,30,160,0,3050.602896,3050.602896,3050.602896,None,None,2,0,0.027981,,,,,,,,,,,,,,,,,,,,,,10,P1,2,2024-09-27_12h41.39.153,uWM_experiment,2022.2.3,119.9239203
,,,,,,,,,,,,,,,,,,,,8,0,8,0,18,0,18,0,,,,,,,,,,,,,,,,,,,,,,,,,,,,,,,,,,,,,,,,,,,,,,,,,,,,,,,,,,,,,,,,,,,,,0,,,,,,,,,,,,,,,,,,,,,,,,,,,,left,0,100,30,130,0,3056.303195,3056.303195,3056.303195,None,None,1,1,0.0397383,,,,,,,,,,,,,,,,,,,,,,10,P1,2,2024-09-27_12h41.39.153,uWM_experiment,2022.2.3,119.9239203
,,,,,,,,,,,,,,,,,,,,8,0,8,0,19,0,19,0,,,,,,,,,,,,,,,,,,,,,,,,,,,,,,,,,,,,,,,,,,,,,,,,,,,,,,,,,,,,,,,,,,,,,0.045,,,,,,,,,,,,,,,,,,,,,,,,,,,,right,1,100,30,130,1,3062.045168,3062.045168,3062.045168,None,None,2,0,0.0257121,,,,,,,,,,,,,,,,,,,,,,10,P1,2,2024-09-27_12h41.39.153,uWM_experiment,2022.2.3,119.9239203
,,,,,,,,,,,,,,,,,,,,8,0,8,0,20,0,20,0,,,,,,,,,,,,,,,,,,,,,,,,,,,,,,,,,,,,,,,,,,,,,,,,,,,,,,,,,,,,,,,,,,,,,0,,,,,,,,,,,,,,,,,,,,,,,,,,,,left,1,130,-30,100,0,3067.695464,3067.695464,3067.695464,None,None,2,0,0.0394601,,,,,,,,,,,,,,,,,,,,,,10,P1,2,2024-09-27_12h41.39.153,uWM_experiment,2022.2.3,119.9239203
,,,,,,,,,,,,,,,,,,,,8,0,8,0,21,0,21,0,,,,,,,,,,,,,,,,,,,,,,,,,,,,,,,,,,,,,,,,,,,,,,,,,,,,,,,,,,,,,,,,,,,,,0.035,,,,,,,,,,,,,,,,,,,,,,,,,,,,left,1,70,-30,40,1,3073.729111,3073.729111,3073.729111,None,None,2,0,0.0297257,,,,,,,,,,,,,,,,,,,,,,10,P1,2,2024-09-27_12h41.39.153,uWM_experiment,2022.2.3,119.9239203
,,,,,,,,,,,,,,,,,,,,8,0,8,0,22,0,22,0,,,,,,,,,,,,,,,,,,,,,,,,,,,,,,,,,,,,,,,,,,,,,,,,,,,,,,,,,,,,,,,,,,,,,0.025,,,,,,,,,,,,,,,,,,,,,,,,,,,,left,1,70,-30,40,1,3079.021047,3079.021047,3079.021047,None,None,1,1,0.0578526,,,,,,,,,,,,,,,,,,,,,,10,P1,2,2024-09-27_12h41.39.153,uWM_experiment,2022.2.3,119.9239203
,,,,,,,,,,,,,,,,,,,,8,0,8,0,23,0,23,0,,,,,,,,,,,,,,,,,,,,,,,,,,,,,,,,,,,,,,,,,,,,,,,,,,,,,,,,,,,,,,,,,,,,,0.035,,,,,,,,,,,,,,,,,,,,,,,,,,,,left,1,130,-30,100,1,3085.413073,3085.413073,3085.413073,None,None,2,0,0.0257479,,,,,,,,,,,,,,,,,,,,,,10,P1,2,2024-09-27_12h41.39.153,uWM_experiment,2022.2.3,119.9239203
,,,,,,,,,,,,,,,,,,,,8,0,8,0,,,,,0,0,0,0,,,,,,,,,,,,,,,,,,,,,,,,,,,,,,,,,,,,,,,,,,,,,,,,,,,,,,,,,,,,,,,,,,,,,,,,,,,,,,,,,,,,,,,,,,,,,,,,,,,,,,,,,,,3085.463081,3085.463081,space,1.0477784,space,None,,3086.529793,3086.529793,0.6931525,,,,,,,,,,,,10,P1,2,2024-09-27_12h41.39.153,uWM_experiment,2022.2.3,119.9239203
,,,,,,,,,,,,,,,,,,,,8,0,8,0,,,,,1,0,1,0,,,,,,,,,,,,,,,,,,,,,,,,,,,,,,,,,,,,,,,,,,,,,,,,,,,,,,,,,,,,,,,,,,,,,,,,,,,,,,,,,,,,,,,,,,,,,,,,,,,,,,,,,,,,,,,,,,,,,,,,,,,,,,,,10,P1,2,2024-09-27_12h41.39.153,uWM_experiment,2022.2.3,119.9239203
,,,,,,,,,,,,,,,,,,,,8,0,8,0,,,,,2,0,2,0,,,,,,,,,,,,,,,,,,,,,,,,,,,,,,,,,,,,,,,,,,,,,,,,,,,,,,,,,,,,,,,,,,,,,,,,,,,,,,,,,,,,,,,,,,,,,,,,,,,,,,,,,,,,,,,,,,,,,,,,,,,,,,,,10,P1,2,2024-09-27_12h41.39.153,uWM_experiment,2022.2.3,119.9239203
,,,,,,,,,,,,,,,,,,,,9,0,9,0,0,0,0,0,,,,,,,,,,,,,,,,,,,,,,,,,,,,,,,,,,,,,,,,,,,,,,,,,,,,,,,,,,,,,,,,,,,,,0.025,,,,,,,,,,,,,,,,,,,,3087.238164,3087.938205,3088.23825,3088.938254,3089.238276,3089.938311,3089.938311,3090.255002,right,1,130,30,160,1,3095.530279,3095.530279,3095.530279,None,None,1,1,0.0444884,,,,,,,None,,,,,,,,,,,,,,,10,P1,2,2024-09-27_12h41.39.153,uWM_experiment,2022.2.3,119.9239203
,,,,,,,,,,,,,,,,,,,,9,0,9,0,1,0,1,0,,,,,,,,,,,,,,,,,,,,,,,,,,,,,,,,,,,,,,,,,,,,,,,,,,,,,,,,,,,,,,,,,,,,,0.035,,,,,,,,,,,,,,,,,,,,,,,,,,,,left,1,10,-30,-20,1,3101.322247,3101.322247,3101.322247,None,None,1,1,0.0445502,,,,,,,,,,,,,,,,,,,,,,10,P1,2,2024-09-27_12h41.39.153,uWM_experiment,2022.2.3,119.9239203
,,,,,,,,,,,,,,,,,,,,9,0,9,0,2,0,2,0,,,,,,,,,,,,,,,,,,,,,,,,,,,,,,,,,,,,,,,,,,,,,,,,,,,,,,,,,,,,,,,,,,,,,0.045,,,,,,,,,,,,,,,,,,,,,,,,,,,,right,1,10,30,40,1,3108.247618,3108.247618,3108.247618,None,None,2,0,0.0232804,,,,,,,,,,,,,,,,,,,,,,10,P1,2,2024-09-27_12h41.39.153,uWM_experiment,2022.2.3,119.9239203
,,,,,,,,,,,,,,,,,,,,9,0,9,0,3,0,3,0,,,,,,,,,,,,,,,,,,,,,,,,,,,,,,,,,,,,,,,,,,,,,,,,,,,,,,,,,,,,,,,,,,,,,0,,,,,,,,,,,,,,,,,,,,,,,,,,,,right,1,10,30,40,0,3115.047981,3115.047981,3115.047981,None,None,1,1,0.0707728,,,,,,,,,,,,,,,,,,,,,,10,P1,2,2024-09-27_12h41.39.153,uWM_experiment,2022.2.3,119.9239203
,,,,,,,,,,,,,,,,,,,,9,0,9,0,4,0,4,0,,,,,,,,,,,,,,,,,,,,,,,,,,,,,,,,,,,,,,,,,,,,,,,,,,,,,,,,,,,,,,,,,,,,,0.035,,,,,,,,,,,,,,,,,,,,,,,,,,,,left,0,160,30,190,1,3121.514984,3121.514984,3121.514984,None,None,1,1,0.4117997,,,,,,,,,,,,,,,,,,,,,,10,P1,2,2024-09-27_12h41.39.153,uWM_experiment,2022.2.3,119.9239203
,,,,,,,,,,,,,,,,,,,,9,0,9,0,5,0,5,0,,,,,,,,,,,,,,,,,,,,,,,,,,,,,,,,,,,,,,,,,,,,,,,,,,,,,,,,,,,,,,,,,,,,,0.045,,,,,,,,,,,,,,,,,,,,,,,,,,,,right,1,160,30,190,1,3127.506974,3127.506974,3127.506974,None,None,2,0,0.0677494,,,,,,,,,,,,,,,,,,,,,,10,P1,2,2024-09-27_12h41.39.153,uWM_experiment,2022.2.3,119.9239203
,,,,,,,,,,,,,,,,,,,,9,0,9,0,6,0,6,0,,,,,,,,,,,,,,,,,,,,,,,,,,,,,,,,,,,,,,,,,,,,,,,,,,,,,,,,,,,,,,,,,,,,,0,,,,,,,,,,,,,,,,,,,,,,,,,,,,right,0,160,-30,130,0,3133.857314,3133.857314,3133.857314,None,None,2,0,0.053401,,,,,,,,,,,,,,,,,,,,,,10,P1,2,2024-09-27_12h41.39.153,uWM_experiment,2022.2.3,119.9239203
,,,,,,,,,,,,,,,,,,,,9,0,9,0,7,0,7,0,,,,,,,,,,,,,,,,,,,,,,,,,,,,,,,,,,,,,,,,,,,,,,,,,,,,,,,,,,,,,,,,,,,,,0.035,,,,,,,,,,,,,,,,,,,,,,,,,,,,left,1,40,-30,10,1,3139.599268,3139.599268,3139.599268,None,None,2,0,0.0314971,,,,,,,,,,,,,,,,,,,,,,10,P1,2,2024-09-27_12h41.39.153,uWM_experiment,2022.2.3,119.9239203
,,,,,,,,,,,,,,,,,,,,9,0,9,0,8,0,8,0,,,,,,,,,,,,,,,,,,,,,,,,,,,,,,,,,,,,,,,,,,,,,,,,,,,,,,,,,,,,,,,,,,,,,0,,,,,,,,,,,,,,,,,,,,,,,,,,,,right,0,40,-30,10,0,3146.066294,3146.066294,3146.066294,None,None,2,0,0.0444049,,,,,,,,,,,,,,,,,,,,,,10,P1,2,2024-09-27_12h41.39.153,uWM_experiment,2022.2.3,119.9239203
,,,,,,,,,,,,,,,,,,,,9,0,9,0,9,0,9,0,,,,,,,,,,,,,,,,,,,,,,,,,,,,,,,,,,,,,,,,,,,,,,,,,,,,,,,,,,,,,,,,,,,,,0.025,,,,,,,,,,,,,,,,,,,,,,,,,,,,right,1,70,30,100,1,3152.133281,3152.133281,3152.133281,None,None,1,1,0.0574822,,,,,,,,,,,,,,,,,,,,,,10,P1,2,2024-09-27_12h41.39.153,uWM_experiment,2022.2.3,119.9239203
,,,,,,,,,,,,,,,,,,,,9,0,9,0,10,0,10,0,,,,,,,,,,,,,,,,,,,,,,,,,,,,,,,,,,,,,,,,,,,,,,,,,,,,,,,,,,,,,,,,,,,,,0.035,,,,,,,,,,,,,,,,,,,,,,,,,,,,right,1,160,30,190,1,3157.70857,3157.70857,3157.70857,None,None,1,1,0.0742071,,,,,,,,,,,,,,,,,,,,,,10,P1,2,2024-09-27_12h41.39.153,uWM_experiment,2022.2.3,119.9239203
,,,,,,,,,,,,,,,,,,,,9,0,9,0,11,0,11,0,,,,,,,,,,,,,,,,,,,,,,,,,,,,,,,,,,,,,,,,,,,,,,,,,,,,,,,,,,,,,,,,,,,,,0,,,,,,,,,,,,,,,,,,,,,,,,,,,,left,1,160,-30,130,0,3164.658943,3164.658943,3164.658943,None,None,1,1,0.043768,,,,,,,,,,,,,,,,,,,,,,10,P1,2,2024-09-27_12h41.39.153,uWM_experiment,2022.2.3,119.9239203
,,,,,,,,,,,,,,,,,,,,9,0,9,0,12,0,12,0,,,,,,,,,,,,,,,,,,,,,,,,,,,,,,,,,,,,,,,,,,,,,,,,,,,,,,,,,,,,,,,,,,,,,0.045,,,,,,,,,,,,,,,,,,,,,,,,,,,,right,1,10,30,40,1,3170.192563,3170.192563,3170.192563,None,None,2,0,0.054091,,,,,,,,,,,,,,,,,,,,,,10,P1,2,2024-09-27_12h41.39.153,uWM_experiment,2022.2.3,119.9239203
,,,,,,,,,,,,,,,,,,,,9,0,9,0,13,0,13,0,,,,,,,,,,,,,,,,,,,,,,,,,,,,,,,,,,,,,,,,,,,,,,,,,,,,,,,,,,,,,,,,,,,,,0.035,,,,,,,,,,,,,,,,,,,,,,,,,,,,right,1,40,30,70,1,3175.826196,3175.826196,3175.826196,None,None,2,0,0.0765681,,,,,,,,,,,,,,,,,,,,,,10,P1,2,2024-09-27_12h41.39.153,uWM_experiment,2022.2.3,119.9239203
,,,,,,,,,,,,,,,,,,,,9,0,9,0,14,0,14,0,,,,,,,,,,,,,,,,,,,,,,,,,,,,,,,,,,,,,,,,,,,,,,,,,,,,,,,,,,,,,,,,,,,,,0.025,,,,,,,,,,,,,,,,,,,,,,,,,,,,left,1,10,-30,-20,1,3183.059912,3183.059912,3183.059912,None,None,1,1,0.0588248,,,,,,,,,,,,,,,,,,,,,,10,P1,2,2024-09-27_12h41.39.153,uWM_experiment,2022.2.3,119.9239203
,,,,,,,,,,,,,,,,,,,,9,0,9,0,15,0,15,0,,,,,,,,,,,,,,,,,,,,,,,,,,,,,,,,,,,,,,,,,,,,,,,,,,,,,,,,,,,,,,,,,,,,,0.035,,,,,,,,,,,,,,,,,,,,,,,,,,,,right,0,100,-30,70,1,3188.976891,3188.976891,3188.976891,None,None,1,1,0.037727,,,,,,,,,,,,,,,,,,,,,,10,P1,2,2024-09-27_12h41.39.153,uWM_experiment,2022.2.3,119.9239203
,,,,,,,,,,,,,,,,,,,,9,0,9,0,16,0,16,0,,,,,,,,,,,,,,,,,,,,,,,,,,,,,,,,,,,,,,,,,,,,,,,,,,,,,,,,,,,,,,,,,,,,,0,,,,,,,,,,,,,,,,,,,,,,,,,,,,left,0,70,30,100,0,3194.952227,3194.952227,3194.952227,None,None,1,1,0.462411,,,,,,,,,,,,,,,,,,,,,,10,P1,2,2024-09-27_12h41.39.153,uWM_experiment,2022.2.3,119.9239203
,,,,,,,,,,,,,,,,,,,,9,0,9,0,17,0,17,0,,,,,,,,,,,,,,,,,,,,,,,,,,,,,,,,,,,,,,,,,,,,,,,,,,,,,,,,,,,,,,,,,,,,,0.045,,,,,,,,,,,,,,,,,,,,,,,,,,,,right,1,70,30,100,1,3201.785905,3201.785905,3201.785905,None,None,2,0,0.0688138,,,,,,,,,,,,,,,,,,,,,,10,P1,2,2024-09-27_12h41.39.153,uWM_experiment,2022.2.3,119.9239203
,,,,,,,,,,,,,,,,,,,,9,0,9,0,18,0,18,0,,,,,,,,,,,,,,,,,,,,,,,,,,,,,,,,,,,,,,,,,,,,,,,,,,,,,,,,,,,,,,,,,,,,,0.035,,,,,,,,,,,,,,,,,,,,,,,,,,,,left,1,130,-30,100,1,3207.561209,3207.561209,3207.561209,None,None,2,0,0.0454626,,,,,,,,,,,,,,,,,,,,,,10,P1,2,2024-09-27_12h41.39.153,uWM_experiment,2022.2.3,119.9239203
,,,,,,,,,,,,,,,,,,,,9,0,9,0,19,0,19,0,,,,,,,,,,,,,,,,,,,,,,,,,,,,,,,,,,,,,,,,,,,,,,,,,,,,,,,,,,,,,,,,,,,,,0.025,,,,,,,,,,,,,,,,,,,,,,,,,,,,right,0,10,-30,-20,1,3213.578173,3213.578173,3213.578173,None,None,1,1,0.0203977,,,,,,,,,,,,,,,,,,,,,,10,P1,2,2024-09-27_12h41.39.153,uWM_experiment,2022.2.3,119.9239203
,,,,,,,,,,,,,,,,,,,,9,0,9,0,20,0,20,0,,,,,,,,,,,,,,,,,,,,,,,,,,,,,,,,,,,,,,,,,,,,,,,,,,,,,,,,,,,,,,,,,,,,,0,,,,,,,,,,,,,,,,,,,,,,,,,,,,left,1,130,-30,100,0,3219.445174,3219.445174,3219.445174,None,None,1,1,0.0174226,,,,,,,,,,,,,,,,,,,,,,10,P1,2,2024-09-27_12h41.39.153,uWM_experiment,2022.2.3,119.9239203
,,,,,,,,,,,,,,,,,,,,9,0,9,0,21,0,21,0,,,,,,,,,,,,,,,,,,,,,,,,,,,,,,,,,,,,,,,,,,,,,,,,,,,,,,,,,,,,,,,,,,,,,0.035,,,,,,,,,,,,,,,,,,,,,,,,,,,,right,1,130,30,160,1,3225.237144,3225.237144,3225.237144,None,None,1,1,0.0256119,,,,,,,,,,,,,,,,,,,,,,10,P1,2,2024-09-27_12h41.39.153,uWM_experiment,2022.2.3,119.9239203
,,,,,,,,,,,,,,,,,,,,9,0,9,0,22,0,22,0,,,,,,,,,,,,,,,,,,,,,,,,,,,,,,,,,,,,,,,,,,,,,,,,,,,,,,,,,,,,,,,,,,,,,0,,,,,,,,,,,,,,,,,,,,,,,,,,,,right,0,10,-30,-20,0,3232.745849,3232.745849,3232.745849,None,None,1,1,0.0767092,,,,,,,,,,,,,,,,,,,,,,10,P1,2,2024-09-27_12h41.39.153,uWM_experiment,2022.2.3,119.9239203
,,,,,,,,,,,,,,,,,,,,9,0,9,0,23,0,23,0,,,,,,,,,,,,,,,,,,,,,,,,,,,,,,,,,,,,,,,,,,,,,,,,,,,,,,,,,,,,,,,,,,,,,0,,,,,,,,,,,,,,,,,,,,,,,,,,,,right,0,40,-30,10,0,3238.671185,3238.671185,3238.671185,None,None,1,1,0.0314606,,,,,,,,,,,,,,,,,,,,,,10,P1,2,2024-09-27_12h41.39.153,uWM_experiment,2022.2.3,119.9239203
,,,,,,,,,,,,,,,,,,,,9,0,9,0,,,,,0,0,0,0,,,,,,,,,,,,,,,,,,,,,,,,,,,,,,,,,,,,,,,,,,,,,,,,,,,,,,,,,,,,,,,,,,,,,,,,,,,,,,,,,,,,,,,,,,,,,,,,,,,,,,,,,,,3238.721172,3238.721172,space,0.8614152,None,None,,,,,,,,,,,,,,,,10,P1,2,2024-09-27_12h41.39.153,uWM_experiment,2022.2.3,119.9239203
,,,,,,,,,,,,,,,,,,,,9,0,9,0,,,,,1,0,1,0,,,,,,,,,,,,,,,,,,,,,,,,,,,,,,,,,,,,,,,,,,,,,,,,,,,,,,,,,,,,,,,,,,,,,,,,,,,,,,,,,,,,,,,,,,,,,,,,,,,,,,,,,,,,,,,,,,,,,,,,,,,,,,,,10,P1,2,2024-09-27_12h41.39.153,uWM_experiment,2022.2.3,119.9239203
,,,,,,,,,,,,,,,,,,,,9,0,9,0,,,,,2,0,2,0,,,,,,,,,,,,,,,,,,,,,,,,,,,,,,,,,,,,,,,,,,,,,,,,,,,,,,,,,,,,,,,,,,,,,,,,,,,,,,,,,,,,,,,,,,,,,,,,,,,,,,,,,,,,,,,,,,,,,,,,,,,,,,,,10,P1,2,2024-09-27_12h41.39.153,uWM_experiment,2022.2.3,119.9239203
,,,,,,,,,,,,,,,,,,,,10,0,10,0,0,0,0,0,,,,,,,,,,,,,,,,,,,,,,,,,,,,,,,,,,,,,,,,,,,,,,,,,,,,,,,,,,,,,,,,,,,,,0.045,,,,,,,,,,,,,,,,,,,,3239.604598,3240.304594,3240.604599,3241.304651,3241.604677,3242.304709,3242.304709,3242.621402,left,1,40,-30,10,1,3247.696671,3247.696671,3247.696671,None,None,1,1,0.0218789,,,,,,,None,,,,,,,,,,,,,,,10,P1,2,2024-09-27_12h41.39.153,uWM_experiment,2022.2.3,119.9239203
,,,,,,,,,,,,,,,,,,,,10,0,10,0,1,0,1,0,,,,,,,,,,,,,,,,,,,,,,,,,,,,,,,,,,,,,,,,,,,,,,,,,,,,,,,,,,,,,,,,,,,,,0.1,,,,,,,,,,,,,,,,,,,,,,,,,,,,right,1,160,30,190,2,3258.64724,3258.64724,3258.64724,None,None,2,0,1.639251,,,,,,,,,,,,,,,,,,,,,,10,P1,2,2024-09-27_12h41.39.153,uWM_experiment,2022.2.3,119.9239203
,,,,,,,,,,,,,,,,,,,,10,0,10,0,2,0,2,0,,,,,,,,,,,,,,,,,,,,,,,,,,,,,,,,,,,,,,,,,,,,,,,,,,,,,,,,,,,,,,,,,,,,,0.055,,,,,,,,,,,,,,,,,,,,,,,,,,,,left,1,100,-30,70,1,3267.364374,3267.364374,3267.364374,None,None,2,0,0.0582926,,,,,,,,,,,,,,,,,,,,,,10,P1,2,2024-09-27_12h41.39.153,uWM_experiment,2022.2.3,119.9239203
,,,,,,,,,,,,,,,,,,,,10,0,10,0,3,0,3,0,,,,,,,,,,,,,,,,,,,,,,,,,,,,,,,,,,,,,,,,,,,,,,,,,,,,,,,,,,,,,,,,,,,,,0.045,,,,,,,,,,,,,,,,,,,,,,,,,,,,right,1,130,30,160,1,3273.148013,3273.148013,3273.148013,None,None,2,0,0.0345034,,,,,,,,,,,,,,,,,,,,,,10,P1,2,2024-09-27_12h41.39.153,uWM_experiment,2022.2.3,119.9239203
,,,,,,,,,,,,,,,,,,,,10,0,10,0,4,0,4,0,,,,,,,,,,,,,,,,,,,,,,,,,,,,,,,,,,,,,,,,,,,,,,,,,,,,,,,,,,,,,,,,,,,,,0.1,,,,,,,,,,,,,,,,,,,,,,,,,,,,right,1,130,30,160,2,3279.406665,3279.406665,3279.406665,None,None,4,0,0.0797879,,,,,,,,,,,,,,,,,,,,,,10,P1,2,2024-09-27_12h41.39.153,uWM_experiment,2022.2.3,119.9239203
,,,,,,,,,,,,,,,,,,,,10,0,10,0,5,0,5,0,,,,,,,,,,,,,,,,,,,,,,,,,,,,,,,,,,,,,,,,,,,,,,,,,,,,,,,,,,,,,,,,,,,,,0,,,,,,,,,,,,,,,,,,,,,,,,,,,,left,0,40,30,70,0,3285.165315,3285.165315,3285.165315,None,None,1,1,0.0652766,,,,,,,,,,,,,,,,,,,,,,10,P1,2,2024-09-27_12h41.39.153,uWM_experiment,2022.2.3,119.9239203
,,,,,,,,,,,,,,,,,,,,10,0,10,0,6,0,6,0,,,,,,,,,,,,,,,,,,,,,,,,,,,,,,,,,,,,,,,,,,,,,,,,,,,,,,,,,,,,,,,,,,,,,0.035,,,,,,,,,,,,,,,,,,,,,,,,,,,,right,0,70,-30,40,1,3290.923957,3290.923957,3290.923957,None,None,1,1,0.0504953,,,,,,,,,,,,,,,,,,,,,,10,P1,2,2024-09-27_12h41.39.153,uWM_experiment,2022.2.3,119.9239203
,,,,,,,,,,,,,,,,,,,,10,0,10,0,7,0,7,0,,,,,,,,,,,,,,,,,,,,,,,,,,,,,,,,,,,,,,,,,,,,,,,,,,,,,,,,,,,,,,,,,,,,,0.045,,,,,,,,,,,,,,,,,,,,,,,,,,,,right,1,40,30,70,1,3298.04933,3298.04933,3298.04933,None,None,2,0,0.4051643,,,,,,,,,,,,,,,,,,,,,,10,P1,2,2024-09-27_12h41.39.153,uWM_experiment,2022.2.3,119.9239203
,,,,,,,,,,,,,,,,,,,,10,0,10,0,8,0,8,0,,,,,,,,,,,,,,,,,,,,,,,,,,,,,,,,,,,,,,,,,,,,,,,,,,,,,,,,,,,,,,,,,,,,,0.035,,,,,,,,,,,,,,,,,,,,,,,,,,,,left,1,100,-30,70,1,3304.933032,3304.933032,3304.933032,None,None,2,0,0.0655504,,,,,,,,,,,,,,,,,,,,,,10,P1,2,2024-09-27_12h41.39.153,uWM_experiment,2022.2.3,119.9239203
,,,,,,,,,,,,,,,,,,,,10,0,10,0,9,0,9,0,,,,,,,,,,,,,,,,,,,,,,,,,,,,,,,,,,,,,,,,,,,,,,,,,,,,,,,,,,,,,,,,,,,,,0.025,,,,,,,,,,,,,,,,,,,,,,,,,,,,right,1,160,30,190,1,3311.225038,3311.225038,3311.225038,None,None,1,1,0.0533671,,,,,,,,,,,,,,,,,,,,,,10,P1,2,2024-09-27_12h41.39.153,uWM_experiment,2022.2.3,119.9239203
,,,,,,,,,,,,,,,,,,,,10,0,10,0,10,0,10,0,,,,,,,,,,,,,,,,,,,,,,,,,,,,,,,,,,,,,,,,,,,,,,,,,,,,,,,,,,,,,,,,,,,,,0.035,,,,,,,,,,,,,,,,,,,,,,,,,,,,left,1,40,-30,10,1,3317.275352,3317.275352,3317.275352,None,None,2,0,0.043092,,,,,,,,,,,,,,,,,,,,,,10,P1,2,2024-09-27_12h41.39.153,uWM_experiment,2022.2.3,119.9239203
,,,,,,,,,,,,,,,,,,,,10,0,10,0,11,0,11,0,,,,,,,,,,,,,,,,,,,,,,,,,,,,,,,,,,,,,,,,,,,,,,,,,,,,,,,,,,,,,,,,,,,,,0.025,,,,,,,,,,,,,,,,,,,,,,,,,,,,left,1,160,-30,130,1,3323.100662,3323.100662,3323.100662,None,None,1,1,0.0258271,,,,,,,,,,,,,,,,,,,,,,10,P1,2,2024-09-27_12h41.39.153,uWM_experiment,2022.2.3,119.9239203
,,,,,,,,,,,,,,,,,,,,10,0,10,0,12,0,12,0,,,,,,,,,,,,,,,,,,,,,,,,,,,,,,,,,,,,,,,,,,,,,,,,,,,,,,,,,,,,,,,,,,,,,0.035,,,,,,,,,,,,,,,,,,,,,,,,,,,,right,0,130,-30,100,1,3332.134473,3332.134473,3332.134473,None,None,1,1,0.1118853,,,,,,,,,,,,,,,,,,,,,,10,P1,2,2024-09-27_12h41.39.153,uWM_experiment,2022.2.3,119.9239203
,,,,,,,,,,,,,,,,,,,,10,0,10,0,13,0,13,0,,,,,,,,,,,,,,,,,,,,,,,,,,,,,,,,,,,,,,,,,,,,,,,,,,,,,,,,,,,,,,,,,,,,,0,,,,,,,,,,,,,,,,,,,,,,,,,,,,left,0,40,30,70,0,3338.334802,3338.334802,3338.334802,None,None,1,1,0.0236693,,,,,,,,,,,,,,,,,,,,,,10,P1,2,2024-09-27_12h41.39.153,uWM_experiment,2022.2.3,119.9239203
,,,,,,,,,,,,,,,,,,,,10,0,10,0,14,0,14,0,,,,,,,,,,,,,,,,,,,,,,,,,,,,,,,,,,,,,,,,,,,,,,,,,,,,,,,,,,,,,,,,,,,,,0.045,,,,,,,,,,,,,,,,,,,,,,,,,,,,right,1,70,30,100,1,3344.976818,3344.976818,3344.976818,None,None,1,1,0.0215441,,,,,,,,,,,,,,,,,,,,,,10,P1,2,2024-09-27_12h41.39.153,uWM_experiment,2022.2.3,119.9239203
,,,,,,,,,,,,,,,,,,,,10,0,10,0,15,0,15,0,,,,,,,,,,,,,,,,,,,,,,,,,,,,,,,,,,,,,,,,,,,,,,,,,,,,,,,,,,,,,,,,,,,,,0.055,,,,,,,,,,,,,,,,,,,,,,,,,,,,right,0,130,-30,100,1,3353.168922,3353.168922,3353.168922,None,None,1,1,0.0294431,,,,,,,,,,,,,,,,,,,,,,10,P1,2,2024-09-27_12h41.39.153,uWM_experiment,2022.2.3,119.9239203
,,,,,,,,,,,,,,,,,,,,10,0,10,0,16,0,16,0,,,,,,,,,,,,,,,,,,,,,,,,,,,,,,,,,,,,,,,,,,,,,,,,,,,,,,,,,,,,,,,,,,,,,0.065,,,,,,,,,,,,,,,,,,,,,,,,,,,,right,1,40,30,70,1,3361.802713,3361.802713,3361.802713,None,None,2,0,0.0436105,,,,,,,,,,,,,,,,,,,,,,10,P1,2,2024-09-27_12h41.39.153,uWM_experiment,2022.2.3,119.9239203
,,,,,,,,,,,,,,,,,,,,10,0,10,0,17,0,17,0,,,,,,,,,,,,,,,,,,,,,,,,,,,,,,,,,,,,,,,,,,,,,,,,,,,,,,,,,,,,,,,,,,,,,0.055,,,,,,,,,,,,,,,,,,,,,,,,,,,,right,1,100,30,130,1,3367.811365,3367.811365,3367.811365,None,None,2,0,0.0510336,,,,,,,,,,,,,,,,,,,,,,10,P1,2,2024-09-27_12h41.39.153,uWM_experiment,2022.2.3,119.9239203
,,,,,,,,,,,,,,,,,,,,10,0,10,0,18,0,18,0,,,,,,,,,,,,,,,,,,,,,,,,,,,,,,,,,,,,,,,,,,,,,,,,,,,,,,,,,,,,,,,,,,,,,0.045,,,,,,,,,,,,,,,,,,,,,,,,,,,,right,1,130,30,160,1,3373.544998,3373.544998,3373.544998,None,None,2,0,0.0453081,,,,,,,,,,,,,,,,,,,,,,10,P1,2,2024-09-27_12h41.39.153,uWM_experiment,2022.2.3,119.9239203
