PreTrainingPAS4_loop.thisRepN,PreTrainingPAS4_loop.thisTrialN,PreTrainingPAS4_loop.thisN,PreTrainingPAS4_loop.thisIndex,PreTrainingPAS1_loop.thisRepN,PreTrainingPAS1_loop.thisTrialN,PreTrainingPAS1_loop.thisN,PreTrainingPAS1_loop.thisIndex,RepeatCV_loop.thisRepN,RepeatCV_loop.thisTrialN,RepeatCV_loop.thisN,RepeatCV_loop.thisIndex,TrainingCV_loop.thisRepN,TrainingCV_loop.thisTrialN,TrainingCV_loop.thisN,TrainingCV_loop.thisIndex,TrainingCAL_loop.thisRepN,TrainingCAL_loop.thisTrialN,TrainingCAL_loop.thisN,TrainingCAL_loop.thisIndex,blocks_loop.thisRepN,blocks_loop.thisTrialN,blocks_loop.thisN,blocks_loop.thisIndex,trials_loop.thisRepN,trials_loop.thisTrialN,trials_loop.thisN,trials_loop.thisIndex,TrainingPAS1_loop.thisRepN,TrainingPAS1_loop.thisTrialN,TrainingPAS1_loop.thisN,TrainingPAS1_loop.thisIndex,spacebarWelcome0.started,spacebarWelcome0.keys,spacebarWelcome0.rt,spacebarWelcome1.started,gaborWelcome1.started,maskWelcome1.started,textMaskWelcome1.started,spacebarWelcome1.keys,spacebarWelcome1.rt,spacebarWelcome2.started,spacebarWelcome2.keys,spacebarWelcome2.rt,textInst_PreTrainingPAS4.started,spacebarPreTrainingPAS4.started,spacebarPreTrainingPAS4.keys,spacebarPreTrainingPAS4.rt,textPreTrainingPAS1.started,spacebarPreTrainingPAS1.started,spacebarPreTrainingPAS1.keys,spacebarPreTrainingPAS1.rt,textQUEST0.started,spacebarQUEST0.started,spacebarQUEST0.keys,spacebarQUEST0.rt,spacebar0.started,spacebar0.keys,spacebar0.rt,spacebar1.started,spacebar1.keys,spacebar1.rt,textInstructions2.started,spacebar2.started,Gabor1Inst2.started,Gabor2Inst2.started,Gabor3Inst2.started,Gabor4Inst2.started,spacebar2.keys,spacebar2.rt,textInstructionsPAS.started,spacebarInstPAS.started,spacebarInstPAS.keys,spacebarInstPAS.rt,textInstructions3.started,spacebar3.started,spacebar3.keys,spacebar3.rt,WMresp_CV,WMresp_CV_acc,oriMemo_CV,gyre_CV,oriTest_CV,feedbackText.started,sliderCV.started,PAStextCV.started,PASkeyCV.started,sliderCV.response,sliderCV.rt,PASkeyCV.keys,PASkeyCV.corr,PASkeyCV.rt,feedbackText.stopped,TextInstructionsCAL.started,spacebarCAL.started,spacebarCAL.keys,spacebarCAL.rt,contrast,WMresp_CAL,WMresp_CAL_acc,oriMemo_CAL,gyre_CAL,oriTest_CAL,cue_CAL,sliderCAL.started,PAStextCAL.started,PASkeyCAL.started,sliderCAL.response,sliderCAL.rt,PASkeyCAL.keys,PASkeyCAL.corr,PASkeyCAL.rt,propUnseen_CAL,textStart.started,spacebar4.started,spacebar4.keys,spacebar4.rt,three.started,three.stopped,two.started,two.stopped,one.started,one.stopped,blank_countdown.started,blank_countdown.stopped,WMresp,WMresp_acc,oriMemo,gyre,oriTest,cue,slider.started,textPAS_firstGabor.started,PASkey.started,slider.response,slider.rt,PASkey.keys,PASkey.corr,PASkey.rt,spacebarContinue.started,textBreak.started,spacebarContinue.keys,spacebarContinue.rt,spacebar_reminder.keys,spacebar_TrainingPAS1.keys,spacebar_endpractice.keys,spacebar_reminder.started,textReminder.started,spacebar_reminder.rt,textInst_TrainingPAS1.started,spacebar_TrainingPAS1.started,spacebar_TrainingPAS1.rt,textend_practicePAS1.started,spacebar_endpractice.started,spacebar_endpractice.rt,textThanks.started,buttonURL.started,buttonURL.numClicks,buttonURL.timesOn,buttonURL.timesOff,laboratory,participant,session,date,expName,psychopyVersion,frameRate
,,,,,,,,,,,,,,,,,,,,,,,,,,,,,,,,39.3239334,space,55.0189377,,,,,,,,,,,,,,,,,,,,,,,,,,,,,,,,,,,,,,,,,,,,,,,,,,,,,,,,,,,,,,,,,,,,,,,,,,,,,,,,,,,,,,,,,,,,,,,,,,,,,,,,,,,,,,,,,,,,,,,,,,,,,,10,20,2,2024-11-28_16h05.26.609,uWM_experiment,2022.2.3,60.01003368
,,,,,,,,,,,,,,,,,,,,,,,,,,,,,,,,,,,94.3928638,94.3928638,94.3928638,94.3928638,space,8.5900842,,,,,,,,,,,,,,,,,,,,,,,,,,,,,,,,,,,,,,,,,,,,,,,,,,,,,,,,,,,,,,,,,,,,,,,,,,,,,,,,,,,,,,,,,,,,,,,,,,,,,,,,,,,,,,,,,,,,,,,,10,20,2,2024-11-28_16h05.26.609,uWM_experiment,2022.2.3,60.01003368
,,,,,,,,,,,,,,,,,,,,,,,,,,,,,,,,,,,,,,,,,103.0098758,space,3.0449993,,,,,,,,,,,,,,,,,,,,,,,,,,,,,,,,,,,,,,,,,,,,,,,,,,,,,,,,,,,,,,,,,,,,,,,,,,,,,,,,,,,,,,,,,,,,,,,,,,,,,,,,,,,,,,,,,,,,,10,20,2,2024-11-28_16h05.26.609,uWM_experiment,2022.2.3,60.01003368
,,,,,,,,,,,,,,,,,,,,,,,,,,,,,,,,,,,,,,,,,,,,106.0767117,106.0767117,space,2.7222372,,,,,,,,,,,,,,,,,,,,,,,,,,,,,,,,,,,,,,,,,,,,,,,,,,,,,,,,,,,,,,,,,,,,,,,,,,,,,,,,,,,,,,,,,,,,,,,,,,,,,,,,,,,,,,,,,10,20,2,2024-11-28_16h05.26.609,uWM_experiment,2022.2.3,60.01003368
0,0,0,0,,,,,,,,,,,,,,,,,,,,,,,,,,,,,,,,,,,,,,,,,,,,,,,,,,,,,,,,,,,,,,,,,,,,,,,,,,,,,,,,,,,,,,,,,,,,,,,,,,,,,,,,,,,,,,,,,,,,,,,,,,,,,,,,,,,,,,,,,,,,,,,,,,,,,,,,,,,,,10,20,2,2024-11-28_16h05.26.609,uWM_experiment,2022.2.3,60.01003368
1,0,1,0,,,,,,,,,,,,,,,,,,,,,,,,,,,,,,,,,,,,,,,,,,,,,,,,,,,,,,,,,,,,,,,,,,,,,,,,,,,,,,,,,,,,,,,,,,,,,,,,,,,,,,,,,,,,,,,,,,,,,,,,,,,,,,,,,,,,,,,,,,,,,,,,,,,,,,,,,,,,,10,20,2,2024-11-28_16h05.26.609,uWM_experiment,2022.2.3,60.01003368
2,0,2,0,,,,,,,,,,,,,,,,,,,,,,,,,,,,,,,,,,,,,,,,,,,,,,,,,,,,,,,,,,,,,,,,,,,,,,,,,,,,,,,,,,,,,,,,,,,,,,,,,,,,,,,,,,,,,,,,,,,,,,,,,,,,,,,,,,,,,,,,,,,,,,,,,,,,,,,,,,,,,10,20,2,2024-11-28_16h05.26.609,uWM_experiment,2022.2.3,60.01003368
,,,,,,,,,,,,,,,,,,,,,,,,,,,,,,,,,,,,,,,,,,,,,,,,125.2775561,125.2775561,space,6.0574178,,,,,,,,,,,,,,,,,,,,,,,,,,,,,,,,,,,,,,,,,,,,,,,,,,,,,,,,,,,,,,,,,,,,,,,,,,,,,,,,,,,,,,,,,,,,,,,,,,,,,,,,,,,,,10,20,2,2024-11-28_16h05.26.609,uWM_experiment,2022.2.3,60.01003368
,,,,0,0,0,0,,,,,,,,,,,,,,,,,,,,,,,,,,,,,,,,,,,,,,,,,,,,,,,,,,,,,,,,,,,,,,,,,,,,,,,,,,,,,,,,,,,,,,,,,,,,,,,,,,,,,,,,,,,,,,,,,,,,,,,,,,,,,,,,,,,,,,,,,,,,,,,,,,,,,,,,,10,20,2,2024-11-28_16h05.26.609,uWM_experiment,2022.2.3,60.01003368
,,,,1,0,1,0,,,,,,,,,,,,,,,,,,,,,,,,,,,,,,,,,,,,,,,,,,,,,,,,,,,,,,,,,,,,,,,,,,,,,,,,,,,,,,,,,,,,,,,,,,,,,,,,,,,,,,,,,,,,,,,,,,,,,,,,,,,,,,,,,,,,,,,,,,,,,,,,,,,,,,,,,10,20,2,2024-11-28_16h05.26.609,uWM_experiment,2022.2.3,60.01003368
,,,,2,0,2,0,,,,,,,,,,,,,,,,,,,,,,,,,,,,,,,,,,,,,,,,,,,,,,,,,,,,,,,,,,,,,,,,,,,,,,,,,,,,,,,,,,,,,,,,,,,,,,,,,,,,,,,,,,,,,,,,,,,,,,,,,,,,,,,,,,,,,,,,,,,,,,,,,,,,,,,,,10,20,2,2024-11-28_16h05.26.609,uWM_experiment,2022.2.3,60.01003368
,,,,,,,,,,,,,,,,,,,,,,,,,,,,,,,,,,,,,,,,,,,,,,,,,,,,139.6782055,139.6782055,space,6.6967273,,,,,,,,,,,,,,,,,,,,,,,,,,,,,,,,,,,,,,,,,,,,,,,,,,,,,,,,,,,,,,,,,,,,,,,,,,,,,,,,,,,,,,,,,,,,,,,,,,,,,,,,,10,20,2,2024-11-28_16h05.26.609,uWM_experiment,2022.2.3,60.01003368
,,,,,,,,,,,,,,,,,,,,,,,,,,,,,,,,,,,,,,,,,,,,,,,,,,,,,,,,300.8188243,space,3.8682417,,,,,,,,,,,,,,,,,,,,,,,,,,,,,,,,,,,,,,,,,,,,,,,,,,,,,,,,,,,,,,,,,,,,,,,,,,,,,,,,,,,,,,,,,,,,,,,,,,,,,,10,20,2,2024-11-28_16h05.26.609,uWM_experiment,2022.2.3,60.01003368
,,,,,,,,,,,,,,,,,,,,,,,,,,,,,,,,,,,,,,,,,,,,,,,,,,,,,,,,,,,304.7189704,space,16.2641425,,,,,,,,,,,,,,,,,,,,,,,,,,,,,,,,,,,,,,,,,,,,,,,,,,,,,,,,,,,,,,,,,,,,,,,,,,,,,,,,,,,,,,,,,,,,,,,,,,,10,20,2,2024-11-28_16h05.26.609,uWM_experiment,2022.2.3,60.01003368
,,,,,,,,,,,,,,,,,,,,,,,,,,,,,,,,,,,,,,,,,,,,,,,,,,,,,,,,,,,,,,321.0030389,321.0030389,321.0030389,321.0030389,321.0030389,321.0030389,space,126.2202283,,,,,,,,,,,,,,,,,,,,,,,,,,,,,,,,,,,,,,,,,,,,,,,,,,,,,,,,,,,,,,,,,,,,,,,,,,,,,,,,,,,,,,,,,,,10,20,2,2024-11-28_16h05.26.609,uWM_experiment,2022.2.3,60.01003368
,,,,,,,,,,,,,,,,,,,,,,,,,,,,,,,,,,,,,,,,,,,,,,,,,,,,,,,,,,,,,,,,,,,,,,447.242087,447.242087,space,8.4771659,,,,,,,,,,,,,,,,,,,,,,,,,,,,,,,,,,,,,,,,,,,,,,,,,,,,,,,,,,,,,,,,,,,,,,,,,,,,,,,,,,,,,,,10,20,2,2024-11-28_16h05.26.609,uWM_experiment,2022.2.3,60.01003368
,,,,,,,,,,,,,,,,,,,,,,,,,,,,,,,,,,,,,,,,,,,,,,,,,,,,,,,,,,,,,,,,,,,,,,,,,,455.7424638,455.7424638,space,39.3768177,,,,,,,,,,,,,,,,,,,,,,,,,,,,,,,,,,,,,,,,,,,,,,,,,,,,,,,,,,,,,,,,,,,,,,,,,,,,,,,,,,,10,20,2,2024-11-28_16h05.26.609,uWM_experiment,2022.2.3,60.01003368
,,,,,,,,0,0,0,0,0,0,0,0,,,,,,,,,,,,,,,,,,,,,,,,,,,,,,,,,,,,,,,,,,,,,,,,,,,,,,,,,,,,,,,right,1,130,30,160,508.7948827,509.7949072,509.7949072,509.7949072,None,None,4,0,3.8683691,,,,,,,,,,,,,,,,,,,,,,,,,,,,,,,,,,,,,,,,,,,,,,,,,,,,,,,,,,,,,,,,,,,,,10,20,2,2024-11-28_16h05.26.609,uWM_experiment,2022.2.3,60.01003368
,,,,,,,,0,0,0,0,1,0,1,0,,,,,,,,,,,,,,,,,,,,,,,,,,,,,,,,,,,,,,,,,,,,,,,,,,,,,,,,,,,,,,,right,1,40,30,70,520.8287375,521.8287882,521.8287882,521.8287882,None,None,4,0,1.5624515,521.8287882,,,,,,,,,,,,,,,,,,,,,,,,,,,,,,,,,,,,,,,,,,,,,,,,,,,,,,,,,,,,,,,,,,,,10,20,2,2024-11-28_16h05.26.609,uWM_experiment,2022.2.3,60.01003368
,,,,,,,,0,0,0,0,2,0,2,0,,,,,,,,,,,,,,,,,,,,,,,,,,,,,,,,,,,,,,,,,,,,,,,,,,,,,,,,,,,,,,,left,1,70,-30,40,529.8291929,530.8291887,530.8291887,530.8291887,None,None,4,0,0.4503434,530.8291887,,,,,,,,,,,,,,,,,,,,,,,,,,,,,,,,,,,,,,,,,,,,,,,,,,,,,,,,,,,,,,,,,,,,10,20,2,2024-11-28_16h05.26.609,uWM_experiment,2022.2.3,60.01003368
,,,,,,,,0,0,0,0,3,0,3,0,,,,,,,,,,,,,,,,,,,,,,,,,,,,,,,,,,,,,,,,,,,,,,,,,,,,,,,,,,,,,,,left,1,10,-30,-20,537.7461893,538.746216,538.746216,538.746216,None,None,4,0,0.1651732,538.746216,,,,,,,,,,,,,,,,,,,,,,,,,,,,,,,,,,,,,,,,,,,,,,,,,,,,,,,,,,,,,,,,,,,,10,20,2,2024-11-28_16h05.26.609,uWM_experiment,2022.2.3,60.01003368
,,,,,,,,0,0,0,0,4,0,4,0,,,,,,,,,,,,,,,,,,,,,,,,,,,,,,,,,,,,,,,,,,,,,,,,,,,,,,,,,,,,,,,right,1,40,30,70,545.2131752,546.2132266,546.2132266,546.2132266,None,None,4,0,0.338005,546.2132266,,,,,,,,,,,,,,,,,,,,,,,,,,,,,,,,,,,,,,,,,,,,,,,,,,,,,,,,,,,,,,,,,,,,10,20,2,2024-11-28_16h05.26.609,uWM_experiment,2022.2.3,60.01003368
,,,,,,,,0,0,0,0,5,0,5,0,,,,,,,,,,,,,,,,,,,,,,,,,,,,,,,,,,,,,,,,,,,,,,,,,,,,,,,,,,,,,,,left,1,100,-30,70,553.2302304,554.2302496,554.2302496,554.2302496,None,None,4,0,0.473138,554.2302496,,,,,,,,,,,,,,,,,,,,,,,,,,,,,,,,,,,,,,,,,,,,,,,,,,,,,,,,,,,,,,,,,,,,10,20,2,2024-11-28_16h05.26.609,uWM_experiment,2022.2.3,60.01003368
,,,,,,,,0,0,0,0,,,,,,,,,,,,,,,,,,,,,,,,,,,,,,,,,,,,,,,,,,,,,,,,,,,,,,,,,,,,,,,,,,,,,,,,,,,,,,,,,,,,,,,,,,,,,,,,,,,,,,,,,,,,,,,,,,,,,,,,,,,,,,,,,,,,,,,,,,,,,,,,,,,,,10,20,2,2024-11-28_16h05.26.609,uWM_experiment,2022.2.3,60.01003368
,,,,,,,,,,,,,,,,,,,,,,,,,,,,,,,,,,,,,,,,,,,,,,,,,,,,,,,,,,,,,,,,,,,,,,,,,,,,,,,,,,,,,,,,,,,,,561.1805636,561.1805636,space,4.3388125,,,,,,,,,,,,,,,,,,,,,,,,,,,,,,,,,,,,,,,,,,,,,,,,,,,,,,,,,,,,,,,,10,20,2,2024-11-28_16h05.26.609,uWM_experiment,2022.2.3,60.01003368
,,,,,,,,,,,,,,,,0,0,0,0,,,,,,,,,,,,,,,,,,,,,,,,,,,,,,,,,,,,,,,,,,,,,,,,,,,,,,,,,,,,,,,,,,,,,,,,,,,,,,0.023436306,left,0,10,30,40,1,571.764404,571.764404,571.764404,None,None,2,0,1.7150007,,,,,,,,,,,,,,,,,,,,,,,,,,,,,,,,,,,,,,,,,,,,,,,,,10,20,2,2024-11-28_16h05.26.609,uWM_experiment,2022.2.3,60.01003368
,,,,,,,,,,,,,,,,1,0,1,0,,,,,,,,,,,,,,,,,,,,,,,,,,,,,,,,,,,,,,,,,,,,,,,,,,,,,,,,,,,,,,,,,,,,,,,,,,,,,,0.013436306,right,0,100,-30,70,1,579.9314474,579.9314474,579.9314474,None,None,2,0,0.1398203,0,,,,,,,,,,,,,,,,,,,,,,,,,,,,,,,,,,,,,,,,,,,,,,,,10,20,2,2024-11-28_16h05.26.609,uWM_experiment,2022.2.3,60.01003368
,,,,,,,,,,,,,,,,2,0,2,0,,,,,,,,,,,,,,,,,,,,,,,,,,,,,,,,,,,,,,,,,,,,,,,,,,,,,,,,,,,,,,,,,,,,,,,,,,,,,,0.1,left,1,130,-30,100,2,589.2651753,589.2651753,589.2651753,None,None,4,0,2.0062617,0,,,,,,,,,,,,,,,,,,,,,,,,,,,,,,,,,,,,,,,,,,,,,,,,10,20,2,2024-11-28_16h05.26.609,uWM_experiment,2022.2.3,60.01003368
,,,,,,,,,,,,,,,,3,0,3,0,,,,,,,,,,,,,,,,,,,,,,,,,,,,,,,,,,,,,,,,,,,,,,,,,,,,,,,,,,,,,,,,,,,,,,,,,,,,,,0.005,left,0,160,30,190,1,607.7326738,607.7326738,607.7326738,None,None,3,0,3.7705998,0,,,,,,,,,,,,,,,,,,,,,,,,,,,,,,,,,,,,,,,,,,,,,,,,10,20,2,2024-11-28_16h05.26.609,uWM_experiment,2022.2.3,60.01003368
,,,,,,,,,,,,,,,,4,0,4,0,,,,,,,,,,,,,,,,,,,,,,,,,,,,,,,,,,,,,,,,,,,,,,,,,,,,,,,,,,,,,,,,,,,,,,,,,,,,,,0.1,left,1,40,-30,10,2,618.4165281,618.4165281,618.4165281,None,None,4,0,0.8468918,0,,,,,,,,,,,,,,,,,,,,,,,,,,,,,,,,,,,,,,,,,,,,,,,,10,20,2,2024-11-28_16h05.26.609,uWM_experiment,2022.2.3,60.01003368
,,,,,,,,,,,,,,,,5,0,5,0,,,,,,,,,,,,,,,,,,,,,,,,,,,,,,,,,,,,,,,,,,,,,,,,,,,,,,,,,,,,,,,,,,,,,,,,,,,,,,0.1,right,1,70,30,100,2,627.1002516,627.1002516,627.1002516,None,None,4,0,0.8990897,0,,,,,,,,,,,,,,,,,,,,,,,,,,,,,,,,,,,,,,,,,,,,,,,,10,20,2,2024-11-28_16h05.26.609,uWM_experiment,2022.2.3,60.01003368
,,,,,,,,,,,,,,,,,,,,,,,,,,,,,,,,,,,,,,,,,,,,,,,,,,,,,,,,,,,,,,,,,,,,,,,,,,,,,,,,,,,,,,,,,,,,,,,,,,,,,,,,,,,,,,,,,628.0169459,629.0002896,space,5.7431723,,,,,,,,,,,,,,,,,,,,,,,,,,,,,,,,,,,,,,,,,,,,10,20,2,2024-11-28_16h05.26.609,uWM_experiment,2022.2.3,60.01003368
,,,,,,,,,,,,,,,,,,,,0,0,0,0,0,0,0,0,,,,,,,,,,,,,,,,,,,,,,,,,,,,,,,,,,,,,,,,,,,,,,,,,,,,,,,,,,,,,,,,,,,,,,0.005,,,,,,,,,,,,,,,,,,,,634.7672277,635.4672629,635.7505945,636.4506369,636.750651,637.4506712,637.4506712,637.800684,left,1,130,-30,100,1,643.2176378,643.2176378,643.2176378,None,None,3,0,4.4057046,,,,,,,,,,,,,,,,,,,,,,10,20,2,2024-11-28_16h05.26.609,uWM_experiment,2022.2.3,60.01003368
,,,,,,,,,,,,,,,,,,,,0,0,0,0,1,0,1,0,,,,,,,,,,,,,,,,,,,,,,,,,,,,,,,,,,,,,,,,,,,,,,,,,,,,,,,,,,,,,,,,,,,,,,0.005,,,,,,,,,,,,,,,,,,,,,,,,,,,,left,0,10,30,40,1,653.3514015,653.3514015,653.3514015,None,None,2,0,0.1359567,,,,,,,,,,,,,,,,,,,,,,10,20,2,2024-11-28_16h05.26.609,uWM_experiment,2022.2.3,60.01003368
,,,,,,,,,,,,,,,,,,,,0,0,0,0,2,0,2,0,,,,,,,,,,,,,,,,,,,,,,,,,,,,,,,,,,,,,,,,,,,,,,,,,,,,,,,,,,,,,,,,,,,,,,0,,,,,,,,,,,,,,,,,,,,,,,,,,,,right,0,40,-30,10,0,659.31835,659.31835,659.31835,None,None,1,1,0.0731279,,,,,,,,,,,,,,,,,,,,,,10,20,2,2024-11-28_16h05.26.609,uWM_experiment,2022.2.3,60.01003368
,,,,,,,,,,,,,,,,,,,,0,0,0,0,3,0,3,0,,,,,,,,,,,,,,,,,,,,,,,,,,,,,,,,,,,,,,,,,,,,,,,,,,,,,,,,,,,,,,,,,,,,,,0,,,,,,,,,,,,,,,,,,,,,,,,,,,,left,0,40,30,70,0,666.0186499,666.0186499,666.0186499,None,None,2,0,0.9968342,,,,,,,,,,,,,,,,,,,,,,10,20,2,2024-11-28_16h05.26.609,uWM_experiment,2022.2.3,60.01003368
,,,,,,,,,,,,,,,,,,,,0,0,0,0,4,0,4,0,,,,,,,,,,,,,,,,,,,,,,,,,,,,,,,,,,,,,,,,,,,,,,,,,,,,,,,,,,,,,,,,,,,,,,0.005,,,,,,,,,,,,,,,,,,,,,,,,,,,,right,0,100,-30,70,1,673.0523047,673.0523047,673.0523047,None,None,2,0,0.1151866,,,,,,,,,,,,,,,,,,,,,,10,20,2,2024-11-28_16h05.26.609,uWM_experiment,2022.2.3,60.01003368
,,,,,,,,,,,,,,,,,,,,0,0,0,0,5,0,5,0,,,,,,,,,,,,,,,,,,,,,,,,,,,,,,,,,,,,,,,,,,,,,,,,,,,,,,,,,,,,,,,,,,,,,,0,,,,,,,,,,,,,,,,,,,,,,,,,,,,right,0,70,-30,40,0,678.9025737,678.9025737,678.9025737,None,None,2,0,0.0409569,,,,,,,,,,,,,,,,,,,,,,10,20,2,2024-11-28_16h05.26.609,uWM_experiment,2022.2.3,60.01003368
,,,,,,,,,,,,,,,,,,,,0,0,0,0,6,0,6,0,,,,,,,,,,,,,,,,,,,,,,,,,,,,,,,,,,,,,,,,,,,,,,,,,,,,,,,,,,,,,,,,,,,,,,0.005,,,,,,,,,,,,,,,,,,,,,,,,,,,,left,0,40,30,70,1,684.4694954,684.4694954,684.4694954,None,None,1,1,0.042015,,,,,,,,,,,,,,,,,,,,,,10,20,2,2024-11-28_16h05.26.609,uWM_experiment,2022.2.3,60.01003368
,,,,,,,,,,,,,,,,,,,,0,0,0,0,7,0,7,0,,,,,,,,,,,,,,,,,,,,,,,,,,,,,,,,,,,,,,,,,,,,,,,,,,,,,,,,,,,,,,,,,,,,,,0.015,,,,,,,,,,,,,,,,,,,,,,,,,,,,left,0,70,30,100,1,691.8864923,691.8864923,691.8864923,None,None,2,0,0.0970356,,,,,,,,,,,,,,,,,,,,,,10,20,2,2024-11-28_16h05.26.609,uWM_experiment,2022.2.3,60.01003368
,,,,,,,,,,,,,,,,,,,,0,0,0,0,8,0,8,0,,,,,,,,,,,,,,,,,,,,,,,,,,,,,,,,,,,,,,,,,,,,,,,,,,,,,,,,,,,,,,,,,,,,,,0,,,,,,,,,,,,,,,,,,,,,,,,,,,,right,0,10,-30,-20,0,697.7200951,697.7200951,697.7200951,None,None,1,1,0.0233866,,,,,,,,,,,,,,,,,,,,,,10,20,2,2024-11-28_16h05.26.609,uWM_experiment,2022.2.3,60.01003368
,,,,,,,,,,,,,,,,,,,,0,0,0,0,9,0,9,0,,,,,,,,,,,,,,,,,,,,,,,,,,,,,,,,,,,,,,,,,,,,,,,,,,,,,,,,,,,,,,,,,,,,,,0,,,,,,,,,,,,,,,,,,,,,,,,,,,,left,0,10,30,40,0,712.0540501,712.0540501,712.0540501,None,None,3,0,1.0254543,,,,,,,,,,,,,,,,,,,,,,10,20,2,2024-11-28_16h05.26.609,uWM_experiment,2022.2.3,60.01003368
,,,,,,,,,,,,,,,,,,,,0,0,0,0,10,0,10,0,,,,,,,,,,,,,,,,,,,,,,,,,,,,,,,,,,,,,,,,,,,,,,,,,,,,,,,,,,,,,,,,,,,,,,0.005,,,,,,,,,,,,,,,,,,,,,,,,,,,,right,1,70,30,100,1,719.5877354,719.5877354,719.5877354,None,None,2,0,0.5556982,,,,,,,,,,,,,,,,,,,,,,10,20,2,2024-11-28_16h05.26.609,uWM_experiment,2022.2.3,60.01003368
,,,,,,,,,,,,,,,,,,,,0,0,0,0,11,0,11,0,,,,,,,,,,,,,,,,,,,,,,,,,,,,,,,,,,,,,,,,,,,,,,,,,,,,,,,,,,,,,,,,,,,,,,0.005,,,,,,,,,,,,,,,,,,,,,,,,,,,,left,0,10,30,40,1,727.3047536,727.3047536,727.3047536,None,None,2,0,0.5587455,,,,,,,,,,,,,,,,,,,,,,10,20,2,2024-11-28_16h05.26.609,uWM_experiment,2022.2.3,60.01003368
,,,,,,,,,,,,,,,,,,,,0,0,0,0,12,0,12,0,,,,,,,,,,,,,,,,,,,,,,,,,,,,,,,,,,,,,,,,,,,,,,,,,,,,,,,,,,,,,,,,,,,,,,0.005,,,,,,,,,,,,,,,,,,,,,,,,,,,,left,0,160,30,190,1,733.6050477,733.6050477,733.6050477,None,None,2,0,0.1065916,,,,,,,,,,,,,,,,,,,,,,10,20,2,2024-11-28_16h05.26.609,uWM_experiment,2022.2.3,60.01003368
,,,,,,,,,,,,,,,,,,,,0,0,0,0,13,0,13,0,,,,,,,,,,,,,,,,,,,,,,,,,,,,,,,,,,,,,,,,,,,,,,,,,,,,,,,,,,,,,,,,,,,,,,0.005,,,,,,,,,,,,,,,,,,,,,,,,,,,,left,1,160,-30,130,1,742.4554296,742.4554296,742.4554296,None,None,3,0,1.5920684,,,,,,,,,,,,,,,,,,,,,,10,20,2,2024-11-28_16h05.26.609,uWM_experiment,2022.2.3,60.01003368
,,,,,,,,,,,,,,,,,,,,0,0,0,0,14,0,14,0,,,,,,,,,,,,,,,,,,,,,,,,,,,,,,,,,,,,,,,,,,,,,,,,,,,,,,,,,,,,,,,,,,,,,,0.005,,,,,,,,,,,,,,,,,,,,,,,,,,,,right,0,100,-30,70,1,751.3224746,751.3224746,751.3224746,None,None,2,0,0.4450477,,,,,,,,,,,,,,,,,,,,,,10,20,2,2024-11-28_16h05.26.609,uWM_experiment,2022.2.3,60.01003368
,,,,,,,,,,,,,,,,,,,,0,0,0,0,15,0,15,0,,,,,,,,,,,,,,,,,,,,,,,,,,,,,,,,,,,,,,,,,,,,,,,,,,,,,,,,,,,,,,,,,,,,,,0,,,,,,,,,,,,,,,,,,,,,,,,,,,,right,0,130,-30,100,0,758.4228128,758.4228128,758.4228128,None,None,2,0,0.3366663,,,,,,,,,,,,,,,,,,,,,,10,20,2,2024-11-28_16h05.26.609,uWM_experiment,2022.2.3,60.01003368
,,,,,,,,,,,,,,,,,,,,0,0,0,0,16,0,16,0,,,,,,,,,,,,,,,,,,,,,,,,,,,,,,,,,,,,,,,,,,,,,,,,,,,,,,,,,,,,,,,,,,,,,,0.005,,,,,,,,,,,,,,,,,,,,,,,,,,,,left,0,10,30,40,1,764.2064271,764.2064271,764.2064271,None,None,1,1,0.3772106,,,,,,,,,,,,,,,,,,,,,,10,20,2,2024-11-28_16h05.26.609,uWM_experiment,2022.2.3,60.01003368
,,,,,,,,,,,,,,,,,,,,0,0,0,0,17,0,17,0,,,,,,,,,,,,,,,,,,,,,,,,,,,,,,,,,,,,,,,,,,,,,,,,,,,,,,,,,,,,,,,,,,,,,,0.015,,,,,,,,,,,,,,,,,,,,,,,,,,,,left,0,10,30,40,1,771.1733914,771.1733914,771.1733914,None,None,2,0,0.610212,,,,,,,,,,,,,,,,,,,,,,10,20,2,2024-11-28_16h05.26.609,uWM_experiment,2022.2.3,60.01003368
,,,,,,,,,,,,,,,,,,,,0,0,0,0,18,0,18,0,,,,,,,,,,,,,,,,,,,,,,,,,,,,,,,,,,,,,,,,,,,,,,,,,,,,,,,,,,,,,,,,,,,,,,0.1,,,,,,,,,,,,,,,,,,,,,,,,,,,,left,1,100,-30,70,2,778.6904319,778.6904319,778.6904319,None,None,4,0,0.2370263,,,,,,,,,,,,,,,,,,,,,,10,20,2,2024-11-28_16h05.26.609,uWM_experiment,2022.2.3,60.01003368
,,,,,,,,,,,,,,,,,,,,0,0,0,0,19,0,19,0,,,,,,,,,,,,,,,,,,,,,,,,,,,,,,,,,,,,,,,,,,,,,,,,,,,,,,,,,,,,,,,,,,,,,,0.005,,,,,,,,,,,,,,,,,,,,,,,,,,,,left,0,160,30,190,1,786.2574075,786.2574075,786.2574075,None,None,3,0,1.4141785,,,,,,,,,,,,,,,,,,,,,,10,20,2,2024-11-28_16h05.26.609,uWM_experiment,2022.2.3,60.01003368
,,,,,,,,,,,,,,,,,,,,0,0,0,0,20,0,20,0,,,,,,,,,,,,,,,,,,,,,,,,,,,,,,,,,,,,,,,,,,,,,,,,,,,,,,,,,,,,,,,,,,,,,,0.005,,,,,,,,,,,,,,,,,,,,,,,,,,,,right,0,100,-30,70,1,795.1244884,795.1244884,795.1244884,None,None,2,0,0.0910983,,,,,,,,,,,,,,,,,,,,,,10,20,2,2024-11-28_16h05.26.609,uWM_experiment,2022.2.3,60.01003368
,,,,,,,,,,,,,,,,,,,,0,0,0,0,21,0,21,0,,,,,,,,,,,,,,,,,,,,,,,,,,,,,,,,,,,,,,,,,,,,,,,,,,,,,,,,,,,,,,,,,,,,,,0.005,,,,,,,,,,,,,,,,,,,,,,,,,,,,left,1,10,-30,-20,1,801.1414262,801.1414262,801.1414262,None,None,2,0,0.0823038,,,,,,,,,,,,,,,,,,,,,,10,20,2,2024-11-28_16h05.26.609,uWM_experiment,2022.2.3,60.01003368
,,,,,,,,,,,,,,,,,,,,0,0,0,0,22,0,22,0,,,,,,,,,,,,,,,,,,,,,,,,,,,,,,,,,,,,,,,,,,,,,,,,,,,,,,,,,,,,,,,,,,,,,,0,,,,,,,,,,,,,,,,,,,,,,,,,,,,right,1,10,30,40,0,806.6583173,806.6583173,806.6583173,None,None,1,1,0.0453541,,,,,,,,,,,,,,,,,,,,,,10,20,2,2024-11-28_16h05.26.609,uWM_experiment,2022.2.3,60.01003368
,,,,,,,,,,,,,,,,,,,,0,0,0,0,23,0,23,0,,,,,,,,,,,,,,,,,,,,,,,,,,,,,,,,,,,,,,,,,,,,,,,,,,,,,,,,,,,,,,,,,,,,,,0,,,,,,,,,,,,,,,,,,,,,,,,,,,,left,1,10,-30,-20,0,814.5253485,814.5253485,814.5253485,None,None,1,1,0.0502395,,,,,,,,,,,,,,,,,,,,,,10,20,2,2024-11-28_16h05.26.609,uWM_experiment,2022.2.3,60.01003368
,,,,,,,,,,,,,,,,,,,,0,0,0,0,,,,,0,0,0,0,,,,,,,,,,,,,,,,,,,,,,,,,,,,,,,,,,,,,,,,,,,,,,,,,,,,,,,,,,,,,,,,,,,,,,,,,,,,,,,,,,,,,,,,,,,,,,,,,,,,,,,,,,,,814.6086605,814.6086605,space,105.7990424,None,None,,,,,,,,,,,,,,,,10,20,2,2024-11-28_16h05.26.609,uWM_experiment,2022.2.3,60.01003368
,,,,,,,,,,,,,,,,,,,,0,0,0,0,,,,,1,0,1,0,,,,,,,,,,,,,,,,,,,,,,,,,,,,,,,,,,,,,,,,,,,,,,,,,,,,,,,,,,,,,,,,,,,,,,,,,,,,,,,,,,,,,,,,,,,,,,,,,,,,,,,,,,,,,,,,,,,,,,,,,,,,,,,,,10,20,2,2024-11-28_16h05.26.609,uWM_experiment,2022.2.3,60.01003368
,,,,,,,,,,,,,,,,,,,,0,0,0,0,,,,,2,0,2,0,,,,,,,,,,,,,,,,,,,,,,,,,,,,,,,,,,,,,,,,,,,,,,,,,,,,,,,,,,,,,,,,,,,,,,,,,,,,,,,,,,,,,,,,,,,,,,,,,,,,,,,,,,,,,,,,,,,,,,,,,,,,,,,,,10,20,2,2024-11-28_16h05.26.609,uWM_experiment,2022.2.3,60.01003368
,,,,,,,,,,,,,,,,,,,,1,0,1,0,0,0,0,0,,,,,,,,,,,,,,,,,,,,,,,,,,,,,,,,,,,,,,,,,,,,,,,,,,,,,,,,,,,,,,,,,,,,,,0.005,,,,,,,,,,,,,,,,,,,,920.4301274,921.1301609,921.4301823,922.1302007,922.4302136,923.1302493,923.1302493,923.4469396,left,1,40,-30,10,1,928.2971569,928.2971569,928.2971569,None,None,2,0,0.0946458,,,,,,,None,,,,,,,,,,,,,,,10,20,2,2024-11-28_16h05.26.609,uWM_experiment,2022.2.3,60.01003368
,,,,,,,,,,,,,,,,,,,,1,0,1,0,1,0,1,0,,,,,,,,,,,,,,,,,,,,,,,,,,,,,,,,,,,,,,,,,,,,,,,,,,,,,,,,,,,,,,,,,,,,,,0.005,,,,,,,,,,,,,,,,,,,,,,,,,,,,right,0,100,-30,70,1,933.9141096,933.9141096,933.9141096,None,None,1,1,0.0295912,,,,,,,,,,,,,,,,,,,,,,10,20,2,2024-11-28_16h05.26.609,uWM_experiment,2022.2.3,60.01003368
,,,,,,,,,,,,,,,,,,,,1,0,1,0,2,0,2,0,,,,,,,,,,,,,,,,,,,,,,,,,,,,,,,,,,,,,,,,,,,,,,,,,,,,,,,,,,,,,,,,,,,,,,0,,,,,,,,,,,,,,,,,,,,,,,,,,,,left,1,160,-30,130,0,939.1143332,939.1143332,939.1143332,None,None,1,1,0.0213312,,,,,,,,,,,,,,,,,,,,,,10,20,2,2024-11-28_16h05.26.609,uWM_experiment,2022.2.3,60.01003368
,,,,,,,,,,,,,,,,,,,,1,0,1,0,3,0,3,0,,,,,,,,,,,,,,,,,,,,,,,,,,,,,,,,,,,,,,,,,,,,,,,,,,,,,,,,,,,,,,,,,,,,,,0.015,,,,,,,,,,,,,,,,,,,,,,,,,,,,right,0,160,-30,130,1,944.5312192,944.5312192,944.5312192,None,None,1,1,0.0446021,,,,,,,,,,,,,,,,,,,,,,10,20,2,2024-11-28_16h05.26.609,uWM_experiment,2022.2.3,60.01003368
,,,,,,,,,,,,,,,,,,,,1,0,1,0,4,0,4,0,,,,,,,,,,,,,,,,,,,,,,,,,,,,,,,,,,,,,,,,,,,,,,,,,,,,,,,,,,,,,,,,,,,,,,0.025,,,,,,,,,,,,,,,,,,,,,,,,,,,,left,1,40,-30,10,1,949.9814844,949.9814844,949.9814844,None,None,1,1,0.0503525,,,,,,,,,,,,,,,,,,,,,,10,20,2,2024-11-28_16h05.26.609,uWM_experiment,2022.2.3,60.01003368
,,,,,,,,,,,,,,,,,,,,1,0,1,0,5,0,5,0,,,,,,,,,,,,,,,,,,,,,,,,,,,,,,,,,,,,,,,,,,,,,,,,,,,,,,,,,,,,,,,,,,,,,,0,,,,,,,,,,,,,,,,,,,,,,,,,,,,right,0,100,-30,70,0,955.9817717,955.9817717,955.9817717,None,None,2,0,0.0740415,,,,,,,,,,,,,,,,,,,,,,10,20,2,2024-11-28_16h05.26.609,uWM_experiment,2022.2.3,60.01003368
,,,,,,,,,,,,,,,,,,,,1,0,1,0,6,0,6,0,,,,,,,,,,,,,,,,,,,,,,,,,,,,,,,,,,,,,,,,,,,,,,,,,,,,,,,,,,,,,,,,,,,,,,0.035,,,,,,,,,,,,,,,,,,,,,,,,,,,,right,1,70,30,100,1,963.0987143,963.0987143,963.0987143,None,None,3,0,0.0850917,,,,,,,,,,,,,,,,,,,,,,10,20,2,2024-11-28_16h05.26.609,uWM_experiment,2022.2.3,60.01003368
,,,,,,,,,,,,,,,,,,,,1,0,1,0,7,0,7,0,,,,,,,,,,,,,,,,,,,,,,,,,,,,,,,,,,,,,,,,,,,,,,,,,,,,,,,,,,,,,,,,,,,,,,0.025,,,,,,,,,,,,,,,,,,,,,,,,,,,,right,1,40,30,70,1,970.6657345,970.6657345,970.6657345,None,None,2,0,0.6859824,,,,,,,,,,,,,,,,,,,,,,10,20,2,2024-11-28_16h05.26.609,uWM_experiment,2022.2.3,60.01003368
,,,,,,,,,,,,,,,,,,,,1,0,1,0,8,0,8,0,,,,,,,,,,,,,,,,,,,,,,,,,,,,,,,,,,,,,,,,,,,,,,,,,,,,,,,,,,,,,,,,,,,,,,0,,,,,,,,,,,,,,,,,,,,,,,,,,,,left,0,10,30,40,0,977.3160248,977.3160248,977.3160248,None,None,2,0,0.1157763,,,,,,,,,,,,,,,,,,,,,,10,20,2,2024-11-28_16h05.26.609,uWM_experiment,2022.2.3,60.01003368
,,,,,,,,,,,,,,,,,,,,1,0,1,0,9,0,9,0,,,,,,,,,,,,,,,,,,,,,,,,,,,,,,,,,,,,,,,,,,,,,,,,,,,,,,,,,,,,,,,,,,,,,,0,,,,,,,,,,,,,,,,,,,,,,,,,,,,left,1,40,-30,10,0,983.5663336,983.5663336,983.5663336,None,None,3,0,0.1215019,,,,,,,,,,,,,,,,,,,,,,10,20,2,2024-11-28_16h05.26.609,uWM_experiment,2022.2.3,60.01003368
,,,,,,,,,,,,,,,,,,,,1,0,1,0,10,0,10,0,,,,,,,,,,,,,,,,,,,,,,,,,,,,,,,,,,,,,,,,,,,,,,,,,,,,,,,,,,,,,,,,,,,,,,0.015,,,,,,,,,,,,,,,,,,,,,,,,,,,,right,0,40,-30,10,1,989.0999018,989.0999018,989.0999018,None,None,1,1,0.0038462,,,,,,,,,,,,,,,,,,,,,,10,20,2,2024-11-28_16h05.26.609,uWM_experiment,2022.2.3,60.01003368
,,,,,,,,,,,,,,,,,,,,1,0,1,0,11,0,11,0,,,,,,,,,,,,,,,,,,,,,,,,,,,,,,,,,,,,,,,,,,,,,,,,,,,,,,,,,,,,,,,,,,,,,,0.025,,,,,,,,,,,,,,,,,,,,,,,,,,,,right,0,70,-30,40,1,995.833541,995.833541,995.833541,None,None,3,0,0.0622187,,,,,,,,,,,,,,,,,,,,,,10,20,2,2024-11-28_16h05.26.609,uWM_experiment,2022.2.3,60.01003368
,,,,,,,,,,,,,,,,,,,,1,0,1,0,12,0,12,0,,,,,,,,,,,,,,,,,,,,,,,,,,,,,,,,,,,,,,,,,,,,,,,,,,,,,,,,,,,,,,,,,,,,,,0.015,,,,,,,,,,,,,,,,,,,,,,,,,,,,left,1,130,-30,100,1,1002.467185,1002.467185,1002.467185,None,None,2,0,0.0525143,,,,,,,,,,,,,,,,,,,,,,10,20,2,2024-11-28_16h05.26.609,uWM_experiment,2022.2.3,60.01003368
,,,,,,,,,,,,,,,,,,,,1,0,1,0,13,0,13,0,,,,,,,,,,,,,,,,,,,,,,,,,,,,,,,,,,,,,,,,,,,,,,,,,,,,,,,,,,,,,,,,,,,,,,0.005,,,,,,,,,,,,,,,,,,,,,,,,,,,,left,1,70,-30,40,1,1008.250758,1008.250758,1008.250758,None,None,1,1,0.0129998,,,,,,,,,,,,,,,,,,,,,,10,20,2,2024-11-28_16h05.26.609,uWM_experiment,2022.2.3,60.01003368
,,,,,,,,,,,,,,,,,,,,1,0,1,0,14,0,14,0,,,,,,,,,,,,,,,,,,,,,,,,,,,,,,,,,,,,,,,,,,,,,,,,,,,,,,,,,,,,,,,,,,,,,,0.015,,,,,,,,,,,,,,,,,,,,,,,,,,,,right,0,70,-30,40,1,1014.234425,1014.234425,1014.234425,None,None,2,0,0.1013371,,,,,,,,,,,,,,,,,,,,,,10,20,2,2024-11-28_16h05.26.609,uWM_experiment,2022.2.3,60.01003368
,,,,,,,,,,,,,,,,,,,,1,0,1,0,15,0,15,0,,,,,,,,,,,,,,,,,,,,,,,,,,,,,,,,,,,,,,,,,,,,,,,,,,,,,,,,,,,,,,,,,,,,,,0,,,,,,,,,,,,,,,,,,,,,,,,,,,,left,1,10,-30,-20,0,1019.867983,1019.867983,1019.867983,None,None,1,1,0.0597819,,,,,,,,,,,,,,,,,,,,,,10,20,2,2024-11-28_16h05.26.609,uWM_experiment,2022.2.3,60.01003368
,,,,,,,,,,,,,,,,,,,,1,0,1,0,16,0,16,0,,,,,,,,,,,,,,,,,,,,,,,,,,,,,,,,,,,,,,,,,,,,,,,,,,,,,,,,,,,,,,,,,,,,,,0.005,,,,,,,,,,,,,,,,,,,,,,,,,,,,left,0,130,30,160,1,1025.501522,1025.501522,1025.501522,None,None,1,1,0.0583127,,,,,,,,,,,,,,,,,,,,,,10,20,2,2024-11-28_16h05.26.609,uWM_experiment,2022.2.3,60.01003368
,,,,,,,,,,,,,,,,,,,,1,0,1,0,17,0,17,0,,,,,,,,,,,,,,,,,,,,,,,,,,,,,,,,,,,,,,,,,,,,,,,,,,,,,,,,,,,,,,,,,,,,,,0.015,,,,,,,,,,,,,,,,,,,,,,,,,,,,right,0,100,-30,70,1,1031.218459,1031.218459,1031.218459,None,None,1,1,0.0614082,,,,,,,,,,,,,,,,,,,,,,10,20,2,2024-11-28_16h05.26.609,uWM_experiment,2022.2.3,60.01003368
,,,,,,,,,,,,,,,,,,,,1,0,1,0,18,0,18,0,,,,,,,,,,,,,,,,,,,,,,,,,,,,,,,,,,,,,,,,,,,,,,,,,,,,,,,,,,,,,,,,,,,,,,0.025,,,,,,,,,,,,,,,,,,,,,,,,,,,,right,1,160,30,190,1,1038.252122,1038.252122,1038.252122,None,None,1,1,0.0516389,,,,,,,,,,,,,,,,,,,,,,10,20,2,2024-11-28_16h05.26.609,uWM_experiment,2022.2.3,60.01003368
,,,,,,,,,,,,,,,,,,,,1,0,1,0,19,0,19,0,,,,,,,,,,,,,,,,,,,,,,,,,,,,,,,,,,,,,,,,,,,,,,,,,,,,,,,,,,,,,,,,,,,,,,0,,,,,,,,,,,,,,,,,,,,,,,,,,,,right,1,10,30,40,0,1044.019056,1044.019056,1044.019056,None,None,1,1,0.0927977,,,,,,,,,,,,,,,,,,,,,,10,20,2,2024-11-28_16h05.26.609,uWM_experiment,2022.2.3,60.01003368
,,,,,,,,,,,,,,,,,,,,1,0,1,0,20,0,20,0,,,,,,,,,,,,,,,,,,,,,,,,,,,,,,,,,,,,,,,,,,,,,,,,,,,,,,,,,,,,,,,,,,,,,,0.035,,,,,,,,,,,,,,,,,,,,,,,,,,,,left,0,130,30,160,1,1049.969321,1049.969321,1049.969321,None,None,1,1,0.022456,,,,,,,,,,,,,,,,,,,,,,10,20,2,2024-11-28_16h05.26.609,uWM_experiment,2022.2.3,60.01003368
,,,,,,,,,,,,,,,,,,,,1,0,1,0,21,0,21,0,,,,,,,,,,,,,,,,,,,,,,,,,,,,,,,,,,,,,,,,,,,,,,,,,,,,,,,,,,,,,,,,,,,,,,0.045,,,,,,,,,,,,,,,,,,,,,,,,,,,,right,0,40,-30,10,1,1057.352965,1057.352965,1057.352965,None,None,1,1,0.0628546,,,,,,,,,,,,,,,,,,,,,,10,20,2,2024-11-28_16h05.26.609,uWM_experiment,2022.2.3,60.01003368
,,,,,,,,,,,,,,,,,,,,1,0,1,0,22,0,22,0,,,,,,,,,,,,,,,,,,,,,,,,,,,,,,,,,,,,,,,,,,,,,,,,,,,,,,,,,,,,,,,,,,,,,,0,,,,,,,,,,,,,,,,,,,,,,,,,,,,left,1,130,-30,100,0,1062.969908,1062.969908,1062.969908,None,None,1,1,0.0459576,,,,,,,,,,,,,,,,,,,,,,10,20,2,2024-11-28_16h05.26.609,uWM_experiment,2022.2.3,60.01003368
,,,,,,,,,,,,,,,,,,,,1,0,1,0,23,0,23,0,,,,,,,,,,,,,,,,,,,,,,,,,,,,,,,,,,,,,,,,,,,,,,,,,,,,,,,,,,,,,,,,,,,,,,0,,,,,,,,,,,,,,,,,,,,,,,,,,,,right,1,40,30,70,0,1068.536832,1068.536832,1068.536832,None,None,1,1,0.0071444,,,,,,,,,,,,,,,,,,,,,,10,20,2,2024-11-28_16h05.26.609,uWM_experiment,2022.2.3,60.01003368
,,,,,,,,,,,,,,,,,,,,1,0,1,0,,,,,0,0,0,0,,,,,,,,,,,,,,,,,,,,,,,,,,,,,,,,,,,,,,,,,,,,,,,,,,,,,,,,,,,,,,,,,,,,,,,,,,,,,,,,,,,,,,,,,,,,,,,,,,,,,,,,,,,,1068.570132,1068.570132,space,26.7337903,None,None,,,,,,,,,,,,,,,,10,20,2,2024-11-28_16h05.26.609,uWM_experiment,2022.2.3,60.01003368
,,,,,,,,,,,,,,,,,,,,1,0,1,0,,,,,1,0,1,0,,,,,,,,,,,,,,,,,,,,,,,,,,,,,,,,,,,,,,,,,,,,,,,,,,,,,,,,,,,,,,,,,,,,,,,,,,,,,,,,,,,,,,,,,,,,,,,,,,,,,,,,,,,,,,,,,,,,,,,,,,,,,,,,,10,20,2,2024-11-28_16h05.26.609,uWM_experiment,2022.2.3,60.01003368
,,,,,,,,,,,,,,,,,,,,1,0,1,0,,,,,2,0,2,0,,,,,,,,,,,,,,,,,,,,,,,,,,,,,,,,,,,,,,,,,,,,,,,,,,,,,,,,,,,,,,,,,,,,,,,,,,,,,,,,,,,,,,,,,,,,,,,,,,,,,,,,,,,,,,,,,,,,,,,,,,,,,,,,,10,20,2,2024-11-28_16h05.26.609,uWM_experiment,2022.2.3,60.01003368
,,,,,,,,,,,,,,,,,,,,2,0,2,0,0,0,0,0,,,,,,,,,,,,,,,,,,,,,,,,,,,,,,,,,,,,,,,,,,,,,,,,,,,,,,,,,,,,,,,,,,,,,,0.055,,,,,,,,,,,,,,,,,,,,1095.321357,1096.021402,1096.321395,1097.021431,1097.321429,1098.021474,1098.021474,1098.338159,left,1,70,-30,40,1,1103.738409,1103.738409,1103.738409,None,None,4,0,0.1013462,,,,,,,None,,,,,,,,,,,,,,,10,20,2,2024-11-28_16h05.26.609,uWM_experiment,2022.2.3,60.01003368
,,,,,,,,,,,,,,,,,,,,2,0,2,0,1,0,1,0,,,,,,,,,,,,,,,,,,,,,,,,,,,,,,,,,,,,,,,,,,,,,,,,,,,,,,,,,,,,,,,,,,,,,,0.045,,,,,,,,,,,,,,,,,,,,,,,,,,,,left,1,100,-30,70,1,1111.988777,1111.988777,1111.988777,None,None,4,0,0.0350789,,,,,,,,,,,,,,,,,,,,,,10,20,2,2024-11-28_16h05.26.609,uWM_experiment,2022.2.3,60.01003368
,,,,,,,,,,,,,,,,,,,,2,0,2,0,2,0,2,0,,,,,,,,,,,,,,,,,,,,,,,,,,,,,,,,,,,,,,,,,,,,,,,,,,,,,,,,,,,,,,,,,,,,,,0.035,,,,,,,,,,,,,,,,,,,,,,,,,,,,left,0,160,30,190,1,1119.755807,1119.755807,1119.755807,None,None,2,0,0.6680199,,,,,,,,,,,,,,,,,,,,,,10,20,2,2024-11-28_16h05.26.609,uWM_experiment,2022.2.3,60.01003368
,,,,,,,,,,,,,,,,,,,,2,0,2,0,3,0,3,0,,,,,,,,,,,,,,,,,,,,,,,,,,,,,,,,,,,,,,,,,,,,,,,,,,,,,,,,,,,,,,,,,,,,,,0.025,,,,,,,,,,,,,,,,,,,,,,,,,,,,right,0,70,-30,40,1,1126.056063,1126.056063,1126.056063,None,None,1,1,0.0078355,,,,,,,,,,,,,,,,,,,,,,10,20,2,2024-11-28_16h05.26.609,uWM_experiment,2022.2.3,60.01003368
,,,,,,,,,,,,,,,,,,,,2,0,2,0,4,0,4,0,,,,,,,,,,,,,,,,,,,,,,,,,,,,,,,,,,,,,,,,,,,,,,,,,,,,,,,,,,,,,,,,,,,,,,0.035,,,,,,,,,,,,,,,,,,,,,,,,,,,,right,0,130,-30,100,1,1131.88969,1131.88969,1131.88969,None,None,1,1,0.0302915,,,,,,,,,,,,,,,,,,,,,,10,20,2,2024-11-28_16h05.26.609,uWM_experiment,2022.2.3,60.01003368
,,,,,,,,,,,,,,,,,,,,2,0,2,0,5,0,5,0,,,,,,,,,,,,,,,,,,,,,,,,,,,,,,,,,,,,,,,,,,,,,,,,,,,,,,,,,,,,,,,,,,,,,,0.045,,,,,,,,,,,,,,,,,,,,,,,,,,,,left,1,10,-30,-20,1,1137.423263,1137.423263,1137.423263,None,None,2,0,0.0407246,,,,,,,,,,,,,,,,,,,,,,10,20,2,2024-11-28_16h05.26.609,uWM_experiment,2022.2.3,60.01003368
,,,,,,,,,,,,,,,,,,,,2,0,2,0,6,0,6,0,,,,,,,,,,,,,,,,,,,,,,,,,,,,,,,,,,,,,,,,,,,,,,,,,,,,,,,,,,,,,,,,,,,,,,0.035,,,,,,,,,,,,,,,,,,,,,,,,,,,,left,1,130,-30,100,1,1147.990448,1147.990448,1147.990448,None,None,3,0,1.857462,,,,,,,,,,,,,,,,,,,,,,10,20,2,2024-11-28_16h05.26.609,uWM_experiment,2022.2.3,60.01003368
,,,,,,,,,,,,,,,,,,,,2,0,2,0,7,0,7,0,,,,,,,,,,,,,,,,,,,,,,,,,,,,,,,,,,,,,,,,,,,,,,,,,,,,,,,,,,,,,,,,,,,,,,0,,,,,,,,,,,,,,,,,,,,,,,,,,,,left,0,160,30,190,0,1156.374121,1156.374121,1156.374121,None,None,2,0,0.0499095,,,,,,,,,,,,,,,,,,,,,,10,20,2,2024-11-28_16h05.26.609,uWM_experiment,2022.2.3,60.01003368
,,,,,,,,,,,,,,,,,,,,2,0,2,0,8,0,8,0,,,,,,,,,,,,,,,,,,,,,,,,,,,,,,,,,,,,,,,,,,,,,,,,,,,,,,,,,,,,,,,,,,,,,,0.1,,,,,,,,,,,,,,,,,,,,,,,,,,,,left,0,10,30,40,2,1174.224899,1174.224899,1174.224899,None,None,4,0,0.5510298,,,,,,,,,,,,,,,,,,,,,,10,20,2,2024-11-28_16h05.26.609,uWM_experiment,2022.2.3,60.01003368
,,,,,,,,,,,,,,,,,,,,2,0,2,0,9,0,9,0,,,,,,,,,,,,,,,,,,,,,,,,,,,,,,,,,,,,,,,,,,,,,,,,,,,,,,,,,,,,,,,,,,,,,,0.025,,,,,,,,,,,,,,,,,,,,,,,,,,,,left,1,130,-30,100,1,1181.375254,1181.375254,1181.375254,None,None,2,0,0.0326757,,,,,,,,,,,,,,,,,,,,,,10,20,2,2024-11-28_16h05.26.609,uWM_experiment,2022.2.3,60.01003368
,,,,,,,,,,,,,,,,,,,,2,0,2,0,10,0,10,0,,,,,,,,,,,,,,,,,,,,,,,,,,,,,,,,,,,,,,,,,,,,,,,,,,,,,,,,,,,,,,,,,,,,,,0.015,,,,,,,,,,,,,,,,,,,,,,,,,,,,left,0,40,30,70,1,1188.458891,1188.458891,1188.458891,None,None,2,0,0.045138,,,,,,,,,,,,,,,,,,,,,,10,20,2,2024-11-28_16h05.26.609,uWM_experiment,2022.2.3,60.01003368
,,,,,,,,,,,,,,,,,,,,2,0,2,0,11,0,11,0,,,,,,,,,,,,,,,,,,,,,,,,,,,,,,,,,,,,,,,,,,,,,,,,,,,,,,,,,,,,,,,,,,,,,,0.005,,,,,,,,,,,,,,,,,,,,,,,,,,,,right,1,70,30,100,1,1196.059235,1196.059235,1196.059235,None,None,3,0,0.020666,,,,,,,,,,,,,,,,,,,,,,10,20,2,2024-11-28_16h05.26.609,uWM_experiment,2022.2.3,60.01003368
,,,,,,,,,,,,,,,,,,,,2,0,2,0,12,0,12,0,,,,,,,,,,,,,,,,,,,,,,,,,,,,,,,,,,,,,,,,,,,,,,,,,,,,,,,,,,,,,,,,,,,,,,0.005,,,,,,,,,,,,,,,,,,,,,,,,,,,,right,1,70,30,100,1,1202.042843,1202.042843,1202.042843,None,None,3,0,0.0531219,,,,,,,,,,,,,,,,,,,,,,10,20,2,2024-11-28_16h05.26.609,uWM_experiment,2022.2.3,60.01003368
,,,,,,,,,,,,,,,,,,,,2,0,2,0,13,0,13,0,,,,,,,,,,,,,,,,,,,,,,,,,,,,,,,,,,,,,,,,,,,,,,,,,,,,,,,,,,,,,,,,,,,,,,0,,,,,,,,,,,,,,,,,,,,,,,,,,,,right,0,100,-30,70,0,1209.426523,1209.426523,1209.426523,None,None,2,0,0.0134338,,,,,,,,,,,,,,,,,,,,,,10,20,2,2024-11-28_16h05.26.609,uWM_experiment,2022.2.3,60.01003368
,,,,,,,,,,,,,,,,,,,,2,0,2,0,14,0,14,0,,,,,,,,,,,,,,,,,,,,,,,,,,,,,,,,,,,,,,,,,,,,,,,,,,,,,,,,,,,,,,,,,,,,,,0,,,,,,,,,,,,,,,,,,,,,,,,,,,,left,0,130,30,160,0,1216.593505,1216.593505,1216.593505,None,None,2,0,0.0065324,,,,,,,,,,,,,,,,,,,,,,10,20,2,2024-11-28_16h05.26.609,uWM_experiment,2022.2.3,60.01003368
,,,,,,,,,,,,,,,,,,,,2,0,2,0,15,0,15,0,,,,,,,,,,,,,,,,,,,,,,,,,,,,,,,,,,,,,,,,,,,,,,,,,,,,,,,,,,,,,,,,,,,,,,0.005,,,,,,,,,,,,,,,,,,,,,,,,,,,,right,1,130,30,160,1,1222.227065,1222.227065,1222.227065,None,None,1,1,0.0529114,,,,,,,,,,,,,,,,,,,,,,10,20,2,2024-11-28_16h05.26.609,uWM_experiment,2022.2.3,60.01003368
,,,,,,,,,,,,,,,,,,,,2,0,2,0,16,0,16,0,,,,,,,,,,,,,,,,,,,,,,,,,,,,,,,,,,,,,,,,,,,,,,,,,,,,,,,,,,,,,,,,,,,,,,0.015,,,,,,,,,,,,,,,,,,,,,,,,,,,,right,1,10,30,40,1,1228.660718,1228.660718,1228.660718,None,None,1,1,0.0192113,,,,,,,,,,,,,,,,,,,,,,10,20,2,2024-11-28_16h05.26.609,uWM_experiment,2022.2.3,60.01003368
,,,,,,,,,,,,,,,,,,,,2,0,2,0,17,0,17,0,,,,,,,,,,,,,,,,,,,,,,,,,,,,,,,,,,,,,,,,,,,,,,,,,,,,,,,,,,,,,,,,,,,,,,0,,,,,,,,,,,,,,,,,,,,,,,,,,,,left,0,130,30,160,0,1234.344315,1234.344315,1234.344315,None,None,1,1,0.0077036,,,,,,,,,,,,,,,,,,,,,,10,20,2,2024-11-28_16h05.26.609,uWM_experiment,2022.2.3,60.01003368
,,,,,,,,,,,,,,,,,,,,2,0,2,0,18,0,18,0,,,,,,,,,,,,,,,,,,,,,,,,,,,,,,,,,,,,,,,,,,,,,,,,,,,,,,,,,,,,,,,,,,,,,,0.025,,,,,,,,,,,,,,,,,,,,,,,,,,,,right,0,160,-30,130,1,1250.861725,1250.861725,1250.861725,None,None,2,0,0.1624024,,,,,,,,,,,,,,,,,,,,,,10,20,2,2024-11-28_16h05.26.609,uWM_experiment,2022.2.3,60.01003368
,,,,,,,,,,,,,,,,,,,,2,0,2,0,19,0,19,0,,,,,,,,,,,,,,,,,,,,,,,,,,,,,,,,,,,,,,,,,,,,,,,,,,,,,,,,,,,,,,,,,,,,,,0.015,,,,,,,,,,,,,,,,,,,,,,,,,,,,left,0,130,30,160,1,1256.728639,1256.728639,1256.728639,None,None,1,1,0.0154909,,,,,,,,,,,,,,,,,,,,,,10,20,2,2024-11-28_16h05.26.609,uWM_experiment,2022.2.3,60.01003368
,,,,,,,,,,,,,,,,,,,,2,0,2,0,20,0,20,0,,,,,,,,,,,,,,,,,,,,,,,,,,,,,,,,,,,,,,,,,,,,,,,,,,,,,,,,,,,,,,,,,,,,,,0,,,,,,,,,,,,,,,,,,,,,,,,,,,,right,1,40,30,70,0,1262.245573,1262.245573,1262.245573,None,None,1,1,0.42652,,,,,,,,,,,,,,,,,,,,,,10,20,2,2024-11-28_16h05.26.609,uWM_experiment,2022.2.3,60.01003368
,,,,,,,,,,,,,,,,,,,,2,0,2,0,21,0,21,0,,,,,,,,,,,,,,,,,,,,,,,,,,,,,,,,,,,,,,,,,,,,,,,,,,,,,,,,,,,,,,,,,,,,,,0.025,,,,,,,,,,,,,,,,,,,,,,,,,,,,left,1,70,-30,40,1,1274.546113,1274.546113,1274.546113,None,None,2,0,0.6779284,,,,,,,,,,,,,,,,,,,,,,10,20,2,2024-11-28_16h05.26.609,uWM_experiment,2022.2.3,60.01003368
,,,,,,,,,,,,,,,,,,,,2,0,2,0,22,0,22,0,,,,,,,,,,,,,,,,,,,,,,,,,,,,,,,,,,,,,,,,,,,,,,,,,,,,,,,,,,,,,,,,,,,,,,0.015,,,,,,,,,,,,,,,,,,,,,,,,,,,,left,1,100,-30,70,1,1281.146417,1281.146417,1281.146417,None,None,1,1,0.0375678,,,,,,,,,,,,,,,,,,,,,,10,20,2,2024-11-28_16h05.26.609,uWM_experiment,2022.2.3,60.01003368
,,,,,,,,,,,,,,,,,,,,2,0,2,0,23,0,23,0,,,,,,,,,,,,,,,,,,,,,,,,,,,,,,,,,,,,,,,,,,,,,,,,,,,,,,,,,,,,,,,,,,,,,,0.025,,,,,,,,,,,,,,,,,,,,,,,,,,,,right,0,160,-30,130,1,1287.830065,1287.830065,1287.830065,None,None,3,0,0.0419758,,,,,,,,,,,,,,,,,,,,,,10,20,2,2024-11-28_16h05.26.609,uWM_experiment,2022.2.3,60.01003368
,,,,,,,,,,,,,,,,,,,,2,0,2,0,,,,,0,0,0,0,,,,,,,,,,,,,,,,,,,,,,,,,,,,,,,,,,,,,,,,,,,,,,,,,,,,,,,,,,,,,,,,,,,,,,,,,,,,,,,,,,,,,,,,,,,,,,,,,,,,,,,,,,,,1287.896698,1287.896698,space,2.3113607,space,None,,1290.230142,1290.230142,3.8019964,,,,,,,,,,,,10,20,2,2024-11-28_16h05.26.609,uWM_experiment,2022.2.3,60.01003368
,,,,,,,,,,,,,,,,,,,,2,0,2,0,,,,,1,0,1,0,,,,,,,,,,,,,,,,,,,,,,,,,,,,,,,,,,,,,,,,,,,,,,,,,,,,,,,,,,,,,,,,,,,,,,,,,,,,,,,,,,,,,,,,,,,,,,,,,,,,,,,,,,,,,,,,,,,,,,,,,,,,,,,,,10,20,2,2024-11-28_16h05.26.609,uWM_experiment,2022.2.3,60.01003368
,,,,,,,,,,,,,,,,,,,,2,0,2,0,,,,,2,0,2,0,,,,,,,,,,,,,,,,,,,,,,,,,,,,,,,,,,,,,,,,,,,,,,,,,,,,,,,,,,,,,,,,,,,,,,,,,,,,,,,,,,,,,,,,,,,,,,,,,,,,,,,,,,,,,,,,,,,,,,,,,,,,,,,,,10,20,2,2024-11-28_16h05.26.609,uWM_experiment,2022.2.3,60.01003368
,,,,,,,,,,,,,,,,,,,,3,0,3,0,0,0,0,0,,,,,,,,,,,,,,,,,,,,,,,,,,,,,,,,,,,,,,,,,,,,,,,,,,,,,,,,,,,,,,,,,,,,,,0.015,,,,,,,,,,,,,,,,,,,,1294.063669,1294.763681,1295.063682,1295.763727,1296.063736,1296.763785,1296.763785,1297.080461,right,1,160,30,190,1,1303.564102,1303.564102,1303.564102,None,None,2,0,0.0359579,,,,,,,None,,,,,,,,,,,,,,,10,20,2,2024-11-28_16h05.26.609,uWM_experiment,2022.2.3,60.01003368
,,,,,,,,,,,,,,,,,,,,3,0,3,0,1,0,1,0,,,,,,,,,,,,,,,,,,,,,,,,,,,,,,,,,,,,,,,,,,,,,,,,,,,,,,,,,,,,,,,,,,,,,,0.005,,,,,,,,,,,,,,,,,,,,,,,,,,,,right,1,10,30,40,1,1309.214338,1309.214338,1309.214338,None,None,1,1,0.0257499,,,,,,,,,,,,,,,,,,,,,,10,20,2,2024-11-28_16h05.26.609,uWM_experiment,2022.2.3,60.01003368
,,,,,,,,,,,,,,,,,,,,3,0,3,0,2,0,2,0,,,,,,,,,,,,,,,,,,,,,,,,,,,,,,,,,,,,,,,,,,,,,,,,,,,,,,,,,,,,,,,,,,,,,,0.015,,,,,,,,,,,,,,,,,,,,,,,,,,,,right,0,130,-30,100,1,1315.064604,1315.064604,1315.064604,None,None,2,0,0.1355633,,,,,,,,,,,,,,,,,,,,,,10,20,2,2024-11-28_16h05.26.609,uWM_experiment,2022.2.3,60.01003368
,,,,,,,,,,,,,,,,,,,,3,0,3,0,3,0,3,0,,,,,,,,,,,,,,,,,,,,,,,,,,,,,,,,,,,,,,,,,,,,,,,,,,,,,,,,,,,,,,,,,,,,,,0.005,,,,,,,,,,,,,,,,,,,,,,,,,,,,right,1,40,30,70,1,1322.431599,1322.431599,1322.431599,None,None,1,1,0.1683788,,,,,,,,,,,,,,,,,,,,,,10,20,2,2024-11-28_16h05.26.609,uWM_experiment,2022.2.3,60.01003368
,,,,,,,,,,,,,,,,,,,,3,0,3,0,4,0,4,0,,,,,,,,,,,,,,,,,,,,,,,,,,,,,,,,,,,,,,,,,,,,,,,,,,,,,,,,,,,,,,,,,,,,,,0.015,,,,,,,,,,,,,,,,,,,,,,,,,,,,left,0,160,30,190,1,1329.098813,1329.098813,1329.098813,None,None,2,0,0.0933491,,,,,,,,,,,,,,,,,,,,,,10,20,2,2024-11-28_16h05.26.609,uWM_experiment,2022.2.3,60.01003368
,,,,,,,,,,,,,,,,,,,,3,0,3,0,5,0,5,0,,,,,,,,,,,,,,,,,,,,,,,,,,,,,,,,,,,,,,,,,,,,,,,,,,,,,,,,,,,,,,,,,,,,,,0.005,,,,,,,,,,,,,,,,,,,,,,,,,,,,left,0,130,30,160,1,1335.082189,1335.082189,1335.082189,None,None,2,0,0.0697958,,,,,,,,,,,,,,,,,,,,,,10,20,2,2024-11-28_16h05.26.609,uWM_experiment,2022.2.3,60.01003368
,,,,,,,,,,,,,,,,,,,,3,0,3,0,6,0,6,0,,,,,,,,,,,,,,,,,,,,,,,,,,,,,,,,,,,,,,,,,,,,,,,,,,,,,,,,,,,,,,,,,,,,,,0.005,,,,,,,,,,,,,,,,,,,,,,,,,,,,right,1,10,30,40,1,1340.649102,1340.649102,1340.649102,None,None,1,1,0.0230519,,,,,,,,,,,,,,,,,,,,,,10,20,2,2024-11-28_16h05.26.609,uWM_experiment,2022.2.3,60.01003368
,,,,,,,,,,,,,,,,,,,,3,0,3,0,7,0,7,0,,,,,,,,,,,,,,,,,,,,,,,,,,,,,,,,,,,,,,,,,,,,,,,,,,,,,,,,,,,,,,,,,,,,,,0.015,,,,,,,,,,,,,,,,,,,,,,,,,,,,left,1,40,-30,10,1,1347.549401,1347.549401,1347.549401,None,None,2,0,0.0827397,,,,,,,,,,,,,,,,,,,,,,10,20,2,2024-11-28_16h05.26.609,uWM_experiment,2022.2.3,60.01003368
,,,,,,,,,,,,,,,,,,,,3,0,3,0,8,0,8,0,,,,,,,,,,,,,,,,,,,,,,,,,,,,,,,,,,,,,,,,,,,,,,,,,,,,,,,,,,,,,,,,,,,,,,0.005,,,,,,,,,,,,,,,,,,,,,,,,,,,,right,0,70,-30,40,1,1353.499683,1353.499683,1353.499683,None,None,2,0,0.0683996,,,,,,,,,,,,,,,,,,,,,,10,20,2,2024-11-28_16h05.26.609,uWM_experiment,2022.2.3,60.01003368
,,,,,,,,,,,,,,,,,,,,3,0,3,0,9,0,9,0,,,,,,,,,,,,,,,,,,,,,,,,,,,,,,,,,,,,,,,,,,,,,,,,,,,,,,,,,,,,,,,,,,,,,,0.005,,,,,,,,,,,,,,,,,,,,,,,,,,,,right,1,10,30,40,1,1359.183264,1359.183264,1359.183264,None,None,1,1,0.4489671,,,,,,,,,,,,,,,,,,,,,,10,20,2,2024-11-28_16h05.26.609,uWM_experiment,2022.2.3,60.01003368
,,,,,,,,,,,,,,,,,,,,3,0,3,0,10,0,10,0,,,,,,,,,,,,,,,,,,,,,,,,,,,,,,,,,,,,,,,,,,,,,,,,,,,,,,,,,,,,,,,,,,,,,,0.015,,,,,,,,,,,,,,,,,,,,,,,,,,,,left,0,100,30,130,1,1365.383523,1365.383523,1365.383523,None,None,1,1,0.0085938,,,,,,,,,,,,,,,,,,,,,,10,20,2,2024-11-28_16h05.26.609,uWM_experiment,2022.2.3,60.01003368
,,,,,,,,,,,,,,,,,,,,3,0,3,0,11,0,11,0,,,,,,,,,,,,,,,,,,,,,,,,,,,,,,,,,,,,,,,,,,,,,,,,,,,,,,,,,,,,,,,,,,,,,,0.025,,,,,,,,,,,,,,,,,,,,,,,,,,,,right,1,70,30,100,1,1371.017127,1371.017127,1371.017127,None,None,1,1,0.0470948,,,,,,,,,,,,,,,,,,,,,,10,20,2,2024-11-28_16h05.26.609,uWM_experiment,2022.2.3,60.01003368
,,,,,,,,,,,,,,,,,,,,3,0,3,0,12,0,12,0,,,,,,,,,,,,,,,,,,,,,,,,,,,,,,,,,,,,,,,,,,,,,,,,,,,,,,,,,,,,,,,,,,,,,,0.035,,,,,,,,,,,,,,,,,,,,,,,,,,,,left,0,130,30,160,1,1377.884101,1377.884101,1377.884101,None,None,1,1,0.0441001,,,,,,,,,,,,,,,,,,,,,,10,20,2,2024-11-28_16h05.26.609,uWM_experiment,2022.2.3,60.01003368
,,,,,,,,,,,,,,,,,,,,3,0,3,0,13,0,13,0,,,,,,,,,,,,,,,,,,,,,,,,,,,,,,,,,,,,,,,,,,,,,,,,,,,,,,,,,,,,,,,,,,,,,,0.045,,,,,,,,,,,,,,,,,,,,,,,,,,,,right,0,70,-30,40,1,1385.034414,1385.034414,1385.034414,None,None,3,0,0.101783,,,,,,,,,,,,,,,,,,,,,,10,20,2,2024-11-28_16h05.26.609,uWM_experiment,2022.2.3,60.01003368
,,,,,,,,,,,,,,,,,,,,3,0,3,0,14,0,14,0,,,,,,,,,,,,,,,,,,,,,,,,,,,,,,,,,,,,,,,,,,,,,,,,,,,,,,,,,,,,,,,,,,,,,,0,,,,,,,,,,,,,,,,,,,,,,,,,,,,right,0,100,-30,70,0,1392.134756,1392.134756,1392.134756,None,None,2,0,0.2093658,,,,,,,,,,,,,,,,,,,,,,10,20,2,2024-11-28_16h05.26.609,uWM_experiment,2022.2.3,60.01003368
,,,,,,,,,,,,,,,,,,,,3,0,3,0,15,0,15,0,,,,,,,,,,,,,,,,,,,,,,,,,,,,,,,,,,,,,,,,,,,,,,,,,,,,,,,,,,,,,,,,,,,,,,0.035,,,,,,,,,,,,,,,,,,,,,,,,,,,,right,1,10,30,40,1,1402.118514,1402.118514,1402.118514,None,None,2,0,0.049693,,,,,,,,,,,,,,,,,,,,,,10,20,2,2024-11-28_16h05.26.609,uWM_experiment,2022.2.3,60.01003368
,,,,,,,,,,,,,,,,,,,,3,0,3,0,16,0,16,0,,,,,,,,,,,,,,,,,,,,,,,,,,,,,,,,,,,,,,,,,,,,,,,,,,,,,,,,,,,,,,,,,,,,,,0.025,,,,,,,,,,,,,,,,,,,,,,,,,,,,left,1,160,-30,130,1,1409.435544,1409.435544,1409.435544,None,None,2,0,0.1406007,,,,,,,,,,,,,,,,,,,,,,10,20,2,2024-11-28_16h05.26.609,uWM_experiment,2022.2.3,60.01003368
,,,,,,,,,,,,,,,,,,,,3,0,3,0,17,0,17,0,,,,,,,,,,,,,,,,,,,,,,,,,,,,,,,,,,,,,,,,,,,,,,,,,,,,,,,,,,,,,,,,,,,,,,0.015,,,,,,,,,,,,,,,,,,,,,,,,,,,,left,1,160,-30,130,1,1415.685799,1415.685799,1415.685799,None,None,1,1,0.1064711,,,,,,,,,,,,,,,,,,,,,,10,20,2,2024-11-28_16h05.26.609,uWM_experiment,2022.2.3,60.01003368
,,,,,,,,,,,,,,,,,,,,3,0,3,0,18,0,18,0,,,,,,,,,,,,,,,,,,,,,,,,,,,,,,,,,,,,,,,,,,,,,,,,,,,,,,,,,,,,,,,,,,,,,,0,,,,,,,,,,,,,,,,,,,,,,,,,,,,left,0,10,30,40,0,1422.486124,1422.486124,1422.486124,None,None,2,0,0.5781788,,,,,,,,,,,,,,,,,,,,,,10,20,2,2024-11-28_16h05.26.609,uWM_experiment,2022.2.3,60.01003368
,,,,,,,,,,,,,,,,,,,,3,0,3,0,19,0,19,0,,,,,,,,,,,,,,,,,,,,,,,,,,,,,,,,,,,,,,,,,,,,,,,,,,,,,,,,,,,,,,,,,,,,,,0.025,,,,,,,,,,,,,,,,,,,,,,,,,,,,left,0,70,30,100,1,1429.519769,1429.519769,1429.519769,None,None,2,0,0.9684171,,,,,,,,,,,,,,,,,,,,,,10,20,2,2024-11-28_16h05.26.609,uWM_experiment,2022.2.3,60.01003368
,,,,,,,,,,,,,,,,,,,,3,0,3,0,20,0,20,0,,,,,,,,,,,,,,,,,,,,,,,,,,,,,,,,,,,,,,,,,,,,,,,,,,,,,,,,,,,,,,,,,,,,,,0.015,,,,,,,,,,,,,,,,,,,,,,,,,,,,left,0,40,30,70,1,1438.570163,1438.570163,1438.570163,None,None,2,0,0.4461383,,,,,,,,,,,,,,,,,,,,,,10,20,2,2024-11-28_16h05.26.609,uWM_experiment,2022.2.3,60.01003368
,,,,,,,,,,,,,,,,,,,,3,0,3,0,21,0,21,0,,,,,,,,,,,,,,,,,,,,,,,,,,,,,,,,,,,,,,,,,,,,,,,,,,,,,,,,,,,,,,,,,,,,,,0,,,,,,,,,,,,,,,,,,,,,,,,,,,,left,0,100,30,130,0,1445.603885,1445.603885,1445.603885,None,None,2,0,0.0923229,,,,,,,,,,,,,,,,,,,,,,10,20,2,2024-11-28_16h05.26.609,uWM_experiment,2022.2.3,60.01003368
,,,,,,,,,,,,,,,,,,,,3,0,3,0,22,0,22,0,,,,,,,,,,,,,,,,,,,,,,,,,,,,,,,,,,,,,,,,,,,,,,,,,,,,,,,,,,,,,,,,,,,,,,0.005,,,,,,,,,,,,,,,,,,,,,,,,,,,,left,1,40,-30,10,1,1452.970836,1452.970836,1452.970836,None,None,2,0,0.0774311,,,,,,,,,,,,,,,,,,,,,,10,20,2,2024-11-28_16h05.26.609,uWM_experiment,2022.2.3,60.01003368
,,,,,,,,,,,,,,,,,,,,3,0,3,0,23,0,23,0,,,,,,,,,,,,,,,,,,,,,,,,,,,,,,,,,,,,,,,,,,,,,,,,,,,,,,,,,,,,,,,,,,,,,,0.1,,,,,,,,,,,,,,,,,,,,,,,,,,,,right,0,40,-30,10,2,1459.671136,1459.671136,1459.671136,None,None,1,1,0.1131105,,,,,,,,,,,,,,,,,,,,,,10,20,2,2024-11-28_16h05.26.609,uWM_experiment,2022.2.3,60.01003368
,,,,,,,,,,,,,,,,,,,,3,0,3,0,,,,,0,0,0,0,,,,,,,,,,,,,,,,,,,,,,,,,,,,,,,,,,,,,,,,,,,,,,,,,,,,,,,,,,,,,,,,,,,,,,,,,,,,,,,,,,,,,,,,,,,,,,,,,,,,,,,,,,,,1459.804483,1459.804483,space,1.2838999,None,None,,,,,,,,,,,,,,,,10,20,2,2024-11-28_16h05.26.609,uWM_experiment,2022.2.3,60.01003368
,,,,,,,,,,,,,,,,,,,,3,0,3,0,,,,,1,0,1,0,,,,,,,,,,,,,,,,,,,,,,,,,,,,,,,,,,,,,,,,,,,,,,,,,,,,,,,,,,,,,,,,,,,,,,,,,,,,,,,,,,,,,,,,,,,,,,,,,,,,,,,,,,,,,,,,,,,,,,,,,,,,,,,,,10,20,2,2024-11-28_16h05.26.609,uWM_experiment,2022.2.3,60.01003368
,,,,,,,,,,,,,,,,,,,,3,0,3,0,,,,,2,0,2,0,,,,,,,,,,,,,,,,,,,,,,,,,,,,,,,,,,,,,,,,,,,,,,,,,,,,,,,,,,,,,,,,,,,,,,,,,,,,,,,,,,,,,,,,,,,,,,,,,,,,,,,,,,,,,,,,,,,,,,,,,,,,,,,,,10,20,2,2024-11-28_16h05.26.609,uWM_experiment,2022.2.3,60.01003368
,,,,,,,,,,,,,,,,,,,,4,0,4,0,0,0,0,0,,,,,,,,,,,,,,,,,,,,,,,,,,,,,,,,,,,,,,,,,,,,,,,,,,,,,,,,,,,,,,,,,,,,,,0.005,,,,,,,,,,,,,,,,,,,,1461.121175,1461.821208,1462.121236,1462.821251,1463.121267,1463.821313,1463.821313,1464.13803,right,0,130,-30,100,1,1468.854875,1468.854875,1468.854875,None,None,1,1,0.0413407,,,,,,,None,,,,,,,,,,,,,,,10,20,2,2024-11-28_16h05.26.609,uWM_experiment,2022.2.3,60.01003368
,,,,,,,,,,,,,,,,,,,,4,0,4,0,1,0,1,0,,,,,,,,,,,,,,,,,,,,,,,,,,,,,,,,,,,,,,,,,,,,,,,,,,,,,,,,,,,,,,,,,,,,,,0.015,,,,,,,,,,,,,,,,,,,,,,,,,,,,right,1,40,30,70,1,1474.555126,1474.555126,1474.555126,None,None,1,1,0.09319,,,,,,,,,,,,,,,,,,,,,,10,20,2,2024-11-28_16h05.26.609,uWM_experiment,2022.2.3,60.01003368
,,,,,,,,,,,,,,,,,,,,4,0,4,0,2,0,2,0,,,,,,,,,,,,,,,,,,,,,,,,,,,,,,,,,,,,,,,,,,,,,,,,,,,,,,,,,,,,,,,,,,,,,,0.025,,,,,,,,,,,,,,,,,,,,,,,,,,,,left,0,130,30,160,1,1480.105375,1480.105375,1480.105375,None,None,1,1,0.0149752,,,,,,,,,,,,,,,,,,,,,,10,20,2,2024-11-28_16h05.26.609,uWM_experiment,2022.2.3,60.01003368
,,,,,,,,,,,,,,,,,,,,4,0,4,0,3,0,3,0,,,,,,,,,,,,,,,,,,,,,,,,,,,,,,,,,,,,,,,,,,,,,,,,,,,,,,,,,,,,,,,,,,,,,,0.035,,,,,,,,,,,,,,,,,,,,,,,,,,,,right,1,40,30,70,1,1487.855727,1487.855727,1487.855727,None,None,4,0,0.0485662,,,,,,,,,,,,,,,,,,,,,,10,20,2,2024-11-28_16h05.26.609,uWM_experiment,2022.2.3,60.01003368
,,,,,,,,,,,,,,,,,,,,4,0,4,0,4,0,4,0,,,,,,,,,,,,,,,,,,,,,,,,,,,,,,,,,,,,,,,,,,,,,,,,,,,,,,,,,,,,,,,,,,,,,,0.025,,,,,,,,,,,,,,,,,,,,,,,,,,,,left,1,40,-30,10,1,1494.406032,1494.406032,1494.406032,None,None,3,0,0.2582714,,,,,,,,,,,,,,,,,,,,,,10,20,2,2024-11-28_16h05.26.609,uWM_experiment,2022.2.3,60.01003368
,,,,,,,,,,,,,,,,,,,,4,0,4,0,5,0,5,0,,,,,,,,,,,,,,,,,,,,,,,,,,,,,,,,,,,,,,,,,,,,,,,,,,,,,,,,,,,,,,,,,,,,,,0.015,,,,,,,,,,,,,,,,,,,,,,,,,,,,left,1,70,-30,40,1,1501.523018,1501.523018,1501.523018,None,None,2,0,0.4372014,,,,,,,,,,,,,,,,,,,,,,10,20,2,2024-11-28_16h05.26.609,uWM_experiment,2022.2.3,60.01003368
,,,,,,,,,,,,,,,,,,,,4,0,4,0,6,0,6,0,,,,,,,,,,,,,,,,,,,,,,,,,,,,,,,,,,,,,,,,,,,,,,,,,,,,,,,,,,,,,,,,,,,,,,0.005,,,,,,,,,,,,,,,,,,,,,,,,,,,,left,0,130,30,160,1,1507.923292,1507.923292,1507.923292,None,None,2,0,0.1249675,,,,,,,,,,,,,,,,,,,,,,10,20,2,2024-11-28_16h05.26.609,uWM_experiment,2022.2.3,60.01003368
,,,,,,,,,,,,,,,,,,,,4,0,4,0,7,0,7,0,,,,,,,,,,,,,,,,,,,,,,,,,,,,,,,,,,,,,,,,,,,,,,,,,,,,,,,,,,,,,,,,,,,,,,0.005,,,,,,,,,,,,,,,,,,,,,,,,,,,,left,0,160,30,190,1,1514.006907,1514.006907,1514.006907,None,None,2,0,0.1214493,,,,,,,,,,,,,,,,,,,,,,10,20,2,2024-11-28_16h05.26.609,uWM_experiment,2022.2.3,60.01003368
,,,,,,,,,,,,,,,,,,,,4,0,4,0,8,0,8,0,,,,,,,,,,,,,,,,,,,,,,,,,,,,,,,,,,,,,,,,,,,,,,,,,,,,,,,,,,,,,,,,,,,,,,0,,,,,,,,,,,,,,,,,,,,,,,,,,,,left,0,100,30,130,0,1520.00717,1520.00717,1520.00717,None,None,2,0,0.1371997,,,,,,,,,,,,,,,,,,,,,,10,20,2,2024-11-28_16h05.26.609,uWM_experiment,2022.2.3,60.01003368
,,,,,,,,,,,,,,,,,,,,4,0,4,0,9,0,9,0,,,,,,,,,,,,,,,,,,,,,,,,,,,,,,,,,,,,,,,,,,,,,,,,,,,,,,,,,,,,,,,,,,,,,,0,,,,,,,,,,,,,,,,,,,,,,,,,,,,right,1,160,30,190,0,1526.057441,1526.057441,1526.057441,None,None,2,0,0.1108559,,,,,,,,,,,,,,,,,,,,,,10,20,2,2024-11-28_16h05.26.609,uWM_experiment,2022.2.3,60.01003368
,,,,,,,,,,,,,,,,,,,,4,0,4,0,10,0,10,0,,,,,,,,,,,,,,,,,,,,,,,,,,,,,,,,,,,,,,,,,,,,,,,,,,,,,,,,,,,,,,,,,,,,,,0.005,,,,,,,,,,,,,,,,,,,,,,,,,,,,left,1,160,-30,130,1,1533.341122,1533.341122,1533.341122,None,None,2,0,0.0991623,,,,,,,,,,,,,,,,,,,,,,10,20,2,2024-11-28_16h05.26.609,uWM_experiment,2022.2.3,60.01003368
,,,,,,,,,,,,,,,,,,,,4,0,4,0,11,0,11,0,,,,,,,,,,,,,,,,,,,,,,,,,,,,,,,,,,,,,,,,,,,,,,,,,,,,,,,,,,,,,,,,,,,,,,0.005,,,,,,,,,,,,,,,,,,,,,,,,,,,,right,0,70,-30,40,1,1538.858001,1538.858001,1538.858001,None,None,1,1,0.0222819,,,,,,,,,,,,,,,,,,,,,,10,20,2,2024-11-28_16h05.26.609,uWM_experiment,2022.2.3,60.01003368
,,,,,,,,,,,,,,,,,,,,4,0,4,0,12,0,12,0,,,,,,,,,,,,,,,,,,,,,,,,,,,,,,,,,,,,,,,,,,,,,,,,,,,,,,,,,,,,,,,,,,,,,,0.015,,,,,,,,,,,,,,,,,,,,,,,,,,,,left,0,100,30,130,1,1545.124977,1545.124977,1545.124977,None,None,1,1,0.2193151,,,,,,,,,,,,,,,,,,,,,,10,20,2,2024-11-28_16h05.26.609,uWM_experiment,2022.2.3,60.01003368
,,,,,,,,,,,,,,,,,,,,4,0,4,0,13,0,13,0,,,,,,,,,,,,,,,,,,,,,,,,,,,,,,,,,,,,,,,,,,,,,,,,,,,,,,,,,,,,,,,,,,,,,,0.025,,,,,,,,,,,,,,,,,,,,,,,,,,,,left,0,100,30,130,1,1550.858546,1550.858546,1550.858546,None,None,1,1,0.02981,,,,,,,,,,,,,,,,,,,,,,10,20,2,2024-11-28_16h05.26.609,uWM_experiment,2022.2.3,60.01003368
,,,,,,,,,,,,,,,,,,,,4,0,4,0,14,0,14,0,,,,,,,,,,,,,,,,,,,,,,,,,,,,,,,,,,,,,,,,,,,,,,,,,,,,,,,,,,,,,,,,,,,,,,0.035,,,,,,,,,,,,,,,,,,,,,,,,,,,,right,1,10,30,40,1,1556.808844,1556.808844,1556.808844,None,None,1,1,0.0475555,,,,,,,,,,,,,,,,,,,,,,10,20,2,2024-11-28_16h05.26.609,uWM_experiment,2022.2.3,60.01003368
,,,,,,,,,,,,,,,,,,,,4,0,4,0,15,0,15,0,,,,,,,,,,,,,,,,,,,,,,,,,,,,,,,,,,,,,,,,,,,,,,,,,,,,,,,,,,,,,,,,,,,,,,0,,,,,,,,,,,,,,,,,,,,,,,,,,,,left,0,160,30,190,0,1562.842471,1562.842471,1562.842471,None,None,1,1,0.0298864,,,,,,,,,,,,,,,,,,,,,,10,20,2,2024-11-28_16h05.26.609,uWM_experiment,2022.2.3,60.01003368
,,,,,,,,,,,,,,,,,,,,4,0,4,0,16,0,16,0,,,,,,,,,,,,,,,,,,,,,,,,,,,,,,,,,,,,,,,,,,,,,,,,,,,,,,,,,,,,,,,,,,,,,,0.045,,,,,,,,,,,,,,,,,,,,,,,,,,,,left,0,130,30,160,1,1570.94281,1570.94281,1570.94281,None,None,2,0,0.0095106,,,,,,,,,,,,,,,,,,,,,,10,20,2,2024-11-28_16h05.26.609,uWM_experiment,2022.2.3,60.01003368
,,,,,,,,,,,,,,,,,,,,4,0,4,0,17,0,17,0,,,,,,,,,,,,,,,,,,,,,,,,,,,,,,,,,,,,,,,,,,,,,,,,,,,,,,,,,,,,,,,,,,,,,,0.035,,,,,,,,,,,,,,,,,,,,,,,,,,,,right,0,100,-30,70,1,1576.726392,1576.726392,1576.726392,None,None,2,0,0.041971,,,,,,,,,,,,,,,,,,,,,,10,20,2,2024-11-28_16h05.26.609,uWM_experiment,2022.2.3,60.01003368
,,,,,,,,,,,,,,,,,,,,4,0,4,0,18,0,18,0,,,,,,,,,,,,,,,,,,,,,,,,,,,,,,,,,,,,,,,,,,,,,,,,,,,,,,,,,,,,,,,,,,,,,,0,,,,,,,,,,,,,,,,,,,,,,,,,,,,right,1,70,30,100,0,1582.426641,1582.426641,1582.426641,None,None,1,1,0.0138236,,,,,,,,,,,,,,,,,,,,,,10,20,2,2024-11-28_16h05.26.609,uWM_experiment,2022.2.3,60.01003368
,,,,,,,,,,,,,,,,,,,,4,0,4,0,19,0,19,0,,,,,,,,,,,,,,,,,,,,,,,,,,,,,,,,,,,,,,,,,,,,,,,,,,,,,,,,,,,,,,,,,,,,,,0,,,,,,,,,,,,,,,,,,,,,,,,,,,,left,1,70,-30,40,0,1588.276912,1588.276912,1588.276912,None,None,1,1,0.0354375,,,,,,,,,,,,,,,,,,,,,,10,20,2,2024-11-28_16h05.26.609,uWM_experiment,2022.2.3,60.01003368
,,,,,,,,,,,,,,,,,,,,4,0,4,0,20,0,20,0,,,,,,,,,,,,,,,,,,,,,,,,,,,,,,,,,,,,,,,,,,,,,,,,,,,,,,,,,,,,,,,,,,,,,,0,,,,,,,,,,,,,,,,,,,,,,,,,,,,right,0,10,-30,-20,0,1593.877159,1593.877159,1593.877159,None,None,1,1,0.0351736,,,,,,,,,,,,,,,,,,,,,,10,20,2,2024-11-28_16h05.26.609,uWM_experiment,2022.2.3,60.01003368
,,,,,,,,,,,,,,,,,,,,4,0,4,0,21,0,21,0,,,,,,,,,,,,,,,,,,,,,,,,,,,,,,,,,,,,,,,,,,,,,,,,,,,,,,,,,,,,,,,,,,,,,,0,,,,,,,,,,,,,,,,,,,,,,,,,,,,left,1,160,-30,130,0,1599.494083,1599.494083,1599.494083,None,None,1,1,0.0502902,,,,,,,,,,,,,,,,,,,,,,10,20,2,2024-11-28_16h05.26.609,uWM_experiment,2022.2.3,60.01003368
,,,,,,,,,,,,,,,,,,,,4,0,4,0,22,0,22,0,,,,,,,,,,,,,,,,,,,,,,,,,,,,,,,,,,,,,,,,,,,,,,,,,,,,,,,,,,,,,,,,,,,,,,0,,,,,,,,,,,,,,,,,,,,,,,,,,,,left,1,70,-30,40,0,1608.061131,1608.061131,1608.061131,None,None,1,1,0.4113516,,,,,,,,,,,,,,,,,,,,,,10,20,2,2024-11-28_16h05.26.609,uWM_experiment,2022.2.3,60.01003368
,,,,,,,,,,,,,,,,,,,,4,0,4,0,23,0,23,0,,,,,,,,,,,,,,,,,,,,,,,,,,,,,,,,,,,,,,,,,,,,,,,,,,,,,,,,,,,,,,,,,,,,,,0.1,,,,,,,,,,,,,,,,,,,,,,,,,,,,left,1,40,-30,10,2,1617.328238,1617.328238,1617.328238,None,None,4,0,1.3442155,,,,,,,,,,,,,,,,,,,,,,10,20,2,2024-11-28_16h05.26.609,uWM_experiment,2022.2.3,60.01003368
,,,,,,,,,,,,,,,,,,,,4,0,4,0,,,,,0,0,0,0,,,,,,,,,,,,,,,,,,,,,,,,,,,,,,,,,,,,,,,,,,,,,,,,,,,,,,,,,,,,,,,,,,,,,,,,,,,,,,,,,,,,,,,,,,,,,,,,,,,,,,,,,,,,1618.694974,1618.694974,space,2.1215297,None,None,,,,,,,,,,,,,,,,10,20,2,2024-11-28_16h05.26.609,uWM_experiment,2022.2.3,60.01003368
,,,,,,,,,,,,,,,,,,,,4,0,4,0,,,,,1,0,1,0,,,,,,,,,,,,,,,,,,,,,,,,,,,,,,,,,,,,,,,,,,,,,,,,,,,,,,,,,,,,,,,,,,,,,,,,,,,,,,,,,,,,,,,,,,,,,,,,,,,,,,,,,,,,,,,,,,,,,,,,,,,,,,,,,10,20,2,2024-11-28_16h05.26.609,uWM_experiment,2022.2.3,60.01003368
,,,,,,,,,,,,,,,,,,,,4,0,4,0,,,,,2,0,2,0,,,,,,,,,,,,,,,,,,,,,,,,,,,,,,,,,,,,,,,,,,,,,,,,,,,,,,,,,,,,,,,,,,,,,,,,,,,,,,,,,,,,,,,,,,,,,,,,,,,,,,,,,,,,,,,,,,,,,,,,,,,,,,,,,10,20,2,2024-11-28_16h05.26.609,uWM_experiment,2022.2.3,60.01003368
,,,,,,,,,,,,,,,,,,,,5,0,5,0,0,0,0,0,,,,,,,,,,,,,,,,,,,,,,,,,,,,,,,,,,,,,,,,,,,,,,,,,,,,,,,,,,,,,,,,,,,,,,0.025,,,,,,,,,,,,,,,,,,,,1620.845035,1621.545067,1621.845076,1622.545113,1622.845126,1623.545184,1623.545184,1623.861846,right,0,10,-30,-20,1,1632.012205,1632.012205,1632.012205,None,None,1,1,0.1082407,,,,,,,None,,,,,,,,,,,,,,,10,20,2,2024-11-28_16h05.26.609,uWM_experiment,2022.2.3,60.01003368
,,,,,,,,,,,,,,,,,,,,5,0,5,0,1,0,1,0,,,,,,,,,,,,,,,,,,,,,,,,,,,,,,,,,,,,,,,,,,,,,,,,,,,,,,,,,,,,,,,,,,,,,,0.035,,,,,,,,,,,,,,,,,,,,,,,,,,,,right,1,130,30,160,1,1640.312597,1640.312597,1640.312597,None,None,2,0,0.9677704,,,,,,,,,,,,,,,,,,,,,,10,20,2,2024-11-28_16h05.26.609,uWM_experiment,2022.2.3,60.01003368
,,,,,,,,,,,,,,,,,,,,5,0,5,0,2,0,2,0,,,,,,,,,,,,,,,,,,,,,,,,,,,,,,,,,,,,,,,,,,,,,,,,,,,,,,,,,,,,,,,,,,,,,,0.025,,,,,,,,,,,,,,,,,,,,,,,,,,,,left,0,70,30,100,1,1647.796276,1647.796276,1647.796276,None,None,3,0,1.1802083,,,,,,,,,,,,,,,,,,,,,,10,20,2,2024-11-28_16h05.26.609,uWM_experiment,2022.2.3,60.01003368
,,,,,,,,,,,,,,,,,,,,5,0,5,0,3,0,3,0,,,,,,,,,,,,,,,,,,,,,,,,,,,,,,,,,,,,,,,,,,,,,,,,,,,,,,,,,,,,,,,,,,,,,,0.015,,,,,,,,,,,,,,,,,,,,,,,,,,,,right,1,40,30,70,1,1655.329926,1655.329926,1655.329926,None,None,1,1,0.0225257,,,,,,,,,,,,,,,,,,,,,,10,20,2,2024-11-28_16h05.26.609,uWM_experiment,2022.2.3,60.01003368
,,,,,,,,,,,,,,,,,,,,5,0,5,0,4,0,4,0,,,,,,,,,,,,,,,,,,,,,,,,,,,,,,,,,,,,,,,,,,,,,,,,,,,,,,,,,,,,,,,,,,,,,,0.025,,,,,,,,,,,,,,,,,,,,,,,,,,,,right,0,130,-30,100,1,1661.613559,1661.613559,1661.613559,None,None,2,0,0.0268693,,,,,,,,,,,,,,,,,,,,,,10,20,2,2024-11-28_16h05.26.609,uWM_experiment,2022.2.3,60.01003368
,,,,,,,,,,,,,,,,,,,,5,0,5,0,5,0,5,0,,,,,,,,,,,,,,,,,,,,,,,,,,,,,,,,,,,,,,,,,,,,,,,,,,,,,,,,,,,,,,,,,,,,,,0.015,,,,,,,,,,,,,,,,,,,,,,,,,,,,left,1,10,-30,-20,1,1667.530488,1667.530488,1667.530488,None,None,2,0,0.0619949,,,,,,,,,,,,,,,,,,,,,,10,20,2,2024-11-28_16h05.26.609,uWM_experiment,2022.2.3,60.01003368
,,,,,,,,,,,,,,,,,,,,5,0,5,0,6,0,6,0,,,,,,,,,,,,,,,,,,,,,,,,,,,,,,,,,,,,,,,,,,,,,,,,,,,,,,,,,,,,,,,,,,,,,,0.005,,,,,,,,,,,,,,,,,,,,,,,,,,,,right,1,40,30,70,1,1674.614147,1674.614147,1674.614147,None,None,3,0,0.1782541,,,,,,,,,,,,,,,,,,,,,,10,20,2,2024-11-28_16h05.26.609,uWM_experiment,2022.2.3,60.01003368
,,,,,,,,,,,,,,,,,,,,5,0,5,0,7,0,7,0,,,,,,,,,,,,,,,,,,,,,,,,,,,,,,,,,,,,,,,,,,,,,,,,,,,,,,,,,,,,,,,,,,,,,,0.005,,,,,,,,,,,,,,,,,,,,,,,,,,,,left,0,100,30,130,1,1683.181212,1683.181212,1683.181212,None,None,2,0,0.0671897,,,,,,,,,,,,,,,,,,,,,,10,20,2,2024-11-28_16h05.26.609,uWM_experiment,2022.2.3,60.01003368
,,,,,,,,,,,,,,,,,,,,5,0,5,0,8,0,8,0,,,,,,,,,,,,,,,,,,,,,,,,,,,,,,,,,,,,,,,,,,,,,,,,,,,,,,,,,,,,,,,,,,,,,,0.005,,,,,,,,,,,,,,,,,,,,,,,,,,,,left,1,130,-30,100,1,1689.164772,1689.164772,1689.164772,None,None,1,1,0.0516882,,,,,,,,,,,,,,,,,,,,,,10,20,2,2024-11-28_16h05.26.609,uWM_experiment,2022.2.3,60.01003368
,,,,,,,,,,,,,,,,,,,,5,0,5,0,9,0,9,0,,,,,,,,,,,,,,,,,,,,,,,,,,,,,,,,,,,,,,,,,,,,,,,,,,,,,,,,,,,,,,,,,,,,,,0.015,,,,,,,,,,,,,,,,,,,,,,,,,,,,left,0,160,30,190,1,1697.715183,1697.715183,1697.715183,None,None,2,0,1.1253168,,,,,,,,,,,,,,,,,,,,,,10,20,2,2024-11-28_16h05.26.609,uWM_experiment,2022.2.3,60.01003368
,,,,,,,,,,,,,,,,,,,,5,0,5,0,10,0,10,0,,,,,,,,,,,,,,,,,,,,,,,,,,,,,,,,,,,,,,,,,,,,,,,,,,,,,,,,,,,,,,,,,,,,,,0,,,,,,,,,,,,,,,,,,,,,,,,,,,,left,0,70,30,100,0,1704.515486,1704.515486,1704.515486,None,None,1,1,0.0529945,,,,,,,,,,,,,,,,,,,,,,10,20,2,2024-11-28_16h05.26.609,uWM_experiment,2022.2.3,60.01003368
,,,,,,,,,,,,,,,,,,,,5,0,5,0,11,0,11,0,,,,,,,,,,,,,,,,,,,,,,,,,,,,,,,,,,,,,,,,,,,,,,,,,,,,,,,,,,,,,,,,,,,,,,0.005,,,,,,,,,,,,,,,,,,,,,,,,,,,,right,0,70,-30,40,1,1711.799224,1711.799224,1711.799224,None,None,1,1,0.3772336,,,,,,,,,,,,,,,,,,,,,,10,20,2,2024-11-28_16h05.26.609,uWM_experiment,2022.2.3,60.01003368
,,,,,,,,,,,,,,,,,,,,5,0,5,0,12,0,12,0,,,,,,,,,,,,,,,,,,,,,,,,,,,,,,,,,,,,,,,,,,,,,,,,,,,,,,,,,,,,,,,,,,,,,,0,,,,,,,,,,,,,,,,,,,,,,,,,,,,left,0,100,30,130,0,1717.899417,1717.899417,1717.899417,None,None,1,1,0.0611835,,,,,,,,,,,,,,,,,,,,,,10,20,2,2024-11-28_16h05.26.609,uWM_experiment,2022.2.3,60.01003368
,,,,,,,,,,,,,,,,,,,,5,0,5,0,13,0,13,0,,,,,,,,,,,,,,,,,,,,,,,,,,,,,,,,,,,,,,,,,,,,,,,,,,,,,,,,,,,,,,,,,,,,,,0.015,,,,,,,,,,,,,,,,,,,,,,,,,,,,right,0,160,-30,130,1,1723.766365,1723.766365,1723.766365,None,None,1,1,0.0261526,,,,,,,,,,,,,,,,,,,,,,10,20,2,2024-11-28_16h05.26.609,uWM_experiment,2022.2.3,60.01003368
,,,,,,,,,,,,,,,,,,,,5,0,5,0,14,0,14,0,,,,,,,,,,,,,,,,,,,,,,,,,,,,,,,,,,,,,,,,,,,,,,,,,,,,,,,,,,,,,,,,,,,,,,0,,,,,,,,,,,,,,,,,,,,,,,,,,,,right,1,10,30,40,0,1729.983299,1729.983299,1729.983299,None,None,1,1,0.0333044,,,,,,,,,,,,,,,,,,,,,,10,20,2,2024-11-28_16h05.26.609,uWM_experiment,2022.2.3,60.01003368
,,,,,,,,,,,,,,,,,,,,5,0,5,0,15,0,15,0,,,,,,,,,,,,,,,,,,,,,,,,,,,,,,,,,,,,,,,,,,,,,,,,,,,,,,,,,,,,,,,,,,,,,,0,,,,,,,,,,,,,,,,,,,,,,,,,,,,right,0,100,-30,70,0,1735.583559,1735.583559,1735.583559,None,None,1,1,0.0730561,,,,,,,,,,,,,,,,,,,,,,10,20,2,2024-11-28_16h05.26.609,uWM_experiment,2022.2.3,60.01003368
,,,,,,,,,,,,,,,,,,,,5,0,5,0,16,0,16,0,,,,,,,,,,,,,,,,,,,,,,,,,,,,,,,,,,,,,,,,,,,,,,,,,,,,,,,,,,,,,,,,,,,,,,0.025,,,,,,,,,,,,,,,,,,,,,,,,,,,,left,0,10,30,40,1,1741.567153,1741.567153,1741.567153,None,None,1,1,0.033359,,,,,,,,,,,,,,,,,,,,,,10,20,2,2024-11-28_16h05.26.609,uWM_experiment,2022.2.3,60.01003368
,,,,,,,,,,,,,,,,,,,,5,0,5,0,17,0,17,0,,,,,,,,,,,,,,,,,,,,,,,,,,,,,,,,,,,,,,,,,,,,,,,,,,,,,,,,,,,,,,,,,,,,,,0.035,,,,,,,,,,,,,,,,,,,,,,,,,,,,left,1,160,-30,130,1,1747.167411,1747.167411,1747.167411,None,None,2,0,0.0491765,,,,,,,,,,,,,,,,,,,,,,10,20,2,2024-11-28_16h05.26.609,uWM_experiment,2022.2.3,60.01003368
,,,,,,,,,,,,,,,,,,,,5,0,5,0,18,0,18,0,,,,,,,,,,,,,,,,,,,,,,,,,,,,,,,,,,,,,,,,,,,,,,,,,,,,,,,,,,,,,,,,,,,,,,0.1,,,,,,,,,,,,,,,,,,,,,,,,,,,,left,1,40,-30,10,2,1755.117773,1755.117773,1755.117773,None,None,4,0,1.4507259,,,,,,,,,,,,,,,,,,,,,,10,20,2,2024-11-28_16h05.26.609,uWM_experiment,2022.2.3,60.01003368
,,,,,,,,,,,,,,,,,,,,5,0,5,0,19,0,19,0,,,,,,,,,,,,,,,,,,,,,,,,,,,,,,,,,,,,,,,,,,,,,,,,,,,,,,,,,,,,,,,,,,,,,,0.025,,,,,,,,,,,,,,,,,,,,,,,,,,,,left,1,40,-30,10,1,1763.101452,1763.101452,1763.101452,None,None,3,0,0.9551207,,,,,,,,,,,,,,,,,,,,,,10,20,2,2024-11-28_16h05.26.609,uWM_experiment,2022.2.3,60.01003368
,,,,,,,,,,,,,,,,,,,,5,0,5,0,20,0,20,0,,,,,,,,,,,,,,,,,,,,,,,,,,,,,,,,,,,,,,,,,,,,,,,,,,,,,,,,,,,,,,,,,,,,,,0.015,,,,,,,,,,,,,,,,,,,,,,,,,,,,left,1,10,-30,-20,1,1769.868496,1769.868496,1769.868496,None,None,2,0,0.5720507,,,,,,,,,,,,,,,,,,,,,,10,20,2,2024-11-28_16h05.26.609,uWM_experiment,2022.2.3,60.01003368
,,,,,,,,,,,,,,,,,,,,5,0,5,0,21,0,21,0,,,,,,,,,,,,,,,,,,,,,,,,,,,,,,,,,,,,,,,,,,,,,,,,,,,,,,,,,,,,,,,,,,,,,,0,,,,,,,,,,,,,,,,,,,,,,,,,,,,left,1,160,-30,130,0,1776.085385,1776.085385,1776.085385,None,None,1,1,0.0511133,,,,,,,,,,,,,,,,,,,,,,10,20,2,2024-11-28_16h05.26.609,uWM_experiment,2022.2.3,60.01003368
,,,,,,,,,,,,,,,,,,,,5,0,5,0,22,0,22,0,,,,,,,,,,,,,,,,,,,,,,,,,,,,,,,,,,,,,,,,,,,,,,,,,,,,,,,,,,,,,,,,,,,,,,0.005,,,,,,,,,,,,,,,,,,,,,,,,,,,,right,1,40,30,70,1,1781.968985,1781.968985,1781.968985,None,None,1,1,0.0636315,,,,,,,,,,,,,,,,,,,,,,10,20,2,2024-11-28_16h05.26.609,uWM_experiment,2022.2.3,60.01003368
,,,,,,,,,,,,,,,,,,,,5,0,5,0,23,0,23,0,,,,,,,,,,,,,,,,,,,,,,,,,,,,,,,,,,,,,,,,,,,,,,,,,,,,,,,,,,,,,,,,,,,,,,0.015,,,,,,,,,,,,,,,,,,,,,,,,,,,,left,0,160,30,190,1,1792.136106,1792.136106,1792.136106,None,None,1,1,0.016558,,,,,,,,,,,,,,,,,,,,,,10,20,2,2024-11-28_16h05.26.609,uWM_experiment,2022.2.3,60.01003368
,,,,,,,,,,,,,,,,,,,,5,0,5,0,,,,,0,0,0,0,,,,,,,,,,,,,,,,,,,,,,,,,,,,,,,,,,,,,,,,,,,,,,,,,,,,,,,,,,,,,,,,,,,,,,,,,,,,,,,,,,,,,,,,,,,,,,,,,,,,,,,,,,,,1792.169413,1792.169413,space,299.4955442,space,None,,2091.682961,2091.682961,1.1579897,,,,,,,,,,,,10,20,2,2024-11-28_16h05.26.609,uWM_experiment,2022.2.3,60.01003368
,,,,,,,,,,,,,,,,,,,,5,0,5,0,,,,,1,0,1,0,,,,,,,,,,,,,,,,,,,,,,,,,,,,,,,,,,,,,,,,,,,,,,,,,,,,,,,,,,,,,,,,,,,,,,,,,,,,,,,,,,,,,,,,,,,,,,,,,,,,,,,,,,,,,,,,,,,,,,,,,,,,,,,,,10,20,2,2024-11-28_16h05.26.609,uWM_experiment,2022.2.3,60.01003368
,,,,,,,,,,,,,,,,,,,,5,0,5,0,,,,,2,0,2,0,,,,,,,,,,,,,,,,,,,,,,,,,,,,,,,,,,,,,,,,,,,,,,,,,,,,,,,,,,,,,,,,,,,,,,,,,,,,,,,,,,,,,,,,,,,,,,,,,,,,,,,,,,,,,,,,,,,,,,,,,,,,,,,,,10,20,2,2024-11-28_16h05.26.609,uWM_experiment,2022.2.3,60.01003368
,,,,,,,,,,,,,,,,,,,,6,0,6,0,0,0,0,0,,,,,,,,,,,,,,,,,,,,,,,,,,,,,,,,,,,,,,,,,,,,,,,,,,,,,,,,,,,,,,,,,,,,,,0.025,,,,,,,,,,,,,,,,,,,,2092.866361,2093.566387,2093.866383,2094.566414,2094.866447,2095.566459,2095.566459,2095.883184,left,0,10,30,40,1,2102.4168,2102.4168,2102.4168,None,None,3,0,0.1361583,,,,,,,None,,,,,,,,,,,,,,,10,20,2,2024-11-28_16h05.26.609,uWM_experiment,2022.2.3,60.01003368
,,,,,,,,,,,,,,,,,,,,6,0,6,0,1,0,1,0,,,,,,,,,,,,,,,,,,,,,,,,,,,,,,,,,,,,,,,,,,,,,,,,,,,,,,,,,,,,,,,,,,,,,,0,,,,,,,,,,,,,,,,,,,,,,,,,,,,left,1,70,-30,40,0,2109.517101,2109.517101,2109.517101,None,None,2,0,0.051793,,,,,,,,,,,,,,,,,,,,,,10,20,2,2024-11-28_16h05.26.609,uWM_experiment,2022.2.3,60.01003368
,,,,,,,,,,,,,,,,,,,,6,0,6,0,2,0,2,0,,,,,,,,,,,,,,,,,,,,,,,,,,,,,,,,,,,,,,,,,,,,,,,,,,,,,,,,,,,,,,,,,,,,,,0.015,,,,,,,,,,,,,,,,,,,,,,,,,,,,left,0,160,30,190,1,2116.900784,2116.900784,2116.900784,None,None,2,0,0.0922384,,,,,,,,,,,,,,,,,,,,,,10,20,2,2024-11-28_16h05.26.609,uWM_experiment,2022.2.3,60.01003368
,,,,,,,,,,,,,,,,,,,,6,0,6,0,3,0,3,0,,,,,,,,,,,,,,,,,,,,,,,,,,,,,,,,,,,,,,,,,,,,,,,,,,,,,,,,,,,,,,,,,,,,,,0.005,,,,,,,,,,,,,,,,,,,,,,,,,,,,right,0,130,-30,100,1,2123.067699,2123.067699,2123.067699,None,None,2,0,0.0372243,,,,,,,,,,,,,,,,,,,,,,10,20,2,2024-11-28_16h05.26.609,uWM_experiment,2022.2.3,60.01003368
,,,,,,,,,,,,,,,,,,,,6,0,6,0,4,0,4,0,,,,,,,,,,,,,,,,,,,,,,,,,,,,,,,,,,,,,,,,,,,,,,,,,,,,,,,,,,,,,,,,,,,,,,0,,,,,,,,,,,,,,,,,,,,,,,,,,,,left,1,70,-30,40,0,2129.534682,2129.534682,2129.534682,None,None,2,0,0.0743259,,,,,,,,,,,,,,,,,,,,,,10,20,2,2024-11-28_16h05.26.609,uWM_experiment,2022.2.3,60.01003368
,,,,,,,,,,,,,,,,,,,,6,0,6,0,5,0,5,0,,,,,,,,,,,,,,,,,,,,,,,,,,,,,,,,,,,,,,,,,,,,,,,,,,,,,,,,,,,,,,,,,,,,,,0.005,,,,,,,,,,,,,,,,,,,,,,,,,,,,right,0,130,-30,100,1,2135.801615,2135.801615,2135.801615,None,None,2,0,1.0153885,,,,,,,,,,,,,,,,,,,,,,10,20,2,2024-11-28_16h05.26.609,uWM_experiment,2022.2.3,60.01003368
,,,,,,,,,,,,,,,,,,,,6,0,6,0,6,0,6,0,,,,,,,,,,,,,,,,,,,,,,,,,,,,,,,,,,,,,,,,,,,,,,,,,,,,,,,,,,,,,,,,,,,,,,0.005,,,,,,,,,,,,,,,,,,,,,,,,,,,,right,0,100,-30,70,1,2142.518602,2142.518602,2142.518602,None,None,2,0,0.090438,,,,,,,,,,,,,,,,,,,,,,10,20,2,2024-11-28_16h05.26.609,uWM_experiment,2022.2.3,60.01003368
,,,,,,,,,,,,,,,,,,,,6,0,6,0,7,0,7,0,,,,,,,,,,,,,,,,,,,,,,,,,,,,,,,,,,,,,,,,,,,,,,,,,,,,,,,,,,,,,,,,,,,,,,0,,,,,,,,,,,,,,,,,,,,,,,,,,,,left,1,70,-30,40,0,2148.818891,2148.818891,2148.818891,None,None,2,0,0.2620849,,,,,,,,,,,,,,,,,,,,,,10,20,2,2024-11-28_16h05.26.609,uWM_experiment,2022.2.3,60.01003368
,,,,,,,,,,,,,,,,,,,,6,0,6,0,8,0,8,0,,,,,,,,,,,,,,,,,,,,,,,,,,,,,,,,,,,,,,,,,,,,,,,,,,,,,,,,,,,,,,,,,,,,,,0.005,,,,,,,,,,,,,,,,,,,,,,,,,,,,right,1,40,30,70,1,2154.952487,2154.952487,2154.952487,None,None,2,0,0.1044565,,,,,,,,,,,,,,,,,,,,,,10,20,2,2024-11-28_16h05.26.609,uWM_experiment,2022.2.3,60.01003368
,,,,,,,,,,,,,,,,,,,,6,0,6,0,9,0,9,0,,,,,,,,,,,,,,,,,,,,,,,,,,,,,,,,,,,,,,,,,,,,,,,,,,,,,,,,,,,,,,,,,,,,,,0,,,,,,,,,,,,,,,,,,,,,,,,,,,,right,1,40,30,70,0,2160.702746,2160.702746,2160.702746,None,None,2,0,0.0582729,,,,,,,,,,,,,,,,,,,,,,10,20,2,2024-11-28_16h05.26.609,uWM_experiment,2022.2.3,60.01003368
,,,,,,,,,,,,,,,,,,,,6,0,6,0,10,0,10,0,,,,,,,,,,,,,,,,,,,,,,,,,,,,,,,,,,,,,,,,,,,,,,,,,,,,,,,,,,,,,,,,,,,,,,0.005,,,,,,,,,,,,,,,,,,,,,,,,,,,,left,0,160,30,190,1,2166.569681,2166.569681,2166.569681,None,None,2,0,0.023287,,,,,,,,,,,,,,,,,,,,,,10,20,2,2024-11-28_16h05.26.609,uWM_experiment,2022.2.3,60.01003368
,,,,,,,,,,,,,,,,,,,,6,0,6,0,11,0,11,0,,,,,,,,,,,,,,,,,,,,,,,,,,,,,,,,,,,,,,,,,,,,,,,,,,,,,,,,,,,,,,,,,,,,,,0.1,,,,,,,,,,,,,,,,,,,,,,,,,,,,right,1,100,30,130,2,2179.753617,2179.753617,2179.753617,None,None,4,0,0.0794022,,,,,,,,,,,,,,,,,,,,,,10,20,2,2024-11-28_16h05.26.609,uWM_experiment,2022.2.3,60.01003368
,,,,,,,,,,,,,,,,,,,,6,0,6,0,12,0,12,0,,,,,,,,,,,,,,,,,,,,,,,,,,,,,,,,,,,,,,,,,,,,,,,,,,,,,,,,,,,,,,,,,,,,,,0,,,,,,,,,,,,,,,,,,,,,,,,,,,,left,1,160,-30,130,0,2186.820603,2186.820603,2186.820603,None,None,3,0,0.1245787,,,,,,,,,,,,,,,,,,,,,,10,20,2,2024-11-28_16h05.26.609,uWM_experiment,2022.2.3,60.01003368
,,,,,,,,,,,,,,,,,,,,6,0,6,0,13,0,13,0,,,,,,,,,,,,,,,,,,,,,,,,,,,,,,,,,,,,,,,,,,,,,,,,,,,,,,,,,,,,,,,,,,,,,,0.005,,,,,,,,,,,,,,,,,,,,,,,,,,,,right,0,100,-30,70,1,2195.620992,2195.620992,2195.620992,None,None,2,0,0.0760997,,,,,,,,,,,,,,,,,,,,,,10,20,2,2024-11-28_16h05.26.609,uWM_experiment,2022.2.3,60.01003368
,,,,,,,,,,,,,,,,,,,,6,0,6,0,14,0,14,0,,,,,,,,,,,,,,,,,,,,,,,,,,,,,,,,,,,,,,,,,,,,,,,,,,,,,,,,,,,,,,,,,,,,,,0.005,,,,,,,,,,,,,,,,,,,,,,,,,,,,right,0,130,-30,100,1,2201.75464,2201.75464,2201.75464,None,None,3,0,0.9904671,,,,,,,,,,,,,,,,,,,,,,10,20,2,2024-11-28_16h05.26.609,uWM_experiment,2022.2.3,60.01003368
,,,,,,,,,,,,,,,,,,,,6,0,6,0,15,0,15,0,,,,,,,,,,,,,,,,,,,,,,,,,,,,,,,,,,,,,,,,,,,,,,,,,,,,,,,,,,,,,,,,,,,,,,0.005,,,,,,,,,,,,,,,,,,,,,,,,,,,,left,1,70,-30,40,1,2210.054961,2210.054961,2210.054961,None,None,2,0,0.0901434,,,,,,,,,,,,,,,,,,,,,,10,20,2,2024-11-28_16h05.26.609,uWM_experiment,2022.2.3,60.01003368
,,,,,,,,,,,,,,,,,,,,6,0,6,0,16,0,16,0,,,,,,,,,,,,,,,,,,,,,,,,,,,,,,,,,,,,,,,,,,,,,,,,,,,,,,,,,,,,,,,,,,,,,,0,,,,,,,,,,,,,,,,,,,,,,,,,,,,left,0,160,30,190,0,2218.738693,2218.738693,2218.738693,None,None,2,0,0.1583143,,,,,,,,,,,,,,,,,,,,,,10,20,2,2024-11-28_16h05.26.609,uWM_experiment,2022.2.3,60.01003368
,,,,,,,,,,,,,,,,,,,,6,0,6,0,17,0,17,0,,,,,,,,,,,,,,,,,,,,,,,,,,,,,,,,,,,,,,,,,,,,,,,,,,,,,,,,,,,,,,,,,,,,,,0.005,,,,,,,,,,,,,,,,,,,,,,,,,,,,right,0,100,-30,70,1,2226.872408,2226.872408,2226.872408,None,None,3,0,0.1685343,,,,,,,,,,,,,,,,,,,,,,10,20,2,2024-11-28_16h05.26.609,uWM_experiment,2022.2.3,60.01003368
,,,,,,,,,,,,,,,,,,,,6,0,6,0,18,0,18,0,,,,,,,,,,,,,,,,,,,,,,,,,,,,,,,,,,,,,,,,,,,,,,,,,,,,,,,,,,,,,,,,,,,,,,0.005,,,,,,,,,,,,,,,,,,,,,,,,,,,,right,0,100,-30,70,1,2232.856007,2232.856007,2232.856007,None,None,2,0,0.0410996,,,,,,,,,,,,,,,,,,,,,,10,20,2,2024-11-28_16h05.26.609,uWM_experiment,2022.2.3,60.01003368
,,,,,,,,,,,,,,,,,,,,6,0,6,0,19,0,19,0,,,,,,,,,,,,,,,,,,,,,,,,,,,,,,,,,,,,,,,,,,,,,,,,,,,,,,,,,,,,,,,,,,,,,,0,,,,,,,,,,,,,,,,,,,,,,,,,,,,left,1,160,-30,130,0,2239.039625,2239.039625,2239.039625,None,None,1,1,0.2494274,,,,,,,,,,,,,,,,,,,,,,10,20,2,2024-11-28_16h05.26.609,uWM_experiment,2022.2.3,60.01003368
,,,,,,,,,,,,,,,,,,,,6,0,6,0,20,0,20,0,,,,,,,,,,,,,,,,,,,,,,,,,,,,,,,,,,,,,,,,,,,,,,,,,,,,,,,,,,,,,,,,,,,,,,0.005,,,,,,,,,,,,,,,,,,,,,,,,,,,,right,0,100,-30,70,1,2245.856596,2245.856596,2245.856596,None,None,2,0,0.0485361,,,,,,,,,,,,,,,,,,,,,,10,20,2,2024-11-28_16h05.26.609,uWM_experiment,2022.2.3,60.01003368
,,,,,,,,,,,,,,,,,,,,6,0,6,0,21,0,21,0,,,,,,,,,,,,,,,,,,,,,,,,,,,,,,,,,,,,,,,,,,,,,,,,,,,,,,,,,,,,,,,,,,,,,,0.005,,,,,,,,,,,,,,,,,,,,,,,,,,,,right,1,10,30,40,1,2258.340496,2258.340496,2258.340496,None,None,2,0,0.0766638,,,,,,,,,,,,,,,,,,,,,,10,20,2,2024-11-28_16h05.26.609,uWM_experiment,2022.2.3,60.01003368
,,,,,,,,,,,,,,,,,,,,6,0,6,0,22,0,22,0,,,,,,,,,,,,,,,,,,,,,,,,,,,,,,,,,,,,,,,,,,,,,,,,,,,,,,,,,,,,,,,,,,,,,,0,,,,,,,,,,,,,,,,,,,,,,,,,,,,right,1,40,30,70,0,2266.324152,2266.324152,2266.324152,None,None,2,0,0.0368686,,,,,,,,,,,,,,,,,,,,,,10,20,2,2024-11-28_16h05.26.609,uWM_experiment,2022.2.3,60.01003368
,,,,,,,,,,,,,,,,,,,,6,0,6,0,23,0,23,0,,,,,,,,,,,,,,,,,,,,,,,,,,,,,,,,,,,,,,,,,,,,,,,,,,,,,,,,,,,,,,,,,,,,,,0.005,,,,,,,,,,,,,,,,,,,,,,,,,,,,left,1,160,-30,130,1,2272.824449,2272.824449,2272.824449,None,None,2,0,0.1287486,,,,,,,,,,,,,,,,,,,,,,10,20,2,2024-11-28_16h05.26.609,uWM_experiment,2022.2.3,60.01003368
,,,,,,,,,,,,,,,,,,,,6,0,6,0,,,,,0,0,0,0,,,,,,,,,,,,,,,,,,,,,,,,,,,,,,,,,,,,,,,,,,,,,,,,,,,,,,,,,,,,,,,,,,,,,,,,,,,,,,,,,,,,,,,,,,,,,,,,,,,,,,,,,,,,2272.974453,2272.974453,space,0.8906754,None,space,,,,,2273.891161,2273.891161,0.5979515,,,,,,,,,10,20,2,2024-11-28_16h05.26.609,uWM_experiment,2022.2.3,60.01003368
,,,,,,,,,,,,,,,,,,,,6,0,6,0,,,,,1,0,1,0,,,,,,,,,,,,,,,,,,,,,,,,,,,,,,,,,,,,,,,,,,,,,,,,,,,,,,,,,,,,,,,,,,,,,,,,,,,,,,,,,,,,,,,,,,,,,,,,,,,,,,,,,,,,,,,,,,,,,,,,,,,,,,,,,10,20,2,2024-11-28_16h05.26.609,uWM_experiment,2022.2.3,60.01003368
,,,,,,,,,,,,,,,,,,,,6,0,6,0,,,,,2,0,2,0,,,,,,,,,,,,,,,,,,,,,,,,,,,,,,,,,,,,,,,,,,,,,,,,,,,,,,,,,,,,,,,,,,,,,,,,,,,,,,,,,,,,,,,,,,,,,,,,,,,,,,,,,,,,,,,,,,,,,,,,,,,,,,,,,10,20,2,2024-11-28_16h05.26.609,uWM_experiment,2022.2.3,60.01003368
,,,,,,,,,,,,,,,,,,,,7,0,7,0,0,0,0,0,,,,,,,,,,,,,,,,,,,,,,,,,,,,,,,,,,,,,,,,,,,,,,,,,,,,,,,,,,,,,,,,,,,,,,0.005,,,,,,,,,,,,,,,,,,,,2286.591762,2287.291772,2287.575116,2288.275149,2288.57519,2289.275185,2289.275185,2289.591892,right,0,100,-30,70,1,2294.175432,2294.175432,2294.175432,None,None,1,1,0.0977328,,,,,,,space,,,,,,,2284.908363,2284.908363,1.6607189,,,,,,10,20,2,2024-11-28_16h05.26.609,uWM_experiment,2022.2.3,60.01003368
,,,,,,,,,,,,,,,,,,,,7,0,7,0,1,0,1,0,,,,,,,,,,,,,,,,,,,,,,,,,,,,,,,,,,,,,,,,,,,,,,,,,,,,,,,,,,,,,,,,,,,,,,0,,,,,,,,,,,,,,,,,,,,,,,,,,,,left,1,160,-30,130,0,2299.809029,2299.809029,2299.809029,None,None,1,1,0.0561034,,,,,,,,,,,,,,,,,,,,,,10,20,2,2024-11-28_16h05.26.609,uWM_experiment,2022.2.3,60.01003368
,,,,,,,,,,,,,,,,,,,,7,0,7,0,2,0,2,0,,,,,,,,,,,,,,,,,,,,,,,,,,,,,,,,,,,,,,,,,,,,,,,,,,,,,,,,,,,,,,,,,,,,,,0.015,,,,,,,,,,,,,,,,,,,,,,,,,,,,right,1,40,30,70,1,2305.575948,2305.575948,2305.575948,None,None,1,1,0.0732124,,,,,,,,,,,,,,,,,,,,,,10,20,2,2024-11-28_16h05.26.609,uWM_experiment,2022.2.3,60.01003368
,,,,,,,,,,,,,,,,,,,,7,0,7,0,3,0,3,0,,,,,,,,,,,,,,,,,,,,,,,,,,,,,,,,,,,,,,,,,,,,,,,,,,,,,,,,,,,,,,,,,,,,,,0.025,,,,,,,,,,,,,,,,,,,,,,,,,,,,left,0,160,30,190,1,2311.392865,2311.392865,2311.392865,None,None,1,1,0.0082285,,,,,,,,,,,,,,,,,,,,,,10,20,2,2024-11-28_16h05.26.609,uWM_experiment,2022.2.3,60.01003368
,,,,,,,,,,,,,,,,,,,,7,0,7,0,4,0,4,0,,,,,,,,,,,,,,,,,,,,,,,,,,,,,,,,,,,,,,,,,,,,,,,,,,,,,,,,,,,,,,,,,,,,,,0.035,,,,,,,,,,,,,,,,,,,,,,,,,,,,right,1,70,30,100,1,2317.859836,2317.859836,2317.859836,None,None,2,0,0.7893795,,,,,,,,,,,,,,,,,,,,,,10,20,2,2024-11-28_16h05.26.609,uWM_experiment,2022.2.3,60.01003368
,,,,,,,,,,,,,,,,,,,,7,0,7,0,5,0,5,0,,,,,,,,,,,,,,,,,,,,,,,,,,,,,,,,,,,,,,,,,,,,,,,,,,,,,,,,,,,,,,,,,,,,,,0.025,,,,,,,,,,,,,,,,,,,,,,,,,,,,right,1,70,30,100,1,2324.276771,2324.276771,2324.276771,None,None,1,1,0.0604647,,,,,,,,,,,,,,,,,,,,,,10,20,2,2024-11-28_16h05.26.609,uWM_experiment,2022.2.3,60.01003368
,,,,,,,,,,,,,,,,,,,,7,0,7,0,6,0,6,0,,,,,,,,,,,,,,,,,,,,,,,,,,,,,,,,,,,,,,,,,,,,,,,,,,,,,,,,,,,,,,,,,,,,,,0.035,,,,,,,,,,,,,,,,,,,,,,,,,,,,left,1,70,-30,40,1,2330.827084,2330.827084,2330.827084,None,None,4,0,0.7502478,,,,,,,,,,,,,,,,,,,,,,10,20,2,2024-11-28_16h05.26.609,uWM_experiment,2022.2.3,60.01003368
,,,,,,,,,,,,,,,,,,,,7,0,7,0,7,0,7,0,,,,,,,,,,,,,,,,,,,,,,,,,,,,,,,,,,,,,,,,,,,,,,,,,,,,,,,,,,,,,,,,,,,,,,0.025,,,,,,,,,,,,,,,,,,,,,,,,,,,,left,0,100,30,130,1,2337.244049,2337.244049,2337.244049,None,None,1,1,0.0451499,,,,,,,,,,,,,,,,,,,,,,10,20,2,2024-11-28_16h05.26.609,uWM_experiment,2022.2.3,60.01003368
,,,,,,,,,,,,,,,,,,,,7,0,7,0,8,0,8,0,,,,,,,,,,,,,,,,,,,,,,,,,,,,,,,,,,,,,,,,,,,,,,,,,,,,,,,,,,,,,,,,,,,,,,0,,,,,,,,,,,,,,,,,,,,,,,,,,,,left,0,100,30,130,0,2343.377719,2343.377719,2343.377719,None,None,2,0,0.6635212,,,,,,,,,,,,,,,,,,,,,,10,20,2,2024-11-28_16h05.26.609,uWM_experiment,2022.2.3,60.01003368
,,,,,,,,,,,,,,,,,,,,7,0,7,0,9,0,9,0,,,,,,,,,,,,,,,,,,,,,,,,,,,,,,,,,,,,,,,,,,,,,,,,,,,,,,,,,,,,,,,,,,,,,,0.035,,,,,,,,,,,,,,,,,,,,,,,,,,,,right,0,70,-30,40,1,2349.89461,2349.89461,2349.89461,None,None,2,0,0.018504,,,,,,,,,,,,,,,,,,,,,,10,20,2,2024-11-28_16h05.26.609,uWM_experiment,2022.2.3,60.01003368
,,,,,,,,,,,,,,,,,,,,7,0,7,0,10,0,10,0,,,,,,,,,,,,,,,,,,,,,,,,,,,,,,,,,,,,,,,,,,,,,,,,,,,,,,,,,,,,,,,,,,,,,,0.025,,,,,,,,,,,,,,,,,,,,,,,,,,,,left,0,130,30,160,1,2355.711535,2355.711535,2355.711535,None,None,2,0,0.0816987,,,,,,,,,,,,,,,,,,,,,,10,20,2,2024-11-28_16h05.26.609,uWM_experiment,2022.2.3,60.01003368
,,,,,,,,,,,,,,,,,,,,7,0,7,0,11,0,11,0,,,,,,,,,,,,,,,,,,,,,,,,,,,,,,,,,,,,,,,,,,,,,,,,,,,,,,,,,,,,,,,,,,,,,,0.015,,,,,,,,,,,,,,,,,,,,,,,,,,,,right,1,40,30,70,1,2361.595175,2361.595175,2361.595175,None,None,2,0,0.1500301,,,,,,,,,,,,,,,,,,,,,,10,20,2,2024-11-28_16h05.26.609,uWM_experiment,2022.2.3,60.01003368
,,,,,,,,,,,,,,,,,,,,7,0,7,0,12,0,12,0,,,,,,,,,,,,,,,,,,,,,,,,,,,,,,,,,,,,,,,,,,,,,,,,,,,,,,,,,,,,,,,,,,,,,,0.005,,,,,,,,,,,,,,,,,,,,,,,,,,,,left,1,160,-30,130,1,2367.562062,2367.562062,2367.562062,None,None,2,0,0.047207,,,,,,,,,,,,,,,,,,,,,,10,20,2,2024-11-28_16h05.26.609,uWM_experiment,2022.2.3,60.01003368
,,,,,,,,,,,,,,,,,,,,7,0,7,0,13,0,13,0,,,,,,,,,,,,,,,,,,,,,,,,,,,,,,,,,,,,,,,,,,,,,,,,,,,,,,,,,,,,,,,,,,,,,,0.005,,,,,,,,,,,,,,,,,,,,,,,,,,,,left,1,160,-30,130,1,2373.145666,2373.145666,2373.145666,None,None,2,0,0.119571,,,,,,,,,,,,,,,,,,,,,,10,20,2,2024-11-28_16h05.26.609,uWM_experiment,2022.2.3,60.01003368
,,,,,,,,,,,,,,,,,,,,7,0,7,0,14,0,14,0,,,,,,,,,,,,,,,,,,,,,,,,,,,,,,,,,,,,,,,,,,,,,,,,,,,,,,,,,,,,,,,,,,,,,,0.005,,,,,,,,,,,,,,,,,,,,,,,,,,,,left,1,40,-30,10,1,2380.595989,2380.595989,2380.595989,None,None,1,1,0.0691515,,,,,,,,,,,,,,,,,,,,,,10,20,2,2024-11-28_16h05.26.609,uWM_experiment,2022.2.3,60.01003368
,,,,,,,,,,,,,,,,,,,,7,0,7,0,15,0,15,0,,,,,,,,,,,,,,,,,,,,,,,,,,,,,,,,,,,,,,,,,,,,,,,,,,,,,,,,,,,,,,,,,,,,,,0,,,,,,,,,,,,,,,,,,,,,,,,,,,,left,1,10,-30,-20,0,2386.212913,2386.212913,2386.212913,None,None,1,1,0.0202407,,,,,,,,,,,,,,,,,,,,,,10,20,2,2024-11-28_16h05.26.609,uWM_experiment,2022.2.3,60.01003368
,,,,,,,,,,,,,,,,,,,,7,0,7,0,16,0,16,0,,,,,,,,,,,,,,,,,,,,,,,,,,,,,,,,,,,,,,,,,,,,,,,,,,,,,,,,,,,,,,,,,,,,,,0.015,,,,,,,,,,,,,,,,,,,,,,,,,,,,left,0,100,30,130,1,2391.963178,2391.963178,2391.963178,None,None,1,1,0.078139,,,,,,,,,,,,,,,,,,,,,,10,20,2,2024-11-28_16h05.26.609,uWM_experiment,2022.2.3,60.01003368
,,,,,,,,,,,,,,,,,,,,7,0,7,0,17,0,17,0,,,,,,,,,,,,,,,,,,,,,,,,,,,,,,,,,,,,,,,,,,,,,,,,,,,,,,,,,,,,,,,,,,,,,,0.025,,,,,,,,,,,,,,,,,,,,,,,,,,,,left,0,70,30,100,1,2397.846759,2397.846759,2397.846759,None,None,1,1,0.0824632,,,,,,,,,,,,,,,,,,,,,,10,20,2,2024-11-28_16h05.26.609,uWM_experiment,2022.2.3,60.01003368
,,,,,,,,,,,,,,,,,,,,7,0,7,0,18,0,18,0,,,,,,,,,,,,,,,,,,,,,,,,,,,,,,,,,,,,,,,,,,,,,,,,,,,,,,,,,,,,,,,,,,,,,,0,,,,,,,,,,,,,,,,,,,,,,,,,,,,right,0,40,-30,10,0,2403.563687,2403.563687,2403.563687,None,None,1,1,0.1095632,,,,,,,,,,,,,,,,,,,,,,10,20,2,2024-11-28_16h05.26.609,uWM_experiment,2022.2.3,60.01003368
,,,,,,,,,,,,,,,,,,,,7,0,7,0,19,0,19,0,,,,,,,,,,,,,,,,,,,,,,,,,,,,,,,,,,,,,,,,,,,,,,,,,,,,,,,,,,,,,,,,,,,,,,0.035,,,,,,,,,,,,,,,,,,,,,,,,,,,,left,0,70,30,100,1,2409.297293,2409.297293,2409.297293,None,None,1,1,0.112035,,,,,,,,,,,,,,,,,,,,,,10,20,2,2024-11-28_16h05.26.609,uWM_experiment,2022.2.3,60.01003368
,,,,,,,,,,,,,,,,,,,,7,0,7,0,20,0,20,0,,,,,,,,,,,,,,,,,,,,,,,,,,,,,,,,,,,,,,,,,,,,,,,,,,,,,,,,,,,,,,,,,,,,,,0,,,,,,,,,,,,,,,,,,,,,,,,,,,,right,1,130,30,160,0,2415.464231,2415.464231,2415.464231,None,None,1,1,0.0730364,,,,,,,,,,,,,,,,,,,,,,10,20,2,2024-11-28_16h05.26.609,uWM_experiment,2022.2.3,60.01003368
,,,,,,,,,,,,,,,,,,,,7,0,7,0,21,0,21,0,,,,,,,,,,,,,,,,,,,,,,,,,,,,,,,,,,,,,,,,,,,,,,,,,,,,,,,,,,,,,,,,,,,,,,0,,,,,,,,,,,,,,,,,,,,,,,,,,,,left,1,40,-30,10,0,2421.197833,2421.197833,2421.197833,None,None,1,1,0.0594994,,,,,,,,,,,,,,,,,,,,,,10,20,2,2024-11-28_16h05.26.609,uWM_experiment,2022.2.3,60.01003368
,,,,,,,,,,,,,,,,,,,,7,0,7,0,22,0,22,0,,,,,,,,,,,,,,,,,,,,,,,,,,,,,,,,,,,,,,,,,,,,,,,,,,,,,,,,,,,,,,,,,,,,,,0.045,,,,,,,,,,,,,,,,,,,,,,,,,,,,left,0,100,30,130,1,2427.014733,2427.014733,2427.014733,None,None,1,1,0.0665983,,,,,,,,,,,,,,,,,,,,,,10,20,2,2024-11-28_16h05.26.609,uWM_experiment,2022.2.3,60.01003368
,,,,,,,,,,,,,,,,,,,,7,0,7,0,23,0,23,0,,,,,,,,,,,,,,,,,,,,,,,,,,,,,,,,,,,,,,,,,,,,,,,,,,,,,,,,,,,,,,,,,,,,,,0.055,,,,,,,,,,,,,,,,,,,,,,,,,,,,left,1,130,-30,100,1,2435.748482,2435.748482,2435.748482,None,None,3,0,1.7567815,,,,,,,,,,,,,,,,,,,,,,10,20,2,2024-11-28_16h05.26.609,uWM_experiment,2022.2.3,60.01003368
,,,,,,,,,,,,,,,,,,,,7,0,7,0,,,,,0,0,0,0,,,,,,,,,,,,,,,,,,,,,,,,,,,,,,,,,,,,,,,,,,,,,,,,,,,,,,,,,,,,,,,,,,,,,,,,,,,,,,,,,,,,,,,,,,,,,,,,,,,,,,,,,,,,2437.531848,2437.531848,space,0.8934248,None,None,,,,,,,,,,,,,,,,10,20,2,2024-11-28_16h05.26.609,uWM_experiment,2022.2.3,60.01003368
,,,,,,,,,,,,,,,,,,,,7,0,7,0,,,,,1,0,1,0,,,,,,,,,,,,,,,,,,,,,,,,,,,,,,,,,,,,,,,,,,,,,,,,,,,,,,,,,,,,,,,,,,,,,,,,,,,,,,,,,,,,,,,,,,,,,,,,,,,,,,,,,,,,,,,,,,,,,,,,,,,,,,,,,10,20,2,2024-11-28_16h05.26.609,uWM_experiment,2022.2.3,60.01003368
,,,,,,,,,,,,,,,,,,,,7,0,7,0,,,,,2,0,2,0,,,,,,,,,,,,,,,,,,,,,,,,,,,,,,,,,,,,,,,,,,,,,,,,,,,,,,,,,,,,,,,,,,,,,,,,,,,,,,,,,,,,,,,,,,,,,,,,,,,,,,,,,,,,,,,,,,,,,,,,,,,,,,,,,10,20,2,2024-11-28_16h05.26.609,uWM_experiment,2022.2.3,60.01003368
,,,,,,,,,,,,,,,,,,,,8,0,8,0,0,0,0,0,,,,,,,,,,,,,,,,,,,,,,,,,,,,,,,,,,,,,,,,,,,,,,,,,,,,,,,,,,,,,,,,,,,,,,0.045,,,,,,,,,,,,,,,,,,,,2438.448589,2439.14862,2439.448642,2440.148656,2440.448667,2441.148705,2441.148705,2441.465414,left,1,40,-30,10,1,2448.332415,2448.332415,2448.332415,None,None,4,0,0.0288877,,,,,,,None,,,,,,,,,,,,,,,10,20,2,2024-11-28_16h05.26.609,uWM_experiment,2022.2.3,60.01003368
,,,,,,,,,,,,,,,,,,,,8,0,8,0,1,0,1,0,,,,,,,,,,,,,,,,,,,,,,,,,,,,,,,,,,,,,,,,,,,,,,,,,,,,,,,,,,,,,,,,,,,,,,0,,,,,,,,,,,,,,,,,,,,,,,,,,,,left,0,130,30,160,0,2454.082625,2454.082625,2454.082625,None,None,2,0,0.0226416,,,,,,,,,,,,,,,,,,,,,,10,20,2,2024-11-28_16h05.26.609,uWM_experiment,2022.2.3,60.01003368
,,,,,,,,,,,,,,,,,,,,8,0,8,0,2,0,2,0,,,,,,,,,,,,,,,,,,,,,,,,,,,,,,,,,,,,,,,,,,,,,,,,,,,,,,,,,,,,,,,,,,,,,,0.035,,,,,,,,,,,,,,,,,,,,,,,,,,,,right,1,40,30,70,1,2460.282913,2460.282913,2460.282913,None,None,2,0,0.0463956,,,,,,,,,,,,,,,,,,,,,,10,20,2,2024-11-28_16h05.26.609,uWM_experiment,2022.2.3,60.01003368
,,,,,,,,,,,,,,,,,,,,8,0,8,0,3,0,3,0,,,,,,,,,,,,,,,,,,,,,,,,,,,,,,,,,,,,,,,,,,,,,,,,,,,,,,,,,,,,,,,,,,,,,,0.025,,,,,,,,,,,,,,,,,,,,,,,,,,,,left,1,10,-30,-20,1,2466.016505,2466.016505,2466.016505,None,None,2,0,0.0247978,,,,,,,,,,,,,,,,,,,,,,10,20,2,2024-11-28_16h05.26.609,uWM_experiment,2022.2.3,60.01003368
,,,,,,,,,,,,,,,,,,,,8,0,8,0,4,0,4,0,,,,,,,,,,,,,,,,,,,,,,,,,,,,,,,,,,,,,,,,,,,,,,,,,,,,,,,,,,,,,,,,,,,,,,0.015,,,,,,,,,,,,,,,,,,,,,,,,,,,,right,1,10,30,40,1,2471.616764,2471.616764,2471.616764,None,None,2,0,0.0486224,,,,,,,,,,,,,,,,,,,,,,10,20,2,2024-11-28_16h05.26.609,uWM_experiment,2022.2.3,60.01003368
,,,,,,,,,,,,,,,,,,,,8,0,8,0,5,0,5,0,,,,,,,,,,,,,,,,,,,,,,,,,,,,,,,,,,,,,,,,,,,,,,,,,,,,,,,,,,,,,,,,,,,,,,0.005,,,,,,,,,,,,,,,,,,,,,,,,,,,,left,0,100,30,130,1,2477.800376,2477.800376,2477.800376,None,None,2,0,0.0970217,,,,,,,,,,,,,,,,,,,,,,10,20,2,2024-11-28_16h05.26.609,uWM_experiment,2022.2.3,60.01003368
,,,,,,,,,,,,,,,,,,,,8,0,8,0,6,0,6,0,,,,,,,,,,,,,,,,,,,,,,,,,,,,,,,,,,,,,,,,,,,,,,,,,,,,,,,,,,,,,,,,,,,,,,0,,,,,,,,,,,,,,,,,,,,,,,,,,,,right,0,100,-30,70,0,2483.550624,2483.550624,2483.550624,None,None,2,0,0.1226501,,,,,,,,,,,,,,,,,,,,,,10,20,2,2024-11-28_16h05.26.609,uWM_experiment,2022.2.3,60.01003368
,,,,,,,,,,,,,,,,,,,,8,0,8,0,7,0,7,0,,,,,,,,,,,,,,,,,,,,,,,,,,,,,,,,,,,,,,,,,,,,,,,,,,,,,,,,,,,,,,,,,,,,,,0,,,,,,,,,,,,,,,,,,,,,,,,,,,,right,1,70,30,100,0,2489.417628,2489.417628,2489.417628,None,None,1,1,0.4956272,,,,,,,,,,,,,,,,,,,,,,10,20,2,2024-11-28_16h05.26.609,uWM_experiment,2022.2.3,60.01003368
,,,,,,,,,,,,,,,,,,,,8,0,8,0,8,0,8,0,,,,,,,,,,,,,,,,,,,,,,,,,,,,,,,,,,,,,,,,,,,,,,,,,,,,,,,,,,,,,,,,,,,,,,0,,,,,,,,,,,,,,,,,,,,,,,,,,,,left,1,10,-30,-20,0,2497.367924,2497.367924,2497.367924,None,None,2,0,0.0574067,,,,,,,,,,,,,,,,,,,,,,10,20,2,2024-11-28_16h05.26.609,uWM_experiment,2022.2.3,60.01003368
,,,,,,,,,,,,,,,,,,,,8,0,8,0,9,0,9,0,,,,,,,,,,,,,,,,,,,,,,,,,,,,,,,,,,,,,,,,,,,,,,,,,,,,,,,,,,,,,,,,,,,,,,0.1,,,,,,,,,,,,,,,,,,,,,,,,,,,,right,1,160,30,190,2,2508.885085,2508.885085,2508.885085,None,None,4,0,0.0362169,,,,,,,,,,,,,,,,,,,,,,10,20,2,2024-11-28_16h05.26.609,uWM_experiment,2022.2.3,60.01003368
,,,,,,,,,,,,,,,,,,,,8,0,8,0,10,0,10,0,,,,,,,,,,,,,,,,,,,,,,,,,,,,,,,,,,,,,,,,,,,,,,,,,,,,,,,,,,,,,,,,,,,,,,0.005,,,,,,,,,,,,,,,,,,,,,,,,,,,,left,1,10,-30,-20,1,2516.48544,2516.48544,2516.48544,None,None,2,0,0.0198059,,,,,,,,,,,,,,,,,,,,,,10,20,2,2024-11-28_16h05.26.609,uWM_experiment,2022.2.3,60.01003368
,,,,,,,,,,,,,,,,,,,,8,0,8,0,11,0,11,0,,,,,,,,,,,,,,,,,,,,,,,,,,,,,,,,,,,,,,,,,,,,,,,,,,,,,,,,,,,,,,,,,,,,,,0,,,,,,,,,,,,,,,,,,,,,,,,,,,,right,0,100,-30,70,0,2522.335718,2522.335718,2522.335718,None,None,1,1,0.0337859,,,,,,,,,,,,,,,,,,,,,,10,20,2,2024-11-28_16h05.26.609,uWM_experiment,2022.2.3,60.01003368
,,,,,,,,,,,,,,,,,,,,8,0,8,0,12,0,12,0,,,,,,,,,,,,,,,,,,,,,,,,,,,,,,,,,,,,,,,,,,,,,,,,,,,,,,,,,,,,,,,,,,,,,,0.005,,,,,,,,,,,,,,,,,,,,,,,,,,,,right,1,160,30,190,1,2529.202662,2529.202662,2529.202662,None,None,1,1,0.1026343,,,,,,,,,,,,,,,,,,,,,,10,20,2,2024-11-28_16h05.26.609,uWM_experiment,2022.2.3,60.01003368
,,,,,,,,,,,,,,,,,,,,8,0,8,0,13,0,13,0,,,,,,,,,,,,,,,,,,,,,,,,,,,,,,,,,,,,,,,,,,,,,,,,,,,,,,,,,,,,,,,,,,,,,,0.015,,,,,,,,,,,,,,,,,,,,,,,,,,,,right,0,40,-30,10,1,2535.052937,2535.052937,2535.052937,None,None,2,0,0.0203461,,,,,,,,,,,,,,,,,,,,,,10,20,2,2024-11-28_16h05.26.609,uWM_experiment,2022.2.3,60.01003368
,,,,,,,,,,,,,,,,,,,,8,0,8,0,14,0,14,0,,,,,,,,,,,,,,,,,,,,,,,,,,,,,,,,,,,,,,,,,,,,,,,,,,,,,,,,,,,,,,,,,,,,,,0.005,,,,,,,,,,,,,,,,,,,,,,,,,,,,right,1,10,30,40,1,2540.803195,2540.803195,2540.803195,None,None,2,0,0.0061704,,,,,,,,,,,,,,,,,,,,,,10,20,2,2024-11-28_16h05.26.609,uWM_experiment,2022.2.3,60.01003368
,,,,,,,,,,,,,,,,,,,,8,0,8,0,15,0,15,0,,,,,,,,,,,,,,,,,,,,,,,,,,,,,,,,,,,,,,,,,,,,,,,,,,,,,,,,,,,,,,,,,,,,,,0,,,,,,,,,,,,,,,,,,,,,,,,,,,,right,1,70,30,100,0,2547.820197,2547.820197,2547.820197,None,None,2,0,0.1251875,,,,,,,,,,,,,,,,,,,,,,10,20,2,2024-11-28_16h05.26.609,uWM_experiment,2022.2.3,60.01003368
,,,,,,,,,,,,,,,,,,,,8,0,8,0,16,0,16,0,,,,,,,,,,,,,,,,,,,,,,,,,,,,,,,,,,,,,,,,,,,,,,,,,,,,,,,,,,,,,,,,,,,,,,0.005,,,,,,,,,,,,,,,,,,,,,,,,,,,,left,1,10,-30,-20,1,2554.003802,2554.003802,2554.003802,None,None,2,0,0.4695445,,,,,,,,,,,,,,,,,,,,,,10,20,2,2024-11-28_16h05.26.609,uWM_experiment,2022.2.3,60.01003368
,,,,,,,,,,,,,,,,,,,,8,0,8,0,17,0,17,0,,,,,,,,,,,,,,,,,,,,,,,,,,,,,,,,,,,,,,,,,,,,,,,,,,,,,,,,,,,,,,,,,,,,,,0.005,,,,,,,,,,,,,,,,,,,,,,,,,,,,right,0,70,-30,40,1,2560.28741,2560.28741,2560.28741,None,None,2,0,0.0420077,,,,,,,,,,,,,,,,,,,,,,10,20,2,2024-11-28_16h05.26.609,uWM_experiment,2022.2.3,60.01003368
,,,,,,,,,,,,,,,,,,,,8,0,8,0,18,0,18,0,,,,,,,,,,,,,,,,,,,,,,,,,,,,,,,,,,,,,,,,,,,,,,,,,,,,,,,,,,,,,,,,,,,,,,0.005,,,,,,,,,,,,,,,,,,,,,,,,,,,,right,0,70,-30,40,1,2567.954436,2567.954436,2567.954436,None,None,2,0,10.5270008,,,,,,,,,,,,,,,,,,,,,,10,20,2,2024-11-28_16h05.26.609,uWM_experiment,2022.2.3,60.01003368
,,,,,,,,,,,,,,,,,,,,8,0,8,0,19,0,19,0,,,,,,,,,,,,,,,,,,,,,,,,,,,,,,,,,,,,,,,,,,,,,,,,,,,,,,,,,,,,,,,,,,,,,,0.005,,,,,,,,,,,,,,,,,,,,,,,,,,,,left,0,160,30,190,1,2584.305164,2584.305164,2584.305164,None,None,2,0,0.2481842,,,,,,,,,,,,,,,,,,,,,,10,20,2,2024-11-28_16h05.26.609,uWM_experiment,2022.2.3,60.01003368
,,,,,,,,,,,,,,,,,,,,8,0,8,0,20,0,20,0,,,,,,,,,,,,,,,,,,,,,,,,,,,,,,,,,,,,,,,,,,,,,,,,,,,,,,,,,,,,,,,,,,,,,,0.005,,,,,,,,,,,,,,,,,,,,,,,,,,,,left,1,160,-30,130,1,2590.305448,2590.305448,2590.305448,None,None,2,0,0.0399871,,,,,,,,,,,,,,,,,,,,,,10,20,2,2024-11-28_16h05.26.609,uWM_experiment,2022.2.3,60.01003368
,,,,,,,,,,,,,,,,,,,,8,0,8,0,21,0,21,0,,,,,,,,,,,,,,,,,,,,,,,,,,,,,,,,,,,,,,,,,,,,,,,,,,,,,,,,,,,,,,,,,,,,,,0.005,,,,,,,,,,,,,,,,,,,,,,,,,,,,left,0,100,30,130,1,2595.972368,2595.972368,2595.972368,None,None,2,0,0.1329908,,,,,,,,,,,,,,,,,,,,,,10,20,2,2024-11-28_16h05.26.609,uWM_experiment,2022.2.3,60.01003368
,,,,,,,,,,,,,,,,,,,,8,0,8,0,22,0,22,0,,,,,,,,,,,,,,,,,,,,,,,,,,,,,,,,,,,,,,,,,,,,,,,,,,,,,,,,,,,,,,,,,,,,,,0.005,,,,,,,,,,,,,,,,,,,,,,,,,,,,left,1,40,-30,10,1,2602.005974,2602.005974,2602.005974,None,None,2,0,0.0595136,,,,,,,,,,,,,,,,,,,,,,10,20,2,2024-11-28_16h05.26.609,uWM_experiment,2022.2.3,60.01003368
,,,,,,,,,,,,,,,,,,,,8,0,8,0,23,0,23,0,,,,,,,,,,,,,,,,,,,,,,,,,,,,,,,,,,,,,,,,,,,,,,,,,,,,,,,,,,,,,,,,,,,,,,0.005,,,,,,,,,,,,,,,,,,,,,,,,,,,,right,1,160,30,190,1,2607.606221,2607.606221,2607.606221,None,None,2,0,0.0591769,,,,,,,,,,,,,,,,,,,,,,10,20,2,2024-11-28_16h05.26.609,uWM_experiment,2022.2.3,60.01003368
,,,,,,,,,,,,,,,,,,,,8,0,8,0,,,,,0,0,0,0,,,,,,,,,,,,,,,,,,,,,,,,,,,,,,,,,,,,,,,,,,,,,,,,,,,,,,,,,,,,,,,,,,,,,,,,,,,,,,,,,,,,,,,,,,,,,,,,,,,,,,,,,,,,2607.689504,2607.689504,space,1.5039245,space,None,,2609.22294,2609.22294,6.2906044,,,,,,,,,,,,10,20,2,2024-11-28_16h05.26.609,uWM_experiment,2022.2.3,60.01003368
,,,,,,,,,,,,,,,,,,,,8,0,8,0,,,,,1,0,1,0,,,,,,,,,,,,,,,,,,,,,,,,,,,,,,,,,,,,,,,,,,,,,,,,,,,,,,,,,,,,,,,,,,,,,,,,,,,,,,,,,,,,,,,,,,,,,,,,,,,,,,,,,,,,,,,,,,,,,,,,,,,,,,,,,10,20,2,2024-11-28_16h05.26.609,uWM_experiment,2022.2.3,60.01003368
,,,,,,,,,,,,,,,,,,,,8,0,8,0,,,,,2,0,2,0,,,,,,,,,,,,,,,,,,,,,,,,,,,,,,,,,,,,,,,,,,,,,,,,,,,,,,,,,,,,,,,,,,,,,,,,,,,,,,,,,,,,,,,,,,,,,,,,,,,,,,,,,,,,,,,,,,,,,,,,,,,,,,,,,10,20,2,2024-11-28_16h05.26.609,uWM_experiment,2022.2.3,60.01003368
,,,,,,,,,,,,,,,,,,,,9,0,9,0,0,0,0,0,,,,,,,,,,,,,,,,,,,,,,,,,,,,,,,,,,,,,,,,,,,,,,,,,,,,,,,,,,,,,,,,,,,,,,0.005,,,,,,,,,,,,,,,,,,,,2615.539906,2616.23992,2616.539954,2617.239966,2617.539982,2618.240044,2618.240044,2618.556701,left,1,130,-30,100,1,2623.123567,2623.123567,2623.123567,None,None,1,1,0.0299903,,,,,,,None,,,,,,,,,,,,,,,10,20,2,2024-11-28_16h05.26.609,uWM_experiment,2022.2.3,60.01003368
,,,,,,,,,,,,,,,,,,,,9,0,9,0,1,0,1,0,,,,,,,,,,,,,,,,,,,,,,,,,,,,,,,,,,,,,,,,,,,,,,,,,,,,,,,,,,,,,,,,,,,,,,0.015,,,,,,,,,,,,,,,,,,,,,,,,,,,,left,0,70,30,100,1,2628.990497,2628.990497,2628.990497,None,None,1,1,0.2909697,,,,,,,,,,,,,,,,,,,,,,10,20,2,2024-11-28_16h05.26.609,uWM_experiment,2022.2.3,60.01003368
,,,,,,,,,,,,,,,,,,,,9,0,9,0,2,0,2,0,,,,,,,,,,,,,,,,,,,,,,,,,,,,,,,,,,,,,,,,,,,,,,,,,,,,,,,,,,,,,,,,,,,,,,0.025,,,,,,,,,,,,,,,,,,,,,,,,,,,,left,0,40,30,70,1,2636.574191,2636.574191,2636.574191,None,None,2,0,0.1152999,,,,,,,,,,,,,,,,,,,,,,10,20,2,2024-11-28_16h05.26.609,uWM_experiment,2022.2.3,60.01003368
,,,,,,,,,,,,,,,,,,,,9,0,9,0,3,0,3,0,,,,,,,,,,,,,,,,,,,,,,,,,,,,,,,,,,,,,,,,,,,,,,,,,,,,,,,,,,,,,,,,,,,,,,0.015,,,,,,,,,,,,,,,,,,,,,,,,,,,,left,0,100,30,130,1,2642.607776,2642.607776,2642.607776,None,None,1,1,0.0336925,,,,,,,,,,,,,,,,,,,,,,10,20,2,2024-11-28_16h05.26.609,uWM_experiment,2022.2.3,60.01003368
,,,,,,,,,,,,,,,,,,,,9,0,9,0,4,0,4,0,,,,,,,,,,,,,,,,,,,,,,,,,,,,,,,,,,,,,,,,,,,,,,,,,,,,,,,,,,,,,,,,,,,,,,0.025,,,,,,,,,,,,,,,,,,,,,,,,,,,,left,1,70,-30,40,1,2650.141473,2650.141473,2650.141473,None,None,2,0,0.5240437,,,,,,,,,,,,,,,,,,,,,,10,20,2,2024-11-28_16h05.26.609,uWM_experiment,2022.2.3,60.01003368
,,,,,,,,,,,,,,,,,,,,9,0,9,0,5,0,5,0,,,,,,,,,,,,,,,,,,,,,,,,,,,,,,,,,,,,,,,,,,,,,,,,,,,,,,,,,,,,,,,,,,,,,,0,,,,,,,,,,,,,,,,,,,,,,,,,,,,right,1,70,30,100,0,2656.208411,2656.208411,2656.208411,None,None,1,1,0.041129,,,,,,,,,,,,,,,,,,,,,,10,20,2,2024-11-28_16h05.26.609,uWM_experiment,2022.2.3,60.01003368
,,,,,,,,,,,,,,,,,,,,9,0,9,0,6,0,6,0,,,,,,,,,,,,,,,,,,,,,,,,,,,,,,,,,,,,,,,,,,,,,,,,,,,,,,,,,,,,,,,,,,,,,,0.015,,,,,,,,,,,,,,,,,,,,,,,,,,,,left,0,130,30,160,1,2662.458689,2662.458689,2662.458689,None,None,1,1,0.0468847,,,,,,,,,,,,,,,,,,,,,,10,20,2,2024-11-28_16h05.26.609,uWM_experiment,2022.2.3,60.01003368
,,,,,,,,,,,,,,,,,,,,9,0,9,0,7,0,7,0,,,,,,,,,,,,,,,,,,,,,,,,,,,,,,,,,,,,,,,,,,,,,,,,,,,,,,,,,,,,,,,,,,,,,,0.025,,,,,,,,,,,,,,,,,,,,,,,,,,,,right,1,100,30,130,1,2668.258949,2668.258949,2668.258949,None,None,1,1,0.1426469,,,,,,,,,,,,,,,,,,,,,,10,20,2,2024-11-28_16h05.26.609,uWM_experiment,2022.2.3,60.01003368
,,,,,,,,,,,,,,,,,,,,9,0,9,0,8,0,8,0,,,,,,,,,,,,,,,,,,,,,,,,,,,,,,,,,,,,,,,,,,,,,,,,,,,,,,,,,,,,,,,,,,,,,,0,,,,,,,,,,,,,,,,,,,,,,,,,,,,right,0,70,-30,40,0,2680.192815,2680.192815,2680.192815,None,None,2,0,4.608757,,,,,,,,,,,,,,,,,,,,,,10,20,2,2024-11-28_16h05.26.609,uWM_experiment,2022.2.3,60.01003368
,,,,,,,,,,,,,,,,,,,,9,0,9,0,9,0,9,0,,,,,,,,,,,,,,,,,,,,,,,,,,,,,,,,,,,,,,,,,,,,,,,,,,,,,,,,,,,,,,,,,,,,,,0.1,,,,,,,,,,,,,,,,,,,,,,,,,,,,left,1,10,-30,-20,2,2691.459986,2691.459986,2691.459986,None,None,4,0,0.8694956,,,,,,,,,,,,,,,,,,,,,,10,20,2,2024-11-28_16h05.26.609,uWM_experiment,2022.2.3,60.01003368
,,,,,,,,,,,,,,,,,,,,9,0,9,0,10,0,10,0,,,,,,,,,,,,,,,,,,,,,,,,,,,,,,,,,,,,,,,,,,,,,,,,,,,,,,,,,,,,,,,,,,,,,,0,,,,,,,,,,,,,,,,,,,,,,,,,,,,right,1,10,30,40,0,2699.127,2699.127,2699.127,None,None,3,0,1.114611,,,,,,,,,,,,,,,,,,,,,,10,20,2,2024-11-28_16h05.26.609,uWM_experiment,2022.2.3,60.01003368
,,,,,,,,,,,,,,,,,,,,9,0,9,0,11,0,11,0,,,,,,,,,,,,,,,,,,,,,,,,,,,,,,,,,,,,,,,,,,,,,,,,,,,,,,,,,,,,,,,,,,,,,,0.035,,,,,,,,,,,,,,,,,,,,,,,,,,,,left,1,40,-30,10,1,2707.677384,2707.677384,2707.677384,None,None,2,0,0.7321882,,,,,,,,,,,,,,,,,,,,,,10,20,2,2024-11-28_16h05.26.609,uWM_experiment,2022.2.3,60.01003368
,,,,,,,,,,,,,,,,,,,,9,0,9,0,12,0,12,0,,,,,,,,,,,,,,,,,,,,,,,,,,,,,,,,,,,,,,,,,,,,,,,,,,,,,,,,,,,,,,,,,,,,,,0.025,,,,,,,,,,,,,,,,,,,,,,,,,,,,left,0,10,30,40,1,2714.711042,2714.711042,2714.711042,None,None,1,1,0.0585262,,,,,,,,,,,,,,,,,,,,,,10,20,2,2024-11-28_16h05.26.609,uWM_experiment,2022.2.3,60.01003368
,,,,,,,,,,,,,,,,,,,,9,0,9,0,13,0,13,0,,,,,,,,,,,,,,,,,,,,,,,,,,,,,,,,,,,,,,,,,,,,,,,,,,,,,,,,,,,,,,,,,,,,,,0,,,,,,,,,,,,,,,,,,,,,,,,,,,,right,0,100,-30,70,0,2720.944625,2720.944625,2720.944625,None,None,1,1,0.1688681,,,,,,,,,,,,,,,,,,,,,,10,20,2,2024-11-28_16h05.26.609,uWM_experiment,2022.2.3,60.01003368
,,,,,,,,,,,,,,,,,,,,9,0,9,0,14,0,14,0,,,,,,,,,,,,,,,,,,,,,,,,,,,,,,,,,,,,,,,,,,,,,,,,,,,,,,,,,,,,,,,,,,,,,,0.035,,,,,,,,,,,,,,,,,,,,,,,,,,,,right,1,130,30,160,1,2728.461663,2728.461663,2728.461663,None,None,4,0,1.3878588,,,,,,,,,,,,,,,,,,,,,,10,20,2,2024-11-28_16h05.26.609,uWM_experiment,2022.2.3,60.01003368
,,,,,,,,,,,,,,,,,,,,9,0,9,0,15,0,15,0,,,,,,,,,,,,,,,,,,,,,,,,,,,,,,,,,,,,,,,,,,,,,,,,,,,,,,,,,,,,,,,,,,,,,,0.025,,,,,,,,,,,,,,,,,,,,,,,,,,,,left,0,70,30,100,1,2736.328693,2736.328693,2736.328693,None,None,3,0,0.1129744,,,,,,,,,,,,,,,,,,,,,,10,20,2,2024-11-28_16h05.26.609,uWM_experiment,2022.2.3,60.01003368
,,,,,,,,,,,,,,,,,,,,9,0,9,0,16,0,16,0,,,,,,,,,,,,,,,,,,,,,,,,,,,,,,,,,,,,,,,,,,,,,,,,,,,,,,,,,,,,,,,,,,,,,,0.015,,,,,,,,,,,,,,,,,,,,,,,,,,,,left,0,130,30,160,1,2742.195595,2742.195595,2742.195595,None,None,3,0,0.2379382,,,,,,,,,,,,,,,,,,,,,,10,20,2,2024-11-28_16h05.26.609,uWM_experiment,2022.2.3,60.01003368
,,,,,,,,,,,,,,,,,,,,9,0,9,0,17,0,17,0,,,,,,,,,,,,,,,,,,,,,,,,,,,,,,,,,,,,,,,,,,,,,,,,,,,,,,,,,,,,,,,,,,,,,,0.1,,,,,,,,,,,,,,,,,,,,,,,,,,,,right,1,10,30,40,2,2753.912786,2753.912786,2753.912786,None,None,4,0,0.0967728,,,,,,,,,,,,,,,,,,,,,,10,20,2,2024-11-28_16h05.26.609,uWM_experiment,2022.2.3,60.01003368
,,,,,,,,,,,,,,,,,,,,9,0,9,0,18,0,18,0,,,,,,,,,,,,,,,,,,,,,,,,,,,,,,,,,,,,,,,,,,,,,,,,,,,,,,,,,,,,,,,,,,,,,,0.1,,,,,,,,,,,,,,,,,,,,,,,,,,,,right,1,130,30,160,2,2763.946612,2763.946612,2763.946612,None,None,4,0,0.678983,,,,,,,,,,,,,,,,,,,,,,10,20,2,2024-11-28_16h05.26.609,uWM_experiment,2022.2.3,60.01003368
,,,,,,,,,,,,,,,,,,,,9,0,9,0,19,0,19,0,,,,,,,,,,,,,,,,,,,,,,,,,,,,,,,,,,,,,,,,,,,,,,,,,,,,,,,,,,,,,,,,,,,,,,0.005,,,,,,,,,,,,,,,,,,,,,,,,,,,,left,0,100,30,130,1,2770.230206,2770.230206,2770.230206,None,None,2,0,0.0193339,,,,,,,,,,,,,,,,,,,,,,10,20,2,2024-11-28_16h05.26.609,uWM_experiment,2022.2.3,60.01003368
,,,,,,,,,,,,,,,,,,,,9,0,9,0,20,0,20,0,,,,,,,,,,,,,,,,,,,,,,,,,,,,,,,,,,,,,,,,,,,,,,,,,,,,,,,,,,,,,,,,,,,,,,0.005,,,,,,,,,,,,,,,,,,,,,,,,,,,,right,0,70,-30,40,1,2776.063791,2776.063791,2776.063791,None,None,2,0,0.0098932,,,,,,,,,,,,,,,,,,,,,,10,20,2,2024-11-28_16h05.26.609,uWM_experiment,2022.2.3,60.01003368
,,,,,,,,,,,,,,,,,,,,9,0,9,0,21,0,21,0,,,,,,,,,,,,,,,,,,,,,,,,,,,,,,,,,,,,,,,,,,,,,,,,,,,,,,,,,,,,,,,,,,,,,,0,,,,,,,,,,,,,,,,,,,,,,,,,,,,left,1,10,-30,-20,0,2781.814063,2781.814063,2781.814063,None,None,1,1,0.0354993,,,,,,,,,,,,,,,,,,,,,,10,20,2,2024-11-28_16h05.26.609,uWM_experiment,2022.2.3,60.01003368
,,,,,,,,,,,,,,,,,,,,9,0,9,0,22,0,22,0,,,,,,,,,,,,,,,,,,,,,,,,,,,,,,,,,,,,,,,,,,,,,,,,,,,,,,,,,,,,,,,,,,,,,,0.005,,,,,,,,,,,,,,,,,,,,,,,,,,,,right,1,40,30,70,1,2787.564344,2787.564344,2787.564344,None,None,1,1,0.7652791,,,,,,,,,,,,,,,,,,,,,,10,20,2,2024-11-28_16h05.26.609,uWM_experiment,2022.2.3,60.01003368
,,,,,,,,,,,,,,,,,,,,9,0,9,0,23,0,23,0,,,,,,,,,,,,,,,,,,,,,,,,,,,,,,,,,,,,,,,,,,,,,,,,,,,,,,,,,,,,,,,,,,,,,,0.015,,,,,,,,,,,,,,,,,,,,,,,,,,,,left,0,130,30,160,1,2795.364658,2795.364658,2795.364658,None,None,1,1,0.036922,,,,,,,,,,,,,,,,,,,,,,10,20,2,2024-11-28_16h05.26.609,uWM_experiment,2022.2.3,60.01003368
,,,,,,,,,,,,,,,,,,,,9,0,9,0,,,,,0,0,0,0,,,,,,,,,,,,,,,,,,,,,,,,,,,,,,,,,,,,,,,,,,,,,,,,,,,,,,,,,,,,,,,,,,,,,,,,,,,,,,,,,,,,,,,,,,,,,,,,,,,,,,,,,,,,2795.431322,2795.431322,space,22.7943541,None,None,,,,,,,,,,,,,,,,10,20,2,2024-11-28_16h05.26.609,uWM_experiment,2022.2.3,60.01003368
,,,,,,,,,,,,,,,,,,,,9,0,9,0,,,,,1,0,1,0,,,,,,,,,,,,,,,,,,,,,,,,,,,,,,,,,,,,,,,,,,,,,,,,,,,,,,,,,,,,,,,,,,,,,,,,,,,,,,,,,,,,,,,,,,,,,,,,,,,,,,,,,,,,,,,,,,,,,,,,,,,,,,,,,10,20,2,2024-11-28_16h05.26.609,uWM_experiment,2022.2.3,60.01003368
,,,,,,,,,,,,,,,,,,,,9,0,9,0,,,,,2,0,2,0,,,,,,,,,,,,,,,,,,,,,,,,,,,,,,,,,,,,,,,,,,,,,,,,,,,,,,,,,,,,,,,,,,,,,,,,,,,,,,,,,,,,,,,,,,,,,,,,,,,,,,,,,,,,,,,,,,,,,,,,,,,,,,,,,10,20,2,2024-11-28_16h05.26.609,uWM_experiment,2022.2.3,60.01003368
,,,,,,,,,,,,,,,,,,,,10,0,10,0,0,0,0,0,,,,,,,,,,,,,,,,,,,,,,,,,,,,,,,,,,,,,,,,,,,,,,,,,,,,,,,,,,,,,,,,,,,,,,0.025,,,,,,,,,,,,,,,,,,,,2818.249019,2818.949038,2819.249077,2819.949117,2820.249109,2820.949141,2820.949141,2821.265827,left,1,160,-30,130,1,2826.049371,2826.049371,2826.049371,None,None,1,1,0.2643109,,,,,,,None,,,,,,,,,,,,,,,10,20,2,2024-11-28_16h05.26.609,uWM_experiment,2022.2.3,60.01003368
,,,,,,,,,,,,,,,,,,,,10,0,10,0,1,0,1,0,,,,,,,,,,,,,,,,,,,,,,,,,,,,,,,,,,,,,,,,,,,,,,,,,,,,,,,,,,,,,,,,,,,,,,0,,,,,,,,,,,,,,,,,,,,,,,,,,,,right,1,10,30,40,0,2833.599717,2833.599717,2833.599717,None,None,1,1,0.1060361,,,,,,,,,,,,,,,,,,,,,,10,20,2,2024-11-28_16h05.26.609,uWM_experiment,2022.2.3,60.01003368
,,,,,,,,,,,,,,,,,,,,10,0,10,0,2,0,2,0,,,,,,,,,,,,,,,,,,,,,,,,,,,,,,,,,,,,,,,,,,,,,,,,,,,,,,,,,,,,,,,,,,,,,,0.035,,,,,,,,,,,,,,,,,,,,,,,,,,,,right,0,70,-30,40,1,2840.133347,2840.133347,2840.133347,None,None,1,1,0.668278,,,,,,,,,,,,,,,,,,,,,,10,20,2,2024-11-28_16h05.26.609,uWM_experiment,2022.2.3,60.01003368
,,,,,,,,,,,,,,,,,,,,10,0,10,0,3,0,3,0,,,,,,,,,,,,,,,,,,,,,,,,,,,,,,,,,,,,,,,,,,,,,,,,,,,,,,,,,,,,,,,,,,,,,,0.045,,,,,,,,,,,,,,,,,,,,,,,,,,,,right,1,70,30,100,1,2847.567014,2847.567014,2847.567014,None,None,3,0,3.8827087,,,,,,,,,,,,,,,,,,,,,,10,20,2,2024-11-28_16h05.26.609,uWM_experiment,2022.2.3,60.01003368
,,,,,,,,,,,,,,,,,,,,10,0,10,0,4,0,4,0,,,,,,,,,,,,,,,,,,,,,,,,,,,,,,,,,,,,,,,,,,,,,,,,,,,,,,,,,,,,,,,,,,,,,,0,,,,,,,,,,,,,,,,,,,,,,,,,,,,right,0,10,-30,-20,0,2859.817566,2859.817566,2859.817566,None,None,2,0,0.8802309,,,,,,,,,,,,,,,,,,,,,,10,20,2,2024-11-28_16h05.26.609,uWM_experiment,2022.2.3,60.01003368
,,,,,,,,,,,,,,,,,,,,10,0,10,0,5,0,5,0,,,,,,,,,,,,,,,,,,,,,,,,,,,,,,,,,,,,,,,,,,,,,,,,,,,,,,,,,,,,,,,,,,,,,,0.035,,,,,,,,,,,,,,,,,,,,,,,,,,,,right,1,70,30,100,1,2866.884565,2866.884565,2866.884565,None,None,3,0,1.3731654,,,,,,,,,,,,,,,,,,,,,,10,20,2,2024-11-28_16h05.26.609,uWM_experiment,2022.2.3,60.01003368
,,,,,,,,,,,,,,,,,,,,10,0,10,0,6,0,6,0,,,,,,,,,,,,,,,,,,,,,,,,,,,,,,,,,,,,,,,,,,,,,,,,,,,,,,,,,,,,,,,,,,,,,,0.025,,,,,,,,,,,,,,,,,,,,,,,,,,,,left,1,160,-30,130,1,2874.184886,2874.184886,2874.184886,None,None,2,0,1.3128759,,,,,,,,,,,,,,,,,,,,,,10,20,2,2024-11-28_16h05.26.609,uWM_experiment,2022.2.3,60.01003368
,,,,,,,,,,,,,,,,,,,,10,0,10,0,7,0,7,0,,,,,,,,,,,,,,,,,,,,,,,,,,,,,,,,,,,,,,,,,,,,,,,,,,,,,,,,,,,,,,,,,,,,,,0.1,,,,,,,,,,,,,,,,,,,,,,,,,,,,left,1,70,-30,40,2,2883.401967,2883.401967,2883.401967,None,None,4,0,0.9438378,,,,,,,,,,,,,,,,,,,,,,10,20,2,2024-11-28_16h05.26.609,uWM_experiment,2022.2.3,60.01003368
,,,,,,,,,,,,,,,,,,,,10,0,10,0,8,0,8,0,,,,,,,,,,,,,,,,,,,,,,,,,,,,,,,,,,,,,,,,,,,,,,,,,,,,,,,,,,,,,,,,,,,,,,0.015,,,,,,,,,,,,,,,,,,,,,,,,,,,,left,0,40,30,70,1,2893.485748,2893.485748,2893.485748,None,None,2,0,0.6760605,,,,,,,,,,,,,,,,,,,,,,10,20,2,2024-11-28_16h05.26.609,uWM_experiment,2022.2.3,60.01003368
,,,,,,,,,,,,,,,,,,,,10,0,10,0,9,0,9,0,,,,,,,,,,,,,,,,,,,,,,,,,,,,,,,,,,,,,,,,,,,,,,,,,,,,,,,,,,,,,,,,,,,,,,0,,,,,,,,,,,,,,,,,,,,,,,,,,,,right,0,130,-30,100,0,2901.81946,2901.81946,2901.81946,None,None,2,0,0.5103365,,,,,,,,,,,,,,,,,,,,,,10,20,2,2024-11-28_16h05.26.609,uWM_experiment,2022.2.3,60.01003368
,,,,,,,,,,,,,,,,,,,,10,0,10,0,10,0,10,0,,,,,,,,,,,,,,,,,,,,,,,,,,,,,,,,,,,,,,,,,,,,,,,,,,,,,,,,,,,,,,,,,,,,,,0.005,,,,,,,,,,,,,,,,,,,,,,,,,,,,left,1,10,-30,-20,1,2908.036446,2908.036446,2908.036446,None,None,1,1,0.0532682,,,,,,,,,,,,,,,,,,,,,,10,20,2,2024-11-28_16h05.26.609,uWM_experiment,2022.2.3,60.01003368
,,,,,,,,,,,,,,,,,,,,10,0,10,0,11,0,11,0,,,,,,,,,,,,,,,,,,,,,,,,,,,,,,,,,,,,,,,,,,,,,,,,,,,,,,,,,,,,,,,,,,,,,,0.015,,,,,,,,,,,,,,,,,,,,,,,,,,,,right,1,160,30,190,1,2913.886663,2913.886663,2913.886663,None,None,1,1,0.0750387,,,,,,,,,,,,,,,,,,,,,,10,20,2,2024-11-28_16h05.26.609,uWM_experiment,2022.2.3,60.01003368
,,,,,,,,,,,,,,,,,,,,10,0,10,0,12,0,12,0,,,,,,,,,,,,,,,,,,,,,,,,,,,,,,,,,,,,,,,,,,,,,,,,,,,,,,,,,,,,,,,,,,,,,,0.025,,,,,,,,,,,,,,,,,,,,,,,,,,,,right,1,160,30,190,1,2919.736921,2919.736921,2919.736921,None,None,2,0,0.088839,,,,,,,,,,,,,,,,,,,,,,10,20,2,2024-11-28_16h05.26.609,uWM_experiment,2022.2.3,60.01003368
,,,,,,,,,,,,,,,,,,,,10,0,10,0,13,0,13,0,,,,,,,,,,,,,,,,,,,,,,,,,,,,,,,,,,,,,,,,,,,,,,,,,,,,,,,,,,,,,,,,,,,,,,0.015,,,,,,,,,,,,,,,,,,,,,,,,,,,,right,0,100,-30,70,1,2926.070569,2926.070569,2926.070569,None,None,2,0,0.483141,,,,,,,,,,,,,,,,,,,,,,10,20,2,2024-11-28_16h05.26.609,uWM_experiment,2022.2.3,60.01003368
,,,,,,,,,,,,,,,,,,,,10,0,10,0,14,0,14,0,,,,,,,,,,,,,,,,,,,,,,,,,,,,,,,,,,,,,,,,,,,,,,,,,,,,,,,,,,,,,,,,,,,,,,0.1,,,,,,,,,,,,,,,,,,,,,,,,,,,,left,1,40,-30,10,2,2937.804411,2937.804411,2937.804411,None,None,4,0,1.4774418,,,,,,,,,,,,,,,,,,,,,,10,20,2,2024-11-28_16h05.26.609,uWM_experiment,2022.2.3,60.01003368
,,,,,,,,,,,,,,,,,,,,10,0,10,0,15,0,15,0,,,,,,,,,,,,,,,,,,,,,,,,,,,,,,,,,,,,,,,,,,,,,,,,,,,,,,,,,,,,,,,,,,,,,,0.005,,,,,,,,,,,,,,,,,,,,,,,,,,,,left,0,130,30,160,1,2945.204748,2945.204748,2945.204748,None,None,2,0,0.0529922,,,,,,,,,,,,,,,,,,,,,,10,20,2,2024-11-28_16h05.26.609,uWM_experiment,2022.2.3,60.01003368
,,,,,,,,,,,,,,,,,,,,10,0,10,0,16,0,16,0,,,,,,,,,,,,,,,,,,,,,,,,,,,,,,,,,,,,,,,,,,,,,,,,,,,,,,,,,,,,,,,,,,,,,,0.005,,,,,,,,,,,,,,,,,,,,,,,,,,,,right,1,160,30,190,1,2953.288443,2953.288443,2953.288443,None,None,2,0,0.1374112,,,,,,,,,,,,,,,,,,,,,,10,20,2,2024-11-28_16h05.26.609,uWM_experiment,2022.2.3,60.01003368
,,,,,,,,,,,,,,,,,,,,10,0,10,0,17,0,17,0,,,,,,,,,,,,,,,,,,,,,,,,,,,,,,,,,,,,,,,,,,,,,,,,,,,,,,,,,,,,,,,,,,,,,,0.005,,,,,,,,,,,,,,,,,,,,,,,,,,,,left,0,130,30,160,1,2959.188709,2959.188709,2959.188709,None,None,1,1,0.029097,,,,,,,,,,,,,,,,,,,,,,10,20,2,2024-11-28_16h05.26.609,uWM_experiment,2022.2.3,60.01003368
