PreTrainingPAS4_loop.thisRepN,PreTrainingPAS4_loop.thisTrialN,PreTrainingPAS4_loop.thisN,PreTrainingPAS4_loop.thisIndex,PreTrainingPAS1_loop.thisRepN,PreTrainingPAS1_loop.thisTrialN,PreTrainingPAS1_loop.thisN,PreTrainingPAS1_loop.thisIndex,RepeatCV_loop.thisRepN,RepeatCV_loop.thisTrialN,RepeatCV_loop.thisN,RepeatCV_loop.thisIndex,TrainingCV_loop.thisRepN,TrainingCV_loop.thisTrialN,TrainingCV_loop.thisN,TrainingCV_loop.thisIndex,TrainingCAL_loop.thisRepN,TrainingCAL_loop.thisTrialN,TrainingCAL_loop.thisN,TrainingCAL_loop.thisIndex,blocks_loop.thisRepN,blocks_loop.thisTrialN,blocks_loop.thisN,blocks_loop.thisIndex,trials_loop.thisRepN,trials_loop.thisTrialN,trials_loop.thisN,trials_loop.thisIndex,TrainingPAS1_loop.thisRepN,TrainingPAS1_loop.thisTrialN,TrainingPAS1_loop.thisN,TrainingPAS1_loop.thisIndex,spacebarWelcome0.started,spacebarWelcome0.keys,spacebarWelcome0.rt,spacebarWelcome1.started,gaborWelcome1.started,maskWelcome1.started,textMaskWelcome1.started,spacebarWelcome1.keys,spacebarWelcome1.rt,spacebarWelcome2.started,spacebarWelcome2.keys,spacebarWelcome2.rt,textInst_PreTrainingPAS4.started,spacebarPreTrainingPAS4.started,spacebarPreTrainingPAS4.keys,spacebarPreTrainingPAS4.rt,textPreTrainingPAS1.started,spacebarPreTrainingPAS1.started,spacebarPreTrainingPAS1.keys,spacebarPreTrainingPAS1.rt,textQUEST0.started,spacebarQUEST0.started,spacebarQUEST0.keys,spacebarQUEST0.rt,spacebar0.started,spacebar0.keys,spacebar0.rt,spacebar1.started,spacebar1.keys,spacebar1.rt,textInstructions2.started,spacebar2.started,Gabor1Inst2.started,Gabor2Inst2.started,Gabor3Inst2.started,Gabor4Inst2.started,spacebar2.keys,spacebar2.rt,textInstructionsPAS.started,spacebarInstPAS.started,spacebarInstPAS.keys,spacebarInstPAS.rt,textInstructions3.started,spacebar3.started,spacebar3.keys,spacebar3.rt,WMresp_CV,WMresp_CV_acc,oriMemo_CV,gyre_CV,oriTest_CV,feedbackText.started,feedbackText.stopped,sliderCV.started,PAStextCV.started,PASkeyCV.started,sliderCV.response,sliderCV.rt,PASkeyCV.keys,PASkeyCV.corr,PASkeyCV.rt,TextInstructionsCAL.started,spacebarCAL.started,spacebarCAL.keys,spacebarCAL.rt,contrast,WMresp_CAL,WMresp_CAL_acc,oriMemo_CAL,gyre_CAL,oriTest_CAL,cue_CAL,sliderCAL.started,PAStextCAL.started,PASkeyCAL.started,sliderCAL.response,sliderCAL.rt,PASkeyCAL.keys,PASkeyCAL.corr,PASkeyCAL.rt,propUnseen_CAL,textStart.started,spacebar4.started,spacebar4.keys,spacebar4.rt,three.started,three.stopped,two.started,two.stopped,one.started,one.stopped,blank_countdown.started,blank_countdown.stopped,WMresp,WMresp_acc,oriMemo,gyre,oriTest,cue,slider.started,textPAS_firstGabor.started,PASkey.started,slider.response,slider.rt,PASkey.keys,PASkey.corr,PASkey.rt,spacebarContinue.started,textBreak.started,spacebarContinue.keys,spacebarContinue.rt,spacebar_reminder.keys,spacebar_TrainingPAS1.keys,spacebar_endpractice.keys,spacebar_reminder.started,textReminder.started,spacebar_reminder.rt,textInst_TrainingPAS1.started,spacebar_TrainingPAS1.started,spacebar_TrainingPAS1.rt,textend_practicePAS1.started,spacebar_endpractice.started,spacebar_endpractice.rt,textThanks.started,textThanks.stopped,laboratory,participant,session,date,expName,psychopyVersion,frameRate
,,,,,,,,,,,,,,,,,,,,,,,,,,,,,,,,351.2583352,space,3.9188049,,,,,,,,,,,,,,,,,,,,,,,,,,,,,,,,,,,,,,,,,,,,,,,,,,,,,,,,,,,,,,,,,,,,,,,,,,,,,,,,,,,,,,,,,,,,,,,,,,,,,,,,,,,,,,,,,,,,,,,,,,,10,20,1,2024-11-27_16h10.03.300,uWM_experiment,2022.2.3,59.99340073
,,,,,,,,,,,,,,,,,,,,,,,,,,,,,,,,,,,355.2249225,355.2249225,355.2249225,355.2249225,space,39.9203044,,,,,,,,,,,,,,,,,,,,,,,,,,,,,,,,,,,,,,,,,,,,,,,,,,,,,,,,,,,,,,,,,,,,,,,,,,,,,,,,,,,,,,,,,,,,,,,,,,,,,,,,,,,,,,,,,,,,,10,20,1,2024-11-27_16h10.03.300,uWM_experiment,2022.2.3,59.99340073
,,,,,,,,,,,,,,,,,,,,,,,,,,,,,,,,,,,,,,,,,395.1766765,space,23.3924807,,,,,,,,,,,,,,,,,,,,,,,,,,,,,,,,,,,,,,,,,,,,,,,,,,,,,,,,,,,,,,,,,,,,,,,,,,,,,,,,,,,,,,,,,,,,,,,,,,,,,,,,,,,,,,,,,,10,20,1,2024-11-27_16h10.03.300,uWM_experiment,2022.2.3,59.99340073
,,,,,,,,,,,,,,,,,,,,,,,,,,,,,,,,,,,,,,,,,,,,418.5943788,418.5943788,space,18.1267836,,,,,,,,,,,,,,,,,,,,,,,,,,,,,,,,,,,,,,,,,,,,,,,,,,,,,,,,,,,,,,,,,,,,,,,,,,,,,,,,,,,,,,,,,,,,,,,,,,,,,,,,,,,,,,10,20,1,2024-11-27_16h10.03.300,uWM_experiment,2022.2.3,59.99340073
0,0,0,0,,,,,,,,,,,,,,,,,,,,,,,,,,,,,,,,,,,,,,,,,,,,,,,,,,,,,,,,,,,,,,,,,,,,,,,,,,,,,,,,,,,,,,,,,,,,,,,,,,,,,,,,,,,,,,,,,,,,,,,,,,,,,,,,,,,,,,,,,,,,,,,,,,,,,,,,,,10,20,1,2024-11-27_16h10.03.300,uWM_experiment,2022.2.3,59.99340073
1,0,1,0,,,,,,,,,,,,,,,,,,,,,,,,,,,,,,,,,,,,,,,,,,,,,,,,,,,,,,,,,,,,,,,,,,,,,,,,,,,,,,,,,,,,,,,,,,,,,,,,,,,,,,,,,,,,,,,,,,,,,,,,,,,,,,,,,,,,,,,,,,,,,,,,,,,,,,,,,,10,20,1,2024-11-27_16h10.03.300,uWM_experiment,2022.2.3,59.99340073
2,0,2,0,,,,,,,,,,,,,,,,,,,,,,,,,,,,,,,,,,,,,,,,,,,,,,,,,,,,,,,,,,,,,,,,,,,,,,,,,,,,,,,,,,,,,,,,,,,,,,,,,,,,,,,,,,,,,,,,,,,,,,,,,,,,,,,,,,,,,,,,,,,,,,,,,,,,,,,,,,10,20,1,2024-11-27_16h10.03.300,uWM_experiment,2022.2.3,59.99340073
,,,,,,,,,,,,,,,,,,,,,,,,,,,,,,,,,,,,,,,,,,,,,,,,460.6462606,460.6462606,space,42.9469661,,,,,,,,,,,,,,,,,,,,,,,,,,,,,,,,,,,,,,,,,,,,,,,,,,,,,,,,,,,,,,,,,,,,,,,,,,,,,,,,,,,,,,,,,,,,,,,,,,,,,,,,,,10,20,1,2024-11-27_16h10.03.300,uWM_experiment,2022.2.3,59.99340073
,,,,0,0,0,0,,,,,,,,,,,,,,,,,,,,,,,,,,,,,,,,,,,,,,,,,,,,,,,,,,,,,,,,,,,,,,,,,,,,,,,,,,,,,,,,,,,,,,,,,,,,,,,,,,,,,,,,,,,,,,,,,,,,,,,,,,,,,,,,,,,,,,,,,,,,,,,,,,,,,,10,20,1,2024-11-27_16h10.03.300,uWM_experiment,2022.2.3,59.99340073
,,,,1,0,1,0,,,,,,,,,,,,,,,,,,,,,,,,,,,,,,,,,,,,,,,,,,,,,,,,,,,,,,,,,,,,,,,,,,,,,,,,,,,,,,,,,,,,,,,,,,,,,,,,,,,,,,,,,,,,,,,,,,,,,,,,,,,,,,,,,,,,,,,,,,,,,,,,,,,,,,10,20,1,2024-11-27_16h10.03.300,uWM_experiment,2022.2.3,59.99340073
,,,,2,0,2,0,,,,,,,,,,,,,,,,,,,,,,,,,,,,,,,,,,,,,,,,,,,,,,,,,,,,,,,,,,,,,,,,,,,,,,,,,,,,,,,,,,,,,,,,,,,,,,,,,,,,,,,,,,,,,,,,,,,,,,,,,,,,,,,,,,,,,,,,,,,,,,,,,,,,,,10,20,1,2024-11-27_16h10.03.300,uWM_experiment,2022.2.3,59.99340073
,,,,,,,,,,,,,,,,,,,,,,,,,,,,,,,,,,,,,,,,,,,,,,,,,,,,514.8986598,514.8986598,space,24.8785659,,,,,,,,,,,,,,,,,,,,,,,,,,,,,,,,,,,,,,,,,,,,,,,,,,,,,,,,,,,,,,,,,,,,,,,,,,,,,,,,,,,,,,,,,,,,,,,,,,,,,,10,20,1,2024-11-27_16h10.03.300,uWM_experiment,2022.2.3,59.99340073
,,,,,,,,,,,,,,,,,,,,,,,,,,,,,,,,,,,,,,,,,,,,,,,,,,,,,,,,739.3086828,space,25.8926698,,,,,,,,,,,,,,,,,,,,,,,,,,,,,,,,,,,,,,,,,,,,,,,,,,,,,,,,,,,,,,,,,,,,,,,,,,,,,,,,,,,,,,,,,,,,,,,,,,,10,20,1,2024-11-27_16h10.03.300,uWM_experiment,2022.2.3,59.99340073
,,,,,,,,,,,,,,,,,,,,,,,,,,,,,,,,,,,,,,,,,,,,,,,,,,,,,,,,,,,765.2264927,space,44.2549352,,,,,,,,,,,,,,,,,,,,,,,,,,,,,,,,,,,,,,,,,,,,,,,,,,,,,,,,,,,,,,,,,,,,,,,,,,,,,,,,,,,,,,,,,,,,,,,,10,20,1,2024-11-27_16h10.03.300,uWM_experiment,2022.2.3,59.99340073
,,,,,,,,,,,,,,,,,,,,,,,,,,,,,,,,,,,,,,,,,,,,,,,,,,,,,,,,,,,,,,809.5118077,809.5118077,809.5118077,809.5118077,809.5118077,809.5118077,space,20.1695235,,,,,,,,,,,,,,,,,,,,,,,,,,,,,,,,,,,,,,,,,,,,,,,,,,,,,,,,,,,,,,,,,,,,,,,,,,,,,,,,,,,,,,,,10,20,1,2024-11-27_16h10.03.300,uWM_experiment,2022.2.3,59.99340073
,,,,,,,,,,,,,,,,,,,,,,,,,,,,,,,,,,,,,,,,,,,,,,,,,,,,,,,,,,,,,,,,,,,,,,829.7127201,829.7127201,space,20.3446569,,,,,,,,,,,,,,,,,,,,,,,,,,,,,,,,,,,,,,,,,,,,,,,,,,,,,,,,,,,,,,,,,,,,,,,,,,,,,,,,,,,,10,20,1,2024-11-27_16h10.03.300,uWM_experiment,2022.2.3,59.99340073
,,,,,,,,,,,,,,,,,,,,,,,,,,,,,,,,,,,,,,,,,,,,,,,,,,,,,,,,,,,,,,,,,,,,,,,,,,850.0802843,850.0802843,space,24.2410511,,,,,,,,,,,,,,,,,,,,,,,,,,,,,,,,,,,,,,,,,,,,,,,,,,,,,,,,,,,,,,,,,,,,,,,,,,,,,,,,10,20,1,2024-11-27_16h10.03.300,uWM_experiment,2022.2.3,59.99340073
,,,,,,,,0,0,0,0,0,0,0,0,,,,,,,,,,,,,,,,,,,,,,,,,,,,,,,,,,,,,,,,,,,,,,,,,,,,,,,,,,,,,,,right,0,40,-30,10,881.6984725,882.6984192,882.6984192,882.6984192,882.6984192,None,None,3,0,51.3908713,,,,,,,,,,,,,,,,,,,,,,,,,,,,,,,,,,,,,,,,,,,,,,,,,,,,,,,,,,,,,,,,,10,20,1,2024-11-27_16h10.03.300,uWM_experiment,2022.2.3,59.99340073
,,,,,,,,0,0,0,0,1,0,1,0,,,,,,,,,,,,,,,,,,,,,,,,,,,,,,,,,,,,,,,,,,,,,,,,,,,,,,,,,,,,,,,right,0,70,-30,40,941.7677513,942.7677975,942.7677975,942.7677975,942.7677975,None,None,3,0,22.9855211,,,,,,,,,,,,,,,,,,,,,,,,,,,,,,,,,,,,,,,,,,,,,,,,,,,,,,,,,,,,,,,,,10,20,1,2024-11-27_16h10.03.300,uWM_experiment,2022.2.3,59.99340073
,,,,,,,,0,0,0,0,2,0,2,0,,,,,,,,,,,,,,,,,,,,,,,,,,,,,,,,,,,,,,,,,,,,,,,,,,,,,,,,,,,,,,,right,1,70,30,100,975.4359231,,976.4359635,976.4359635,976.4359635,None,None,4,0,3.517367,,,,,,,,,,,,,,,,,,,,,,,,,,,,,,,,,,,,,,,,,,,,,,,,,,,,,,,,,,,,,,,,,10,20,1,2024-11-27_16h10.03.300,uWM_experiment,2022.2.3,59.99340073
,,,,,,,,0,0,0,0,3,0,3,0,,,,,,,,,,,,,,,,,,,,,,,,,,,,,,,,,,,,,,,,,,,,,,,,,,,,,,,,,,,,,,,left,0,160,30,190,987.7531332,988.7531705,988.7531705,988.7531705,988.7531705,None,None,3,0,1.7042211,,,,,,,,,,,,,,,,,,,,,,,,,,,,,,,,,,,,,,,,,,,,,,,,,,,,,,,,,,,,,,,,,10,20,1,2024-11-27_16h10.03.300,uWM_experiment,2022.2.3,59.99340073
,,,,,,,,0,0,0,0,4,0,4,0,,,,,,,,,,,,,,,,,,,,,,,,,,,,,,,,,,,,,,,,,,,,,,,,,,,,,,,,,,,,,,,right,0,70,-30,40,999.0202971,,1000.02034,1000.02034,1000.02034,None,None,3,0,1.5491044,,,,,,,,,,,,,,,,,,,,,,,,,,,,,,,,,,,,,,,,,,,,,,,,,,,,,,,,,,,,,,,,,10,20,1,2024-11-27_16h10.03.300,uWM_experiment,2022.2.3,59.99340073
,,,,,,,,0,0,0,0,5,0,5,0,,,,,,,,,,,,,,,,,,,,,,,,,,,,,,,,,,,,,,,,,,,,,,,,,,,,,,,,,,,,,,,left,0,130,30,160,1007.93738,1008.937405,1008.937405,1008.937405,1008.937405,None,None,3,0,11.392092,,,,,,,,,,,,,,,,,,,,,,,,,,,,,,,,,,,,,,,,,,,,,,,,,,,,,,,,,,,,,,,,,10,20,1,2024-11-27_16h10.03.300,uWM_experiment,2022.2.3,59.99340073
,,,,,,,,0,0,0,0,6,0,6,0,,,,,,,,,,,,,,,,,,,,,,,,,,,,,,,,,,,,,,,,,,,,,,,,,,,,,,,,,,,,,,,right,0,100,-30,70,1026.80488,,1027.804954,1027.804954,1027.804954,None,None,3,0,34.9085539,,,,,,,,,,,,,,,,,,,,,,,,,,,,,,,,,,,,,,,,,,,,,,,,,,,,,,,,,,,,,,,,,10,20,1,2024-11-27_16h10.03.300,uWM_experiment,2022.2.3,59.99340073
,,,,,,,,0,0,0,0,7,0,7,0,,,,,,,,,,,,,,,,,,,,,,,,,,,,,,,,,,,,,,,,,,,,,,,,,,,,,,,,,,,,,,,right,1,160,30,190,1068.90676,1069.906814,1069.906814,1069.906814,1069.906814,None,None,4,0,0.9746596,,,,,,,,,,,,,,,,,,,,,,,,,,,,,,,,,,,,,,,,,,,,,,,,,,,,,,,,,,,,,,,,,10,20,1,2024-11-27_16h10.03.300,uWM_experiment,2022.2.3,59.99340073
,,,,,,,,0,0,0,0,8,0,8,0,,,,,,,,,,,,,,,,,,,,,,,,,,,,,,,,,,,,,,,,,,,,,,,,,,,,,,,,,,,,,,,left,1,130,-30,100,1077.007129,1078.007161,1078.007161,1078.007161,1078.007161,None,None,4,0,1.1622962,,,,,,,,,,,,,,,,,,,,,,,,,,,,,,,,,,,,,,,,,,,,,,,,,,,,,,,,,,,,,,,,,10,20,1,2024-11-27_16h10.03.300,uWM_experiment,2022.2.3,59.99340073
,,,,,,,,0,0,0,0,9,0,9,0,,,,,,,,,,,,,,,,,,,,,,,,,,,,,,,,,,,,,,,,,,,,,,,,,,,,,,,,,,,,,,,right,1,130,30,160,1085.907534,,1086.907551,1086.907551,1086.907551,None,None,4,0,0.6939435,,,,,,,,,,,,,,,,,,,,,,,,,,,,,,,,,,,,,,,,,,,,,,,,,,,,,,,,,,,,,,,,,10,20,1,2024-11-27_16h10.03.300,uWM_experiment,2022.2.3,59.99340073
,,,,,,,,0,0,0,0,10,0,10,0,,,,,,,,,,,,,,,,,,,,,,,,,,,,,,,,,,,,,,,,,,,,,,,,,,,,,,,,,,,,,,,left,1,100,-30,70,1094.84126,1095.841304,1095.841304,1095.841304,1095.841304,None,None,4,0,0.8242693,,,,,,,,,,,,,,,,,,,,,,,,,,,,,,,,,,,,,,,,,,,,,,,,,,,,,,,,,,,,,,,,,10,20,1,2024-11-27_16h10.03.300,uWM_experiment,2022.2.3,59.99340073
,,,,,,,,0,0,0,0,11,0,11,0,,,,,,,,,,,,,,,,,,,,,,,,,,,,,,,,,,,,,,,,,,,,,,,,,,,,,,,,,,,,,,,right,1,10,30,40,1102.924956,,1103.925004,1103.925004,1103.925004,None,None,4,0,0.8764668,,,,,,,,,,,,,,,,,,,,,,,,,,,,,,,,,,,,,,,,,,,,,,,,,,,,,,,,,,,,,,,,,10,20,1,2024-11-27_16h10.03.300,uWM_experiment,2022.2.3,59.99340073
,,,,,,,,0,0,0,0,,,,,,,,,,,,,,,,,,,,,,,,,,,,,,,,,,,,,,,,,,,,,,,,,,,,,,,,,,,,,,,,,,,,,,,,,,,,,,,,,,,,,,,,,,,,,,,,,,,,,,,,,,,,,,,,,,,,,,,,,,,,,,,,,,,,,,,,,,,,,,,,,,10,20,1,2024-11-27_16h10.03.300,uWM_experiment,2022.2.3,59.99340073
,,,,,,,,,,,,,,,,,,,,,,,,,,,,,,,,,,,,,,,,,,,,,,,,,,,,,,,,,,,,,,,,,,,,,,,,,,,,,,,,,,,,,,,,,,,,,1122.892575,1122.892575,space,8.5569884,,,,,,,,,,,,,,,,,,,,,,,,,,,,,,,,,,,,,,,,,,,,,,,,,,,,,,,,,,,,,10,20,1,2024-11-27_16h10.03.300,uWM_experiment,2022.2.3,59.99340073
,,,,,,,,,,,,,,,,0,0,0,0,,,,,,,,,,,,,,,,,,,,,,,,,,,,,,,,,,,,,,,,,,,,,,,,,,,,,,,,,,,,,,,,,,,,,,,,,,,,,,0.056799222,right,1,40,30,70,1,1137.693182,1137.693182,1137.693182,None,None,4,0,2.6683864,,,,,,,,,,,,,,,,,,,,,,,,,,,,,,,,,,,,,,,,,,,,,,10,20,1,2024-11-27_16h10.03.300,uWM_experiment,2022.2.3,59.99340073
,,,,,,,,,,,,,,,,1,0,1,0,,,,,,,,,,,,,,,,,,,,,,,,,,,,,,,,,,,,,,,,,,,,,,,,,,,,,,,,,,,,,,,,,,,,,,,,,,,,,,0.1,right,1,70,30,100,2,1146.743583,1146.743583,1146.743583,None,None,4,0,1.1939776,0,,,,,,,,,,,,,,,,,,,,,,,,,,,,,,,,,,,,,,,,,,,,,10,20,1,2024-11-27_16h10.03.300,uWM_experiment,2022.2.3,59.99340073
,,,,,,,,,,,,,,,,2,0,2,0,,,,,,,,,,,,,,,,,,,,,,,,,,,,,,,,,,,,,,,,,,,,,,,,,,,,,,,,,,,,,,,,,,,,,,,,,,,,,,0.1,left,1,40,-30,10,2,1154.777277,1154.777277,1154.777277,None,None,4,0,1.2242919,0,,,,,,,,,,,,,,,,,,,,,,,,,,,,,,,,,,,,,,,,,,,,,10,20,1,2024-11-27_16h10.03.300,uWM_experiment,2022.2.3,59.99340073
,,,,,,,,,,,,,,,,3,0,3,0,,,,,,,,,,,,,,,,,,,,,,,,,,,,,,,,,,,,,,,,,,,,,,,,,,,,,,,,,,,,,,,,,,,,,,,,,,,,,,0.1,right,1,100,30,130,2,1163.427641,1163.427641,1163.427641,None,None,4,0,1.0939389,0,,,,,,,,,,,,,,,,,,,,,,,,,,,,,,,,,,,,,,,,,,,,,10,20,1,2024-11-27_16h10.03.300,uWM_experiment,2022.2.3,59.99340073
,,,,,,,,,,,,,,,,4,0,4,0,,,,,,,,,,,,,,,,,,,,,,,,,,,,,,,,,,,,,,,,,,,,,,,,,,,,,,,,,,,,,,,,,,,,,,,,,,,,,,0.046799222,left,1,100,-30,70,1,1173.194759,1173.194759,1173.194759,None,None,2,0,2.2628105,0,,,,,,,,,,,,,,,,,,,,,,,,,,,,,,,,,,,,,,,,,,,,,10,20,1,2024-11-27_16h10.03.300,uWM_experiment,2022.2.3,59.99340073
,,,,,,,,,,,,,,,,5,0,5,0,,,,,,,,,,,,,,,,,,,,,,,,,,,,,,,,,,,,,,,,,,,,,,,,,,,,,,,,,,,,,,,,,,,,,,,,,,,,,,0.1,right,1,70,30,100,2,1182.74518,1182.74518,1182.74518,None,None,4,0,1.6882903,0,,,,,,,,,,,,,,,,,,,,,,,,,,,,,,,,,,,,,,,,,,,,,10,20,1,2024-11-27_16h10.03.300,uWM_experiment,2022.2.3,59.99340073
,,,,,,,,,,,,,,,,6,0,6,0,,,,,,,,,,,,,,,,,,,,,,,,,,,,,,,,,,,,,,,,,,,,,,,,,,,,,,,,,,,,,,,,,,,,,,,,,,,,,,0.1,right,1,10,30,40,2,1191.978903,1191.978903,1191.978903,None,None,4,0,1.3345489,0,,,,,,,,,,,,,,,,,,,,,,,,,,,,,,,,,,,,,,,,,,,,,10,20,1,2024-11-27_16h10.03.300,uWM_experiment,2022.2.3,59.99340073
,,,,,,,,,,,,,,,,7,0,7,0,,,,,,,,,,,,,,,,,,,,,,,,,,,,,,,,,,,,,,,,,,,,,,,,,,,,,,,,,,,,,,,,,,,,,,,,,,,,,,0.036799222,right,0,130,-30,100,1,1201.729401,1201.729401,1201.729401,None,None,3,0,1.5281837,0,,,,,,,,,,,,,,,,,,,,,,,,,,,,,,,,,,,,,,,,,,,,,10,20,1,2024-11-27_16h10.03.300,uWM_experiment,2022.2.3,59.99340073
,,,,,,,,,,,,,,,,8,0,8,0,,,,,,,,,,,,,,,,,,,,,,,,,,,,,,,,,,,,,,,,,,,,,,,,,,,,,,,,,,,,,,,,,,,,,,,,,,,,,,0.1,left,1,130,-30,100,2,1210.029717,1210.029717,1210.029717,None,None,4,0,1.2439041,0,,,,,,,,,,,,,,,,,,,,,,,,,,,,,,,,,,,,,,,,,,,,,10,20,1,2024-11-27_16h10.03.300,uWM_experiment,2022.2.3,59.99340073
,,,,,,,,,,,,,,,,9,0,9,0,,,,,,,,,,,,,,,,,,,,,,,,,,,,,,,,,,,,,,,,,,,,,,,,,,,,,,,,,,,,,,,,,,,,,,,,,,,,,,0.1,left,1,160,-30,130,2,1219.896851,1219.896851,1219.896851,None,None,3,0,2.1685757,0,,,,,,,,,,,,,,,,,,,,,,,,,,,,,,,,,,,,,,,,,,,,,10,20,1,2024-11-27_16h10.03.300,uWM_experiment,2022.2.3,59.99340073
,,,,,,,,,,,,,,,,10,0,10,0,,,,,,,,,,,,,,,,,,,,,,,,,,,,,,,,,,,,,,,,,,,,,,,,,,,,,,,,,,,,,,,,,,,,,,,,,,,,,,0.026799222,left,1,10,-30,-20,1,1233.030754,1233.030754,1233.030754,None,None,2,0,1.8748812,0,,,,,,,,,,,,,,,,,,,,,,,,,,,,,,,,,,,,,,,,,,,,,10,20,1,2024-11-27_16h10.03.300,uWM_experiment,2022.2.3,59.99340073
,,,,,,,,,,,,,,,,11,0,11,0,,,,,,,,,,,,,,,,,,,,,,,,,,,,,,,,,,,,,,,,,,,,,,,,,,,,,,,,,,,,,,,,,,,,,,,,,,,,,,0.1,left,1,70,-30,40,2,1242.097839,1242.097839,1242.097839,None,None,4,0,1.1437691,0,,,,,,,,,,,,,,,,,,,,,,,,,,,,,,,,,,,,,,,,,,,,,10,20,1,2024-11-27_16h10.03.300,uWM_experiment,2022.2.3,59.99340073
,,,,,,,,,,,,,,,,12,0,12,0,,,,,,,,,,,,,,,,,,,,,,,,,,,,,,,,,,,,,,,,,,,,,,,,,,,,,,,,,,,,,,,,,,,,,,,,,,,,,,0.016799222,right,1,130,30,160,1,1249.364828,1249.364828,1249.364828,None,None,2,0,1.7807069,0,,,,,,,,,,,,,,,,,,,,,,,,,,,,,,,,,,,,,,,,,,,,,10,20,1,2024-11-27_16h10.03.300,uWM_experiment,2022.2.3,59.99340073
,,,,,,,,,,,,,,,,13,0,13,0,,,,,,,,,,,,,,,,,,,,,,,,,,,,,,,,,,,,,,,,,,,,,,,,,,,,,,,,,,,,,,,,,,,,,,,,,,,,,,0.006799222,right,1,10,30,40,1,1257.54853,1257.54853,1257.54853,None,None,2,0,1.7009206,0,,,,,,,,,,,,,,,,,,,,,,,,,,,,,,,,,,,,,,,,,,,,,10,20,1,2024-11-27_16h10.03.300,uWM_experiment,2022.2.3,59.99340073
,,,,,,,,,,,,,,,,14,0,14,0,,,,,,,,,,,,,,,,,,,,,,,,,,,,,,,,,,,,,,,,,,,,,,,,,,,,,,,,,,,,,,,,,,,,,,,,,,,,,,0.005,left,0,160,30,190,1,1266.515559,1266.515559,1266.515559,None,None,2,0,1.1019553,0,,,,,,,,,,,,,,,,,,,,,,,,,,,,,,,,,,,,,,,,,,,,,10,20,1,2024-11-27_16h10.03.300,uWM_experiment,2022.2.3,59.99340073
,,,,,,,,,,,,,,,,15,0,15,0,,,,,,,,,,,,,,,,,,,,,,,,,,,,,,,,,,,,,,,,,,,,,,,,,,,,,,,,,,,,,,,,,,,,,,,,,,,,,,0.005,left,1,160,-30,130,1,1273.582572,1273.582572,1273.582572,None,None,1,1,0.6829813,0,,,,,,,,,,,,,,,,,,,,,,,,,,,,,,,,,,,,,,,,,,,,,10,20,1,2024-11-27_16h10.03.300,uWM_experiment,2022.2.3,59.99340073
,,,,,,,,,,,,,,,,16,0,16,0,,,,,,,,,,,,,,,,,,,,,,,,,,,,,,,,,,,,,,,,,,,,,,,,,,,,,,,,,,,,,,,,,,,,,,,,,,,,,,0.1,right,1,160,30,190,2,1281.199581,1281.199581,1281.199581,None,None,4,0,1.25801,0.0625,,,,,,,,,,,,,,,,,,,,,,,,,,,,,,,,,,,,,,,,,,,,,10,20,1,2024-11-27_16h10.03.300,uWM_experiment,2022.2.3,59.99340073
,,,,,,,,,,,,,,,,17,0,17,0,,,,,,,,,,,,,,,,,,,,,,,,,,,,,,,,,,,,,,,,,,,,,,,,,,,,,,,,,,,,,,,,,,,,,,,,,,,,,,0.1,left,1,70,-30,40,2,1289.216584,1289.216584,1289.216584,None,None,4,0,1.0169007,0.058823529,,,,,,,,,,,,,,,,,,,,,,,,,,,,,,,,,,,,,,,,,,,,,10,20,1,2024-11-27_16h10.03.300,uWM_experiment,2022.2.3,59.99340073
,,,,,,,,,,,,,,,,18,0,18,0,,,,,,,,,,,,,,,,,,,,,,,,,,,,,,,,,,,,,,,,,,,,,,,,,,,,,,,,,,,,,,,,,,,,,,,,,,,,,,0.015,left,0,10,30,40,1,1296.450241,1296.450241,1296.450241,None,None,1,1,0.5434282,0.055555556,,,,,,,,,,,,,,,,,,,,,,,,,,,,,,,,,,,,,,,,,,,,,10,20,1,2024-11-27_16h10.03.300,uWM_experiment,2022.2.3,59.99340073
,,,,,,,,,,,,,,,,19,0,19,0,,,,,,,,,,,,,,,,,,,,,,,,,,,,,,,,,,,,,,,,,,,,,,,,,,,,,,,,,,,,,,,,,,,,,,,,,,,,,,0.025,right,0,100,-30,70,1,1302.767211,1302.767211,1302.767211,None,None,1,1,0.5382832,0.105263158,,,,,,,,,,,,,,,,,,,,,,,,,,,,,,,,,,,,,,,,,,,,,10,20,1,2024-11-27_16h10.03.300,uWM_experiment,2022.2.3,59.99340073
,,,,,,,,,,,,,,,,20,0,20,0,,,,,,,,,,,,,,,,,,,,,,,,,,,,,,,,,,,,,,,,,,,,,,,,,,,,,,,,,,,,,,,,,,,,,,,,,,,,,,0.035,right,0,100,-30,70,1,1309.18415,1309.18415,1309.18415,None,None,1,1,2.5534178,0.15,,,,,,,,,,,,,,,,,,,,,,,,,,,,,,,,,,,,,,,,,,,,,10,20,1,2024-11-27_16h10.03.300,uWM_experiment,2022.2.3,59.99340073
,,,,,,,,,,,,,,,,21,0,21,0,,,,,,,,,,,,,,,,,,,,,,,,,,,,,,,,,,,,,,,,,,,,,,,,,,,,,,,,,,,,,,,,,,,,,,,,,,,,,,0.045,right,1,130,30,160,1,1318.101227,1318.101227,1318.101227,None,None,3,0,1.0042641,0.19047619,,,,,,,,,,,,,,,,,,,,,,,,,,,,,,,,,,,,,,,,,,,,,10,20,1,2024-11-27_16h10.03.300,uWM_experiment,2022.2.3,59.99340073
,,,,,,,,,,,,,,,,22,0,22,0,,,,,,,,,,,,,,,,,,,,,,,,,,,,,,,,,,,,,,,,,,,,,,,,,,,,,,,,,,,,,,,,,,,,,,,,,,,,,,0.1,left,1,40,-30,10,2,1325.884921,1325.884921,1325.884921,None,None,4,0,0.5966951,0.181818182,,,,,,,,,,,,,,,,,,,,,,,,,,,,,,,,,,,,,,,,,,,,,10,20,1,2024-11-27_16h10.03.300,uWM_experiment,2022.2.3,59.99340073
,,,,,,,,,,,,,,,,23,0,23,0,,,,,,,,,,,,,,,,,,,,,,,,,,,,,,,,,,,,,,,,,,,,,,,,,,,,,,,,,,,,,,,,,,,,,,,,,,,,,,0.1,right,1,40,30,70,2,1333.335245,1333.335245,1333.335245,None,None,4,0,1.6182675,0.173913043,,,,,,,,,,,,,,,,,,,,,,,,,,,,,,,,,,,,,,,,,,,,,10,20,1,2024-11-27_16h10.03.300,uWM_experiment,2022.2.3,59.99340073
,,,,,,,,,,,,,,,,,,,,,,,,,,,,,,,,,,,,,,,,,,,,,,,,,,,,,,,,,,,,,,,,,,,,,,,,,,,,,,,,,,,,,,,,,,,,,,,,,,,,,,,,,,,,,,,,,1334.985272,1335.985329,space,137.1604248,,,,,,,,,,,,,,,,,,,,,,,,,,,,,,,,,,,,,,,,,10,20,1,2024-11-27_16h10.03.300,uWM_experiment,2022.2.3,59.99340073
,,,,,,,,,,,,,,,,,,,,0,0,0,0,0,0,0,0,,,,,,,,,,,,,,,,,,,,,,,,,,,,,,,,,,,,,,,,,,,,,,,,,,,,,,,,,,,,,,,,,,,,,,0.045,,,,,,,,,,,,,,,,,,,,1473.174802,1473.874832,1474.158179,1474.858234,1475.15827,1475.858255,1475.858255,1476.2083,right,0,100,-30,70,1,1482.041882,1482.041882,1482.041882,None,None,2,0,1.7758475,,,,,,,,,,,,,,,,,,,10,20,1,2024-11-27_16h10.03.300,uWM_experiment,2022.2.3,59.99340073
,,,,,,,,,,,,,,,,,,,,0,0,0,0,1,0,1,0,,,,,,,,,,,,,,,,,,,,,,,,,,,,,,,,,,,,,,,,,,,,,,,,,,,,,,,,,,,,,,,,,,,,,,0.035,,,,,,,,,,,,,,,,,,,,,,,,,,,,right,1,70,30,100,1,1490.925609,1490.925609,1490.925609,None,None,3,0,0.8519585,,,,,,,,,,,,,,,,,,,10,20,1,2024-11-27_16h10.03.300,uWM_experiment,2022.2.3,59.99340073
,,,,,,,,,,,,,,,,,,,,0,0,0,0,2,0,2,0,,,,,,,,,,,,,,,,,,,,,,,,,,,,,,,,,,,,,,,,,,,,,,,,,,,,,,,,,,,,,,,,,,,,,,0,,,,,,,,,,,,,,,,,,,,,,,,,,,,right,0,70,-30,40,0,1497.325888,1497.325888,1497.325888,None,None,2,0,1.3717063,,,,,,,,,,,,,,,,,,,10,20,1,2024-11-27_16h10.03.300,uWM_experiment,2022.2.3,59.99340073
,,,,,,,,,,,,,,,,,,,,0,0,0,0,3,0,3,0,,,,,,,,,,,,,,,,,,,,,,,,,,,,,,,,,,,,,,,,,,,,,,,,,,,,,,,,,,,,,,,,,,,,,,0.025,,,,,,,,,,,,,,,,,,,,,,,,,,,,left,1,40,-30,10,1,1504.909581,1504.909581,1504.909581,None,None,2,0,0.6041412,,,,,,,,,,,,,,,,,,,10,20,1,2024-11-27_16h10.03.300,uWM_experiment,2022.2.3,59.99340073
,,,,,,,,,,,,,,,,,,,,0,0,0,0,4,0,4,0,,,,,,,,,,,,,,,,,,,,,,,,,,,,,,,,,,,,,,,,,,,,,,,,,,,,,,,,,,,,,,,,,,,,,,0.015,,,,,,,,,,,,,,,,,,,,,,,,,,,,right,0,70,-30,40,1,1511.426527,1511.426527,1511.426527,None,None,1,1,0.4232421,,,,,,,,,,,,,,,,,,,10,20,1,2024-11-27_16h10.03.300,uWM_experiment,2022.2.3,59.99340073
,,,,,,,,,,,,,,,,,,,,0,0,0,0,5,0,5,0,,,,,,,,,,,,,,,,,,,,,,,,,,,,,,,,,,,,,,,,,,,,,,,,,,,,,,,,,,,,,,,,,,,,,,0.025,,,,,,,,,,,,,,,,,,,,,,,,,,,,right,1,10,30,40,1,1517.810147,1517.810147,1517.810147,None,None,1,1,0.3435853,,,,,,,,,,,,,,,,,,,10,20,1,2024-11-27_16h10.03.300,uWM_experiment,2022.2.3,59.99340073
,,,,,,,,,,,,,,,,,,,,0,0,0,0,6,0,6,0,,,,,,,,,,,,,,,,,,,,,,,,,,,,,,,,,,,,,,,,,,,,,,,,,,,,,,,,,,,,,,,,,,,,,,0,,,,,,,,,,,,,,,,,,,,,,,,,,,,right,1,10,30,40,0,1523.910442,1523.910442,1523.910442,None,None,2,0,0.5072494,,,,,,,,,,,,,,,,,,,10,20,1,2024-11-27_16h10.03.300,uWM_experiment,2022.2.3,59.99340073
,,,,,,,,,,,,,,,,,,,,0,0,0,0,7,0,7,0,,,,,,,,,,,,,,,,,,,,,,,,,,,,,,,,,,,,,,,,,,,,,,,,,,,,,,,,,,,,,,,,,,,,,,0.035,,,,,,,,,,,,,,,,,,,,,,,,,,,,right,1,100,30,130,1,1532.62748,1532.62748,1532.62748,None,None,2,0,1.3422215,,,,,,,,,,,,,,,,,,,10,20,1,2024-11-27_16h10.03.300,uWM_experiment,2022.2.3,59.99340073
,,,,,,,,,,,,,,,,,,,,0,0,0,0,8,0,8,0,,,,,,,,,,,,,,,,,,,,,,,,,,,,,,,,,,,,,,,,,,,,,,,,,,,,,,,,,,,,,,,,,,,,,,0.025,,,,,,,,,,,,,,,,,,,,,,,,,,,,right,0,10,-30,-20,1,1540.277811,1540.277811,1540.277811,None,None,2,0,0.5319743,,,,,,,,,,,,,,,,,,,10,20,1,2024-11-27_16h10.03.300,uWM_experiment,2022.2.3,59.99340073
,,,,,,,,,,,,,,,,,,,,0,0,0,0,9,0,9,0,,,,,,,,,,,,,,,,,,,,,,,,,,,,,,,,,,,,,,,,,,,,,,,,,,,,,,,,,,,,,,,,,,,,,,0.015,,,,,,,,,,,,,,,,,,,,,,,,,,,,left,1,100,-30,70,1,1547.128121,1547.128121,1547.128121,None,None,2,0,1.2256345,,,,,,,,,,,,,,,,,,,10,20,1,2024-11-27_16h10.03.300,uWM_experiment,2022.2.3,59.99340073
,,,,,,,,,,,,,,,,,,,,0,0,0,0,10,0,10,0,,,,,,,,,,,,,,,,,,,,,,,,,,,,,,,,,,,,,,,,,,,,,,,,,,,,,,,,,,,,,,,,,,,,,,0.1,,,,,,,,,,,,,,,,,,,,,,,,,,,,right,1,10,30,40,2,1554.961797,1554.961797,1554.961797,None,None,4,0,1.4078619,,,,,,,,,,,,,,,,,,,10,20,1,2024-11-27_16h10.03.300,uWM_experiment,2022.2.3,59.99340073
,,,,,,,,,,,,,,,,,,,,0,0,0,0,11,0,11,0,,,,,,,,,,,,,,,,,,,,,,,,,,,,,,,,,,,,,,,,,,,,,,,,,,,,,,,,,,,,,,,,,,,,,,0.005,,,,,,,,,,,,,,,,,,,,,,,,,,,,right,0,40,-30,10,1,1562.412151,1562.412151,1562.412151,None,None,2,0,1.0936128,,,,,,,,,,,,,,,,,,,10,20,1,2024-11-27_16h10.03.300,uWM_experiment,2022.2.3,59.99340073
,,,,,,,,,,,,,,,,,,,,0,0,0,0,12,0,12,0,,,,,,,,,,,,,,,,,,,,,,,,,,,,,,,,,,,,,,,,,,,,,,,,,,,,,,,,,,,,,,,,,,,,,,0.005,,,,,,,,,,,,,,,,,,,,,,,,,,,,left,1,130,-30,100,1,1570.295833,1570.295833,1570.295833,None,None,2,0,0.729975,,,,,,,,,,,,,,,,,,,10,20,1,2024-11-27_16h10.03.300,uWM_experiment,2022.2.3,59.99340073
,,,,,,,,,,,,,,,,,,,,0,0,0,0,13,0,13,0,,,,,,,,,,,,,,,,,,,,,,,,,,,,,,,,,,,,,,,,,,,,,,,,,,,,,,,,,,,,,,,,,,,,,,0.005,,,,,,,,,,,,,,,,,,,,,,,,,,,,right,1,40,30,70,1,1576.97945,1576.97945,1576.97945,None,None,2,0,15.6542155,,,,,,,,,,,,,,,,,,,10,20,1,2024-11-27_16h10.03.300,uWM_experiment,2022.2.3,59.99340073
,,,,,,,,,,,,,,,,,,,,0,0,0,0,14,0,14,0,,,,,,,,,,,,,,,,,,,,,,,,,,,,,,,,,,,,,,,,,,,,,,,,,,,,,,,,,,,,,,,,,,,,,,0.005,,,,,,,,,,,,,,,,,,,,,,,,,,,,left,1,10,-30,-20,1,1601.380561,1601.380561,1601.380561,None,None,2,0,1.1492003,,,,,,,,,,,,,,,,,,,10,20,1,2024-11-27_16h10.03.300,uWM_experiment,2022.2.3,59.99340073
,,,,,,,,,,,,,,,,,,,,0,0,0,0,15,0,15,0,,,,,,,,,,,,,,,,,,,,,,,,,,,,,,,,,,,,,,,,,,,,,,,,,,,,,,,,,,,,,,,,,,,,,,0,,,,,,,,,,,,,,,,,,,,,,,,,,,,left,1,70,-30,40,0,1608.247533,1608.247533,1608.247533,None,None,1,1,0.4340983,,,,,,,,,,,,,,,,,,,10,20,1,2024-11-27_16h10.03.300,uWM_experiment,2022.2.3,59.99340073
,,,,,,,,,,,,,,,,,,,,0,0,0,0,16,0,16,0,,,,,,,,,,,,,,,,,,,,,,,,,,,,,,,,,,,,,,,,,,,,,,,,,,,,,,,,,,,,,,,,,,,,,,0.005,,,,,,,,,,,,,,,,,,,,,,,,,,,,left,0,40,30,70,1,1615.497854,1615.497854,1615.497854,None,None,1,1,0.9118722,,,,,,,,,,,,,,,,,,,10,20,1,2024-11-27_16h10.03.300,uWM_experiment,2022.2.3,59.99340073
,,,,,,,,,,,,,,,,,,,,0,0,0,0,17,0,17,0,,,,,,,,,,,,,,,,,,,,,,,,,,,,,,,,,,,,,,,,,,,,,,,,,,,,,,,,,,,,,,,,,,,,,,0.015,,,,,,,,,,,,,,,,,,,,,,,,,,,,right,1,100,30,130,1,1623.28154,1623.28154,1623.28154,None,None,2,0,0.7041369,,,,,,,,,,,,,,,,,,,10,20,1,2024-11-27_16h10.03.300,uWM_experiment,2022.2.3,59.99340073
,,,,,,,,,,,,,,,,,,,,0,0,0,0,18,0,18,0,,,,,,,,,,,,,,,,,,,,,,,,,,,,,,,,,,,,,,,,,,,,,,,,,,,,,,,,,,,,,,,,,,,,,,0,,,,,,,,,,,,,,,,,,,,,,,,,,,,left,1,10,-30,-20,0,1630.031839,1630.031839,1630.031839,None,None,1,1,0.4819215,,,,,,,,,,,,,,,,,,,10,20,1,2024-11-27_16h10.03.300,uWM_experiment,2022.2.3,59.99340073
,,,,,,,,,,,,,,,,,,,,0,0,0,0,19,0,19,0,,,,,,,,,,,,,,,,,,,,,,,,,,,,,,,,,,,,,,,,,,,,,,,,,,,,,,,,,,,,,,,,,,,,,,0,,,,,,,,,,,,,,,,,,,,,,,,,,,,left,1,160,-30,130,0,1636.198785,1636.198785,1636.198785,None,None,1,1,0.3869163,,,,,,,,,,,,,,,,,,,10,20,1,2024-11-27_16h10.03.300,uWM_experiment,2022.2.3,59.99340073
,,,,,,,,,,,,,,,,,,,,0,0,0,0,20,0,20,0,,,,,,,,,,,,,,,,,,,,,,,,,,,,,,,,,,,,,,,,,,,,,,,,,,,,,,,,,,,,,,,,,,,,,,0,,,,,,,,,,,,,,,,,,,,,,,,,,,,right,1,10,30,40,0,1643.049086,1643.049086,1643.049086,None,None,1,1,1.1446775,,,,,,,,,,,,,,,,,,,10,20,1,2024-11-27_16h10.03.300,uWM_experiment,2022.2.3,59.99340073
,,,,,,,,,,,,,,,,,,,,0,0,0,0,21,0,21,0,,,,,,,,,,,,,,,,,,,,,,,,,,,,,,,,,,,,,,,,,,,,,,,,,,,,,,,,,,,,,,,,,,,,,,0.005,,,,,,,,,,,,,,,,,,,,,,,,,,,,left,0,130,30,160,1,1650.482719,1650.482719,1650.482719,None,None,1,1,0.358949,,,,,,,,,,,,,,,,,,,10,20,1,2024-11-27_16h10.03.300,uWM_experiment,2022.2.3,59.99340073
,,,,,,,,,,,,,,,,,,,,0,0,0,0,22,0,22,0,,,,,,,,,,,,,,,,,,,,,,,,,,,,,,,,,,,,,,,,,,,,,,,,,,,,,,,,,,,,,,,,,,,,,,0.015,,,,,,,,,,,,,,,,,,,,,,,,,,,,right,1,130,30,160,1,1656.799689,1656.799689,1656.799689,None,None,1,1,0.5540456,,,,,,,,,,,,,,,,,,,10,20,1,2024-11-27_16h10.03.300,uWM_experiment,2022.2.3,59.99340073
,,,,,,,,,,,,,,,,,,,,0,0,0,0,23,0,23,0,,,,,,,,,,,,,,,,,,,,,,,,,,,,,,,,,,,,,,,,,,,,,,,,,,,,,,,,,,,,,,,,,,,,,,0,,,,,,,,,,,,,,,,,,,,,,,,,,,,right,0,10,-30,-20,0,1663.099996,1663.099996,1663.099996,None,None,1,1,0.397741,,,,,,,,,,,,,,,,,,,10,20,1,2024-11-27_16h10.03.300,uWM_experiment,2022.2.3,59.99340073
,,,,,,,,,,,,,,,,,,,,0,0,0,0,,,,,0,0,0,0,,,,,,,,,,,,,,,,,,,,,,,,,,,,,,,,,,,,,,,,,,,,,,,,,,,,,,,,,,,,,,,,,,,,,,,,,,,,,,,,,,,,,,,,,,,,,,,,,,,,,,,,,,,,1663.516639,1663.516639,space,15.3651214,None,None,,,,,,,,,,,,,10,20,1,2024-11-27_16h10.03.300,uWM_experiment,2022.2.3,59.99340073
,,,,,,,,,,,,,,,,,,,,0,0,0,0,,,,,1,0,1,0,,,,,,,,,,,,,,,,,,,,,,,,,,,,,,,,,,,,,,,,,,,,,,,,,,,,,,,,,,,,,,,,,,,,,,,,,,,,,,,,,,,,,,,,,,,,,,,,,,,,,,,,,,,,,,,,,,,,,,,,,,,,,,10,20,1,2024-11-27_16h10.03.300,uWM_experiment,2022.2.3,59.99340073
,,,,,,,,,,,,,,,,,,,,0,0,0,0,,,,,2,0,2,0,,,,,,,,,,,,,,,,,,,,,,,,,,,,,,,,,,,,,,,,,,,,,,,,,,,,,,,,,,,,,,,,,,,,,,,,,,,,,,,,,,,,,,,,,,,,,,,,,,,,,,,,,,,,,,,,,,,,,,,,,,,,,,10,20,1,2024-11-27_16h10.03.300,uWM_experiment,2022.2.3,59.99340073
,,,,,,,,,,,,,,,,,,,,1,0,1,0,0,0,0,0,,,,,,,,,,,,,,,,,,,,,,,,,,,,,,,,,,,,,,,,,,,,,,,,,,,,,,,,,,,,,,,,,,,,,,0.025,,,,,,,,,,,,,,,,,,,,1678.900671,1679.600722,1679.900704,1680.600747,1680.900775,1681.600804,1681.600804,1681.917494,right,0,100,-30,70,1,1686.917693,1686.917693,1686.917693,None,None,1,1,0.556142,,,,,,,None,,,,,,,,,,,,10,20,1,2024-11-27_16h10.03.300,uWM_experiment,2022.2.3,59.99340073
,,,,,,,,,,,,,,,,,,,,1,0,1,0,1,0,1,0,,,,,,,,,,,,,,,,,,,,,,,,,,,,,,,,,,,,,,,,,,,,,,,,,,,,,,,,,,,,,,,,,,,,,,0.035,,,,,,,,,,,,,,,,,,,,,,,,,,,,left,0,160,30,190,1,1693.851358,1693.851358,1693.851358,None,None,1,1,5.6624374,,,,,,,,,,,,,,,,,,,10,20,1,2024-11-27_16h10.03.300,uWM_experiment,2022.2.3,59.99340073
,,,,,,,,,,,,,,,,,,,,1,0,1,0,2,0,2,0,,,,,,,,,,,,,,,,,,,,,,,,,,,,,,,,,,,,,,,,,,,,,,,,,,,,,,,,,,,,,,,,,,,,,,0,,,,,,,,,,,,,,,,,,,,,,,,,,,,right,0,40,-30,10,0,1705.668558,1705.668558,1705.668558,None,None,1,1,0.6931746,,,,,,,,,,,,,,,,,,,10,20,1,2024-11-27_16h10.03.300,uWM_experiment,2022.2.3,59.99340073
,,,,,,,,,,,,,,,,,,,,1,0,1,0,3,0,3,0,,,,,,,,,,,,,,,,,,,,,,,,,,,,,,,,,,,,,,,,,,,,,,,,,,,,,,,,,,,,,,,,,,,,,,0.045,,,,,,,,,,,,,,,,,,,,,,,,,,,,right,1,100,30,130,1,1712.535518,1712.535518,1712.535518,None,None,1,1,0.4823153,,,,,,,,,,,,,,,,,,,10,20,1,2024-11-27_16h10.03.300,uWM_experiment,2022.2.3,59.99340073
,,,,,,,,,,,,,,,,,,,,1,0,1,0,4,0,4,0,,,,,,,,,,,,,,,,,,,,,,,,,,,,,,,,,,,,,,,,,,,,,,,,,,,,,,,,,,,,,,,,,,,,,,0.1,,,,,,,,,,,,,,,,,,,,,,,,,,,,right,1,40,30,70,2,1723.252658,1723.252658,1723.252658,None,None,4,0,1.7170918,,,,,,,,,,,,,,,,,,,10,20,1,2024-11-27_16h10.03.300,uWM_experiment,2022.2.3,59.99340073
,,,,,,,,,,,,,,,,,,,,1,0,1,0,5,0,5,0,,,,,,,,,,,,,,,,,,,,,,,,,,,,,,,,,,,,,,,,,,,,,,,,,,,,,,,,,,,,,,,,,,,,,,0,,,,,,,,,,,,,,,,,,,,,,,,,,,,left,1,130,-30,100,0,1731.236362,1731.236362,1731.236362,None,None,1,1,1.037326,,,,,,,,,,,,,,,,,,,10,20,1,2024-11-27_16h10.03.300,uWM_experiment,2022.2.3,59.99340073
,,,,,,,,,,,,,,,,,,,,1,0,1,0,6,0,6,0,,,,,,,,,,,,,,,,,,,,,,,,,,,,,,,,,,,,,,,,,,,,,,,,,,,,,,,,,,,,,,,,,,,,,,0.055,,,,,,,,,,,,,,,,,,,,,,,,,,,,right,1,70,30,100,1,1738.870062,1738.870062,1738.870062,None,None,3,0,1.0676107,,,,,,,,,,,,,,,,,,,10,20,1,2024-11-27_16h10.03.300,uWM_experiment,2022.2.3,59.99340073
,,,,,,,,,,,,,,,,,,,,1,0,1,0,7,0,7,0,,,,,,,,,,,,,,,,,,,,,,,,,,,,,,,,,,,,,,,,,,,,,,,,,,,,,,,,,,,,,,,,,,,,,,0.045,,,,,,,,,,,,,,,,,,,,,,,,,,,,right,1,100,30,130,1,1750.970557,1750.970557,1750.970557,None,None,2,0,1.4793007,,,,,,,,,,,,,,,,,,,10,20,1,2024-11-27_16h10.03.300,uWM_experiment,2022.2.3,59.99340073
,,,,,,,,,,,,,,,,,,,,1,0,1,0,8,0,8,0,,,,,,,,,,,,,,,,,,,,,,,,,,,,,,,,,,,,,,,,,,,,,,,,,,,,,,,,,,,,,,,,,,,,,,0.035,,,,,,,,,,,,,,,,,,,,,,,,,,,,left,1,70,-30,40,1,1758.820911,1758.820911,1758.820911,None,None,3,0,0.6769122,,,,,,,,,,,,,,,,,,,10,20,1,2024-11-27_16h10.03.300,uWM_experiment,2022.2.3,59.99340073
,,,,,,,,,,,,,,,,,,,,1,0,1,0,9,0,9,0,,,,,,,,,,,,,,,,,,,,,,,,,,,,,,,,,,,,,,,,,,,,,,,,,,,,,,,,,,,,,,,,,,,,,,0.025,,,,,,,,,,,,,,,,,,,,,,,,,,,,left,0,160,30,190,1,1766.837948,1766.837948,1766.837948,None,None,2,0,0.8999927,,,,,,,,,,,,,,,,,,,10,20,1,2024-11-27_16h10.03.300,uWM_experiment,2022.2.3,59.99340073
,,,,,,,,,,,,,,,,,,,,1,0,1,0,10,0,10,0,,,,,,,,,,,,,,,,,,,,,,,,,,,,,,,,,,,,,,,,,,,,,,,,,,,,,,,,,,,,,,,,,,,,,,0.015,,,,,,,,,,,,,,,,,,,,,,,,,,,,right,1,40,30,70,1,1774.28828,1774.28828,1774.28828,None,None,2,0,1.7935508,,,,,,,,,,,,,,,,,,,10,20,1,2024-11-27_16h10.03.300,uWM_experiment,2022.2.3,59.99340073
,,,,,,,,,,,,,,,,,,,,1,0,1,0,11,0,11,0,,,,,,,,,,,,,,,,,,,,,,,,,,,,,,,,,,,,,,,,,,,,,,,,,,,,,,,,,,,,,,,,,,,,,,0.005,,,,,,,,,,,,,,,,,,,,,,,,,,,,right,1,100,30,130,1,1782.455299,1782.455299,1782.455299,None,None,1,1,1.322527,,,,,,,,,,,,,,,,,,,10,20,1,2024-11-27_16h10.03.300,uWM_experiment,2022.2.3,59.99340073
,,,,,,,,,,,,,,,,,,,,1,0,1,0,12,0,12,0,,,,,,,,,,,,,,,,,,,,,,,,,,,,,,,,,,,,,,,,,,,,,,,,,,,,,,,,,,,,,,,,,,,,,,0,,,,,,,,,,,,,,,,,,,,,,,,,,,,left,1,70,-30,40,0,1790.205642,1790.205642,1790.205642,None,None,1,1,0.7322101,,,,,,,,,,,,,,,,,,,10,20,1,2024-11-27_16h10.03.300,uWM_experiment,2022.2.3,59.99340073
,,,,,,,,,,,,,,,,,,,,1,0,1,0,13,0,13,0,,,,,,,,,,,,,,,,,,,,,,,,,,,,,,,,,,,,,,,,,,,,,,,,,,,,,,,,,,,,,,,,,,,,,,0.015,,,,,,,,,,,,,,,,,,,,,,,,,,,,left,1,40,-30,10,1,1797.572642,1797.572642,1797.572642,None,None,2,0,3.1010905,,,,,,,,,,,,,,,,,,,10,20,1,2024-11-27_16h10.03.300,uWM_experiment,2022.2.3,59.99340073
,,,,,,,,,,,,,,,,,,,,1,0,1,0,14,0,14,0,,,,,,,,,,,,,,,,,,,,,,,,,,,,,,,,,,,,,,,,,,,,,,,,,,,,,,,,,,,,,,,,,,,,,,0.005,,,,,,,,,,,,,,,,,,,,,,,,,,,,right,1,130,30,160,1,1808.489806,1808.489806,1808.489806,None,None,1,1,1.9039474,,,,,,,,,,,,,,,,,,,10,20,1,2024-11-27_16h10.03.300,uWM_experiment,2022.2.3,59.99340073
,,,,,,,,,,,,,,,,,,,,1,0,1,0,15,0,15,0,,,,,,,,,,,,,,,,,,,,,,,,,,,,,,,,,,,,,,,,,,,,,,,,,,,,,,,,,,,,,,,,,,,,,,0.015,,,,,,,,,,,,,,,,,,,,,,,,,,,,right,1,70,30,100,1,1816.740174,1816.740174,1816.740174,None,None,1,1,15.1737785,,,,,,,,,,,,,,,,,,,10,20,1,2024-11-27_16h10.03.300,uWM_experiment,2022.2.3,59.99340073
,,,,,,,,,,,,,,,,,,,,1,0,1,0,16,0,16,0,,,,,,,,,,,,,,,,,,,,,,,,,,,,,,,,,,,,,,,,,,,,,,,,,,,,,,,,,,,,,,,,,,,,,,0.1,,,,,,,,,,,,,,,,,,,,,,,,,,,,right,1,130,30,160,2,1838.491147,1838.491147,1838.491147,None,None,4,0,0.6385956,,,,,,,,,,,,,,,,,,,10,20,1,2024-11-27_16h10.03.300,uWM_experiment,2022.2.3,59.99340073
,,,,,,,,,,,,,,,,,,,,1,0,1,0,17,0,17,0,,,,,,,,,,,,,,,,,,,,,,,,,,,,,,,,,,,,,,,,,,,,,,,,,,,,,,,,,,,,,,,,,,,,,,0.025,,,,,,,,,,,,,,,,,,,,,,,,,,,,left,1,100,-30,70,1,1849.091623,1849.091623,1849.091623,None,None,2,0,1.4541305,,,,,,,,,,,,,,,,,,,10,20,1,2024-11-27_16h10.03.300,uWM_experiment,2022.2.3,59.99340073
,,,,,,,,,,,,,,,,,,,,1,0,1,0,18,0,18,0,,,,,,,,,,,,,,,,,,,,,,,,,,,,,,,,,,,,,,,,,,,,,,,,,,,,,,,,,,,,,,,,,,,,,,0.015,,,,,,,,,,,,,,,,,,,,,,,,,,,,left,0,100,30,130,1,1856.341955,1856.341955,1856.341955,None,None,1,1,0.4279791,,,,,,,,,,,,,,,,,,,10,20,1,2024-11-27_16h10.03.300,uWM_experiment,2022.2.3,59.99340073
,,,,,,,,,,,,,,,,,,,,1,0,1,0,19,0,19,0,,,,,,,,,,,,,,,,,,,,,,,,,,,,,,,,,,,,,,,,,,,,,,,,,,,,,,,,,,,,,,,,,,,,,,0.025,,,,,,,,,,,,,,,,,,,,,,,,,,,,right,1,40,30,70,1,1862.442228,1862.442228,1862.442228,None,None,2,0,0.2396786,,,,,,,,,,,,,,,,,,,10,20,1,2024-11-27_16h10.03.300,uWM_experiment,2022.2.3,59.99340073
,,,,,,,,,,,,,,,,,,,,1,0,1,0,20,0,20,0,,,,,,,,,,,,,,,,,,,,,,,,,,,,,,,,,,,,,,,,,,,,,,,,,,,,,,,,,,,,,,,,,,,,,,0.1,,,,,,,,,,,,,,,,,,,,,,,,,,,,left,0,40,30,70,2,1872.842687,1872.842687,1872.842687,None,None,3,0,1.5832398,,,,,,,,,,,,,,,,,,,10,20,1,2024-11-27_16h10.03.300,uWM_experiment,2022.2.3,59.99340073
,,,,,,,,,,,,,,,,,,,,1,0,1,0,21,0,21,0,,,,,,,,,,,,,,,,,,,,,,,,,,,,,,,,,,,,,,,,,,,,,,,,,,,,,,,,,,,,,,,,,,,,,,0,,,,,,,,,,,,,,,,,,,,,,,,,,,,left,1,100,-30,70,0,1880.542984,1880.542984,1880.542984,None,None,1,1,0.5548277,,,,,,,,,,,,,,,,,,,10,20,1,2024-11-27_16h10.03.300,uWM_experiment,2022.2.3,59.99340073
,,,,,,,,,,,,,,,,,,,,1,0,1,0,22,0,22,0,,,,,,,,,,,,,,,,,,,,,,,,,,,,,,,,,,,,,,,,,,,,,,,,,,,,,,,,,,,,,,,,,,,,,,0.015,,,,,,,,,,,,,,,,,,,,,,,,,,,,right,0,70,-30,40,1,1887.176664,1887.176664,1887.176664,None,None,1,1,0.5291608,,,,,,,,,,,,,,,,,,,10,20,1,2024-11-27_16h10.03.300,uWM_experiment,2022.2.3,59.99340073
,,,,,,,,,,,,,,,,,,,,1,0,1,0,23,0,23,0,,,,,,,,,,,,,,,,,,,,,,,,,,,,,,,,,,,,,,,,,,,,,,,,,,,,,,,,,,,,,,,,,,,,,,0.025,,,,,,,,,,,,,,,,,,,,,,,,,,,,left,0,100,30,130,1,1894.310319,1894.310319,1894.310319,None,None,1,1,0.667553,,,,,,,,,,,,,,,,,,,10,20,1,2024-11-27_16h10.03.300,uWM_experiment,2022.2.3,59.99340073
,,,,,,,,,,,,,,,,,,,,1,0,1,0,,,,,0,0,0,0,,,,,,,,,,,,,,,,,,,,,,,,,,,,,,,,,,,,,,,,,,,,,,,,,,,,,,,,,,,,,,,,,,,,,,,,,,,,,,,,,,,,,,,,,,,,,,,,,,,,,,,,,,,,1895.010312,1895.010312,space,16.1916847,None,None,,,,,,,,,,,,,10,20,1,2024-11-27_16h10.03.300,uWM_experiment,2022.2.3,59.99340073
,,,,,,,,,,,,,,,,,,,,1,0,1,0,,,,,1,0,1,0,,,,,,,,,,,,,,,,,,,,,,,,,,,,,,,,,,,,,,,,,,,,,,,,,,,,,,,,,,,,,,,,,,,,,,,,,,,,,,,,,,,,,,,,,,,,,,,,,,,,,,,,,,,,,,,,,,,,,,,,,,,,,,10,20,1,2024-11-27_16h10.03.300,uWM_experiment,2022.2.3,59.99340073
,,,,,,,,,,,,,,,,,,,,1,0,1,0,,,,,2,0,2,0,,,,,,,,,,,,,,,,,,,,,,,,,,,,,,,,,,,,,,,,,,,,,,,,,,,,,,,,,,,,,,,,,,,,,,,,,,,,,,,,,,,,,,,,,,,,,,,,,,,,,,,,,,,,,,,,,,,,,,,,,,,,,,10,20,1,2024-11-27_16h10.03.300,uWM_experiment,2022.2.3,59.99340073
,,,,,,,,,,,,,,,,,,,,2,0,2,0,0,0,0,0,,,,,,,,,,,,,,,,,,,,,,,,,,,,,,,,,,,,,,,,,,,,,,,,,,,,,,,,,,,,,,,,,,,,,,0.035,,,,,,,,,,,,,,,,,,,,1911.227718,1911.927744,1912.227756,1912.927789,1913.227805,1913.927834,1913.927834,1914.244514,right,1,130,30,160,1,1921.044835,1921.044835,1921.044835,None,None,3,0,1.1650953,,,,,,,None,,,,,,,,,,,,10,20,1,2024-11-27_16h10.03.300,uWM_experiment,2022.2.3,59.99340073
,,,,,,,,,,,,,,,,,,,,2,0,2,0,1,0,1,0,,,,,,,,,,,,,,,,,,,,,,,,,,,,,,,,,,,,,,,,,,,,,,,,,,,,,,,,,,,,,,,,,,,,,,0.025,,,,,,,,,,,,,,,,,,,,,,,,,,,,left,0,70,30,100,1,1928.511825,1928.511825,1928.511825,None,None,2,0,0.5539724,,,,,,,,,,,,,,,,,,,10,20,1,2024-11-27_16h10.03.300,uWM_experiment,2022.2.3,59.99340073
,,,,,,,,,,,,,,,,,,,,2,0,2,0,2,0,2,0,,,,,,,,,,,,,,,,,,,,,,,,,,,,,,,,,,,,,,,,,,,,,,,,,,,,,,,,,,,,,,,,,,,,,,0.015,,,,,,,,,,,,,,,,,,,,,,,,,,,,left,1,160,-30,130,1,1934.678787,1934.678787,1934.678787,None,None,2,0,0.4030135,,,,,,,,,,,,,,,,,,,10,20,1,2024-11-27_16h10.03.300,uWM_experiment,2022.2.3,59.99340073
,,,,,,,,,,,,,,,,,,,,2,0,2,0,3,0,3,0,,,,,,,,,,,,,,,,,,,,,,,,,,,,,,,,,,,,,,,,,,,,,,,,,,,,,,,,,,,,,,,,,,,,,,0.005,,,,,,,,,,,,,,,,,,,,,,,,,,,,left,1,40,-30,10,1,1941.079059,1941.079059,1941.079059,None,None,1,1,0.7149317,,,,,,,,,,,,,,,,,,,10,20,1,2024-11-27_16h10.03.300,uWM_experiment,2022.2.3,59.99340073
,,,,,,,,,,,,,,,,,,,,2,0,2,0,4,0,4,0,,,,,,,,,,,,,,,,,,,,,,,,,,,,,,,,,,,,,,,,,,,,,,,,,,,,,,,,,,,,,,,,,,,,,,0.015,,,,,,,,,,,,,,,,,,,,,,,,,,,,right,0,40,-30,10,1,1947.712668,1947.712668,1947.712668,None,None,1,1,0.4171463,,,,,,,,,,,,,,,,,,,10,20,1,2024-11-27_16h10.03.300,uWM_experiment,2022.2.3,59.99340073
,,,,,,,,,,,,,,,,,,,,2,0,2,0,5,0,5,0,,,,,,,,,,,,,,,,,,,,,,,,,,,,,,,,,,,,,,,,,,,,,,,,,,,,,,,,,,,,,,,,,,,,,,0.025,,,,,,,,,,,,,,,,,,,,,,,,,,,,right,1,130,30,160,1,1953.879653,1953.879653,1953.879653,None,None,1,1,0.2421602,,,,,,,,,,,,,,,,,,,10,20,1,2024-11-27_16h10.03.300,uWM_experiment,2022.2.3,59.99340073
,,,,,,,,,,,,,,,,,,,,2,0,2,0,6,0,6,0,,,,,,,,,,,,,,,,,,,,,,,,,,,,,,,,,,,,,,,,,,,,,,,,,,,,,,,,,,,,,,,,,,,,,,0.035,,,,,,,,,,,,,,,,,,,,,,,,,,,,left,0,10,30,40,1,1961.679975,1961.679975,1961.679975,None,None,2,0,1.9940259,,,,,,,,,,,,,,,,,,,10,20,1,2024-11-27_16h10.03.300,uWM_experiment,2022.2.3,59.99340073
,,,,,,,,,,,,,,,,,,,,2,0,2,0,7,0,7,0,,,,,,,,,,,,,,,,,,,,,,,,,,,,,,,,,,,,,,,,,,,,,,,,,,,,,,,,,,,,,,,,,,,,,,0.025,,,,,,,,,,,,,,,,,,,,,,,,,,,,left,0,40,30,70,1,1971.913802,1971.913802,1971.913802,None,None,3,0,1.4801985,,,,,,,,,,,,,,,,,,,10,20,1,2024-11-27_16h10.03.300,uWM_experiment,2022.2.3,59.99340073
,,,,,,,,,,,,,,,,,,,,2,0,2,0,8,0,8,0,,,,,,,,,,,,,,,,,,,,,,,,,,,,,,,,,,,,,,,,,,,,,,,,,,,,,,,,,,,,,,,,,,,,,,0,,,,,,,,,,,,,,,,,,,,,,,,,,,,right,1,70,30,100,0,1979.747464,1979.747464,1979.747464,None,None,1,1,0.8543616,,,,,,,,,,,,,,,,,,,10,20,1,2024-11-27_16h10.03.300,uWM_experiment,2022.2.3,59.99340073
,,,,,,,,,,,,,,,,,,,,2,0,2,0,9,0,9,0,,,,,,,,,,,,,,,,,,,,,,,,,,,,,,,,,,,,,,,,,,,,,,,,,,,,,,,,,,,,,,,,,,,,,,0.015,,,,,,,,,,,,,,,,,,,,,,,,,,,,left,1,10,-30,-20,1,1987.781155,1987.781155,1987.781155,None,None,1,1,6.1807639,,,,,,,,,,,,,,,,,,,10,20,1,2024-11-27_16h10.03.300,uWM_experiment,2022.2.3,59.99340073
,,,,,,,,,,,,,,,,,,,,2,0,2,0,10,0,10,0,,,,,,,,,,,,,,,,,,,,,,,,,,,,,,,,,,,,,,,,,,,,,,,,,,,,,,,,,,,,,,,,,,,,,,0.025,,,,,,,,,,,,,,,,,,,,,,,,,,,,left,0,10,30,40,1,1999.865011,1999.865011,1999.865011,None,None,1,1,0.3848999,,,,,,,,,,,,,,,,,,,10,20,1,2024-11-27_16h10.03.300,uWM_experiment,2022.2.3,59.99340073
,,,,,,,,,,,,,,,,,,,,2,0,2,0,11,0,11,0,,,,,,,,,,,,,,,,,,,,,,,,,,,,,,,,,,,,,,,,,,,,,,,,,,,,,,,,,,,,,,,,,,,,,,0,,,,,,,,,,,,,,,,,,,,,,,,,,,,right,1,160,30,190,0,2006.248653,2006.248653,2006.248653,None,None,1,1,0.4413019,,,,,,,,,,,,,,,,,,,10,20,1,2024-11-27_16h10.03.300,uWM_experiment,2022.2.3,59.99340073
,,,,,,,,,,,,,,,,,,,,2,0,2,0,12,0,12,0,,,,,,,,,,,,,,,,,,,,,,,,,,,,,,,,,,,,,,,,,,,,,,,,,,,,,,,,,,,,,,,,,,,,,,0,,,,,,,,,,,,,,,,,,,,,,,,,,,,left,1,160,-30,130,0,2012.198891,2012.198891,2012.198891,None,None,1,1,0.4590698,,,,,,,,,,,,,,,,,,,10,20,1,2024-11-27_16h10.03.300,uWM_experiment,2022.2.3,59.99340073
,,,,,,,,,,,,,,,,,,,,2,0,2,0,13,0,13,0,,,,,,,,,,,,,,,,,,,,,,,,,,,,,,,,,,,,,,,,,,,,,,,,,,,,,,,,,,,,,,,,,,,,,,0.1,,,,,,,,,,,,,,,,,,,,,,,,,,,,right,0,160,-30,130,2,2024.132757,2024.132757,2024.132757,None,None,4,0,1.8530897,,,,,,,,,,,,,,,,,,,10,20,1,2024-11-27_16h10.03.300,uWM_experiment,2022.2.3,59.99340073
,,,,,,,,,,,,,,,,,,,,2,0,2,0,14,0,14,0,,,,,,,,,,,,,,,,,,,,,,,,,,,,,,,,,,,,,,,,,,,,,,,,,,,,,,,,,,,,,,,,,,,,,,0.035,,,,,,,,,,,,,,,,,,,,,,,,,,,,left,1,10,-30,-20,1,2033.116492,2033.116492,2033.116492,None,None,1,1,1.1734588,,,,,,,,,,,,,,,,,,,10,20,1,2024-11-27_16h10.03.300,uWM_experiment,2022.2.3,59.99340073
,,,,,,,,,,,,,,,,,,,,2,0,2,0,15,0,15,0,,,,,,,,,,,,,,,,,,,,,,,,,,,,,,,,,,,,,,,,,,,,,,,,,,,,,,,,,,,,,,,,,,,,,,0.045,,,,,,,,,,,,,,,,,,,,,,,,,,,,right,1,70,30,100,1,2042.500243,2042.500243,2042.500243,None,None,2,0,1.3817694,,,,,,,,,,,,,,,,,,,10,20,1,2024-11-27_16h10.03.300,uWM_experiment,2022.2.3,59.99340073
,,,,,,,,,,,,,,,,,,,,2,0,2,0,16,0,16,0,,,,,,,,,,,,,,,,,,,,,,,,,,,,,,,,,,,,,,,,,,,,,,,,,,,,,,,,,,,,,,,,,,,,,,0.035,,,,,,,,,,,,,,,,,,,,,,,,,,,,right,1,160,30,190,1,2050.550626,2050.550626,2050.550626,None,None,3,0,2.0192323,,,,,,,,,,,,,,,,,,,10,20,1,2024-11-27_16h10.03.300,uWM_experiment,2022.2.3,59.99340073
,,,,,,,,,,,,,,,,,,,,2,0,2,0,17,0,17,0,,,,,,,,,,,,,,,,,,,,,,,,,,,,,,,,,,,,,,,,,,,,,,,,,,,,,,,,,,,,,,,,,,,,,,0.025,,,,,,,,,,,,,,,,,,,,,,,,,,,,left,1,70,-30,40,1,2059.917716,2059.917716,2059.917716,None,None,1,1,0.5642402,,,,,,,,,,,,,,,,,,,10,20,1,2024-11-27_16h10.03.300,uWM_experiment,2022.2.3,59.99340073
,,,,,,,,,,,,,,,,,,,,2,0,2,0,18,0,18,0,,,,,,,,,,,,,,,,,,,,,,,,,,,,,,,,,,,,,,,,,,,,,,,,,,,,,,,,,,,,,,,,,,,,,,0.035,,,,,,,,,,,,,,,,,,,,,,,,,,,,left,1,10,-30,-20,1,2069.301473,2069.301473,2069.301473,None,None,2,0,1.1645425,,,,,,,,,,,,,,,,,,,10,20,1,2024-11-27_16h10.03.300,uWM_experiment,2022.2.3,59.99340073
,,,,,,,,,,,,,,,,,,,,2,0,2,0,19,0,19,0,,,,,,,,,,,,,,,,,,,,,,,,,,,,,,,,,,,,,,,,,,,,,,,,,,,,,,,,,,,,,,,,,,,,,,0.025,,,,,,,,,,,,,,,,,,,,,,,,,,,,left,0,100,30,130,1,2080.218598,2080.218598,2080.218598,None,None,1,1,0.1753146,,,,,,,,,,,,,,,,,,,10,20,1,2024-11-27_16h10.03.300,uWM_experiment,2022.2.3,59.99340073
,,,,,,,,,,,,,,,,,,,,2,0,2,0,20,0,20,0,,,,,,,,,,,,,,,,,,,,,,,,,,,,,,,,,,,,,,,,,,,,,,,,,,,,,,,,,,,,,,,,,,,,,,0.035,,,,,,,,,,,,,,,,,,,,,,,,,,,,left,0,130,30,160,1,2086.068879,2086.068879,2086.068879,None,None,1,1,0.2450456,,,,,,,,,,,,,,,,,,,10,20,1,2024-11-27_16h10.03.300,uWM_experiment,2022.2.3,59.99340073
,,,,,,,,,,,,,,,,,,,,2,0,2,0,21,0,21,0,,,,,,,,,,,,,,,,,,,,,,,,,,,,,,,,,,,,,,,,,,,,,,,,,,,,,,,,,,,,,,,,,,,,,,0,,,,,,,,,,,,,,,,,,,,,,,,,,,,left,1,160,-30,130,0,2092.469137,2092.469137,2092.469137,None,None,1,1,0.468757,,,,,,,,,,,,,,,,,,,10,20,1,2024-11-27_16h10.03.300,uWM_experiment,2022.2.3,59.99340073
,,,,,,,,,,,,,,,,,,,,2,0,2,0,22,0,22,0,,,,,,,,,,,,,,,,,,,,,,,,,,,,,,,,,,,,,,,,,,,,,,,,,,,,,,,,,,,,,,,,,,,,,,0.045,,,,,,,,,,,,,,,,,,,,,,,,,,,,left,1,100,-30,70,1,2098.819424,2098.819424,2098.819424,None,None,1,1,0.7426377,,,,,,,,,,,,,,,,,,,10,20,1,2024-11-27_16h10.03.300,uWM_experiment,2022.2.3,59.99340073
,,,,,,,,,,,,,,,,,,,,2,0,2,0,23,0,23,0,,,,,,,,,,,,,,,,,,,,,,,,,,,,,,,,,,,,,,,,,,,,,,,,,,,,,,,,,,,,,,,,,,,,,,0.055,,,,,,,,,,,,,,,,,,,,,,,,,,,,right,1,100,30,130,1,2106.503129,2106.503129,2106.503129,None,None,3,0,1.1949263,,,,,,,,,,,,,,,,,,,10,20,1,2024-11-27_16h10.03.300,uWM_experiment,2022.2.3,59.99340073
,,,,,,,,,,,,,,,,,,,,2,0,2,0,,,,,0,0,0,0,,,,,,,,,,,,,,,,,,,,,,,,,,,,,,,,,,,,,,,,,,,,,,,,,,,,,,,,,,,,,,,,,,,,,,,,,,,,,,,,,,,,,,,,,,,,,,,,,,,,,,,,,,,,2107.71982,2107.71982,space,34.8501556,space,None,,2142.588063,2142.588063,36.597905,,,,,,,,,10,20,1,2024-11-27_16h10.03.300,uWM_experiment,2022.2.3,59.99340073
,,,,,,,,,,,,,,,,,,,,2,0,2,0,,,,,1,0,1,0,,,,,,,,,,,,,,,,,,,,,,,,,,,,,,,,,,,,,,,,,,,,,,,,,,,,,,,,,,,,,,,,,,,,,,,,,,,,,,,,,,,,,,,,,,,,,,,,,,,,,,,,,,,,,,,,,,,,,,,,,,,,,,10,20,1,2024-11-27_16h10.03.300,uWM_experiment,2022.2.3,59.99340073
,,,,,,,,,,,,,,,,,,,,2,0,2,0,,,,,2,0,2,0,,,,,,,,,,,,,,,,,,,,,,,,,,,,,,,,,,,,,,,,,,,,,,,,,,,,,,,,,,,,,,,,,,,,,,,,,,,,,,,,,,,,,,,,,,,,,,,,,,,,,,,,,,,,,,,,,,,,,,,,,,,,,,10,20,1,2024-11-27_16h10.03.300,uWM_experiment,2022.2.3,59.99340073
,,,,,,,,,,,,,,,,,,,,3,0,3,0,0,0,0,0,,,,,,,,,,,,,,,,,,,,,,,,,,,,,,,,,,,,,,,,,,,,,,,,,,,,,,,,,,,,,,,,,,,,,,0.045,,,,,,,,,,,,,,,,,,,,2179.206356,2179.906386,2180.206399,2180.906431,2181.206444,2181.906472,2181.906472,2182.223181,right,1,40,30,70,1,2187.723391,2187.723391,2187.723391,None,None,2,0,1.4226581,,,,,,,None,,,,,,,,,,,,10,20,1,2024-11-27_16h10.03.300,uWM_experiment,2022.2.3,59.99340073
,,,,,,,,,,,,,,,,,,,,3,0,3,0,1,0,1,0,,,,,,,,,,,,,,,,,,,,,,,,,,,,,,,,,,,,,,,,,,,,,,,,,,,,,,,,,,,,,,,,,,,,,,0.035,,,,,,,,,,,,,,,,,,,,,,,,,,,,left,0,160,30,190,1,2195.807109,2195.807109,2195.807109,None,None,1,1,0.4109458,,,,,,,,,,,,,,,,,,,10,20,1,2024-11-27_16h10.03.300,uWM_experiment,2022.2.3,59.99340073
,,,,,,,,,,,,,,,,,,,,3,0,3,0,2,0,2,0,,,,,,,,,,,,,,,,,,,,,,,,,,,,,,,,,,,,,,,,,,,,,,,,,,,,,,,,,,,,,,,,,,,,,,0.045,,,,,,,,,,,,,,,,,,,,,,,,,,,,left,0,10,30,40,1,2201.974063,2201.974063,2201.974063,None,None,1,1,0.3878575,,,,,,,,,,,,,,,,,,,10,20,1,2024-11-27_16h10.03.300,uWM_experiment,2022.2.3,59.99340073
,,,,,,,,,,,,,,,,,,,,3,0,3,0,3,0,3,0,,,,,,,,,,,,,,,,,,,,,,,,,,,,,,,,,,,,,,,,,,,,,,,,,,,,,,,,,,,,,,,,,,,,,,0.055,,,,,,,,,,,,,,,,,,,,,,,,,,,,left,1,70,-30,40,1,2208.907704,2208.907704,2208.907704,None,None,2,0,1.1662955,,,,,,,,,,,,,,,,,,,10,20,1,2024-11-27_16h10.03.300,uWM_experiment,2022.2.3,59.99340073
,,,,,,,,,,,,,,,,,,,,3,0,3,0,4,0,4,0,,,,,,,,,,,,,,,,,,,,,,,,,,,,,,,,,,,,,,,,,,,,,,,,,,,,,,,,,,,,,,,,,,,,,,0.045,,,,,,,,,,,,,,,,,,,,,,,,,,,,left,1,40,-30,10,1,2216.958046,2216.958046,2216.958046,None,None,2,0,0.5320473,,,,,,,,,,,,,,,,,,,10,20,1,2024-11-27_16h10.03.300,uWM_experiment,2022.2.3,59.99340073
,,,,,,,,,,,,,,,,,,,,3,0,3,0,5,0,5,0,,,,,,,,,,,,,,,,,,,,,,,,,,,,,,,,,,,,,,,,,,,,,,,,,,,,,,,,,,,,,,,,,,,,,,0,,,,,,,,,,,,,,,,,,,,,,,,,,,,left,0,10,30,40,0,2225.625137,2225.625137,2225.625137,None,None,2,0,1.4489684,,,,,,,,,,,,,,,,,,,10,20,1,2024-11-27_16h10.03.300,uWM_experiment,2022.2.3,59.99340073
,,,,,,,,,,,,,,,,,,,,3,0,3,0,6,0,6,0,,,,,,,,,,,,,,,,,,,,,,,,,,,,,,,,,,,,,,,,,,,,,,,,,,,,,,,,,,,,,,,,,,,,,,0.035,,,,,,,,,,,,,,,,,,,,,,,,,,,,right,1,160,30,190,1,2232.825439,2232.825439,2232.825439,None,None,1,1,0.2246557,,,,,,,,,,,,,,,,,,,10,20,1,2024-11-27_16h10.03.300,uWM_experiment,2022.2.3,59.99340073
,,,,,,,,,,,,,,,,,,,,3,0,3,0,7,0,7,0,,,,,,,,,,,,,,,,,,,,,,,,,,,,,,,,,,,,,,,,,,,,,,,,,,,,,,,,,,,,,,,,,,,,,,0.045,,,,,,,,,,,,,,,,,,,,,,,,,,,,left,1,70,-30,40,1,2239.425719,2239.425719,2239.425719,None,None,3,0,1.6722424,,,,,,,,,,,,,,,,,,,10,20,1,2024-11-27_16h10.03.300,uWM_experiment,2022.2.3,59.99340073
,,,,,,,,,,,,,,,,,,,,3,0,3,0,8,0,8,0,,,,,,,,,,,,,,,,,,,,,,,,,,,,,,,,,,,,,,,,,,,,,,,,,,,,,,,,,,,,,,,,,,,,,,0.035,,,,,,,,,,,,,,,,,,,,,,,,,,,,left,1,10,-30,-20,1,2254.093151,2254.093151,2254.093151,None,None,1,1,0.5329585,,,,,,,,,,,,,,,,,,,10,20,1,2024-11-27_16h10.03.300,uWM_experiment,2022.2.3,59.99340073
,,,,,,,,,,,,,,,,,,,,3,0,3,0,9,0,9,0,,,,,,,,,,,,,,,,,,,,,,,,,,,,,,,,,,,,,,,,,,,,,,,,,,,,,,,,,,,,,,,,,,,,,,0.045,,,,,,,,,,,,,,,,,,,,,,,,,,,,left,1,130,-30,100,1,2267.293627,2267.293627,2267.293627,None,None,2,0,1.4363411,,,,,,,,,,,,,,,,,,,10,20,1,2024-11-27_16h10.03.300,uWM_experiment,2022.2.3,59.99340073
,,,,,,,,,,,,,,,,,,,,3,0,3,0,10,0,10,0,,,,,,,,,,,,,,,,,,,,,,,,,,,,,,,,,,,,,,,,,,,,,,,,,,,,,,,,,,,,,,,,,,,,,,0.035,,,,,,,,,,,,,,,,,,,,,,,,,,,,right,0,100,-30,70,1,2276.560697,2276.560697,2276.560697,None,None,1,1,1.4734303,,,,,,,,,,,,,,,,,,,10,20,1,2024-11-27_16h10.03.300,uWM_experiment,2022.2.3,59.99340073
,,,,,,,,,,,,,,,,,,,,3,0,3,0,11,0,11,0,,,,,,,,,,,,,,,,,,,,,,,,,,,,,,,,,,,,,,,,,,,,,,,,,,,,,,,,,,,,,,,,,,,,,,0,,,,,,,,,,,,,,,,,,,,,,,,,,,,left,1,40,-30,10,0,2284.577737,2284.577737,2284.577737,None,None,1,1,0.8643562,,,,,,,,,,,,,,,,,,,10,20,1,2024-11-27_16h10.03.300,uWM_experiment,2022.2.3,59.99340073
,,,,,,,,,,,,,,,,,,,,3,0,3,0,12,0,12,0,,,,,,,,,,,,,,,,,,,,,,,,,,,,,,,,,,,,,,,,,,,,,,,,,,,,,,,,,,,,,,,,,,,,,,0.045,,,,,,,,,,,,,,,,,,,,,,,,,,,,right,1,70,30,100,1,2293.028224,2293.028224,2293.028224,None,None,1,1,1.9738437,,,,,,,,,,,,,,,,,,,10,20,1,2024-11-27_16h10.03.300,uWM_experiment,2022.2.3,59.99340073
,,,,,,,,,,,,,,,,,,,,3,0,3,0,13,0,13,0,,,,,,,,,,,,,,,,,,,,,,,,,,,,,,,,,,,,,,,,,,,,,,,,,,,,,,,,,,,,,,,,,,,,,,0.055,,,,,,,,,,,,,,,,,,,,,,,,,,,,right,0,130,-30,100,1,2302.228547,2302.228547,2302.228547,None,None,1,1,21.0135699,,,,,,,,,,,,,,,,,,,10,20,1,2024-11-27_16h10.03.300,uWM_experiment,2022.2.3,59.99340073
,,,,,,,,,,,,,,,,,,,,3,0,3,0,14,0,14,0,,,,,,,,,,,,,,,,,,,,,,,,,,,,,,,,,,,,,,,,,,,,,,,,,,,,,,,,,,,,,,,,,,,,,,0.065,,,,,,,,,,,,,,,,,,,,,,,,,,,,right,1,130,30,160,1,2335.480024,2335.480024,2335.480024,None,None,1,1,1.2501072,,,,,,,,,,,,,,,,,,,10,20,1,2024-11-27_16h10.03.300,uWM_experiment,2022.2.3,59.99340073
,,,,,,,,,,,,,,,,,,,,3,0,3,0,15,0,15,0,,,,,,,,,,,,,,,,,,,,,,,,,,,,,,,,,,,,,,,,,,,,,,,,,,,,,,,,,,,,,,,,,,,,,,0.1,,,,,,,,,,,,,,,,,,,,,,,,,,,,left,1,70,-30,40,2,2343.763699,2343.763699,2343.763699,None,None,4,0,0.9664265,,,,,,,,,,,,,,,,,,,10,20,1,2024-11-27_16h10.03.300,uWM_experiment,2022.2.3,59.99340073
,,,,,,,,,,,,,,,,,,,,3,0,3,0,16,0,16,0,,,,,,,,,,,,,,,,,,,,,,,,,,,,,,,,,,,,,,,,,,,,,,,,,,,,,,,,,,,,,,,,,,,,,,0.075,,,,,,,,,,,,,,,,,,,,,,,,,,,,left,0,10,30,40,1,2351.564053,2351.564053,2351.564053,None,None,2,0,2.0699512,,,,,,,,,,,,,,,,,,,10,20,1,2024-11-27_16h10.03.300,uWM_experiment,2022.2.3,59.99340073
,,,,,,,,,,,,,,,,,,,,3,0,3,0,17,0,17,0,,,,,,,,,,,,,,,,,,,,,,,,,,,,,,,,,,,,,,,,,,,,,,,,,,,,,,,,,,,,,,,,,,,,,,0,,,,,,,,,,,,,,,,,,,,,,,,,,,,right,0,130,-30,100,0,2360.197779,2360.197779,2360.197779,None,None,2,0,1.2763547,,,,,,,,,,,,,,,,,,,10,20,1,2024-11-27_16h10.03.300,uWM_experiment,2022.2.3,59.99340073
,,,,,,,,,,,,,,,,,,,,3,0,3,0,18,0,18,0,,,,,,,,,,,,,,,,,,,,,,,,,,,,,,,,,,,,,,,,,,,,,,,,,,,,,,,,,,,,,,,,,,,,,,0.065,,,,,,,,,,,,,,,,,,,,,,,,,,,,left,1,40,-30,10,1,2368.631495,2368.631495,2368.631495,None,None,3,0,7.2266782,,,,,,,,,,,,,,,,,,,10,20,1,2024-11-27_16h10.03.300,uWM_experiment,2022.2.3,59.99340073
,,,,,,,,,,,,,,,,,,,,3,0,3,0,19,0,19,0,,,,,,,,,,,,,,,,,,,,,,,,,,,,,,,,,,,,,,,,,,,,,,,,,,,,,,,,,,,,,,,,,,,,,,0,,,,,,,,,,,,,,,,,,,,,,,,,,,,right,1,10,30,40,0,2382.232106,2382.232106,2382.232106,None,None,2,0,1.0980446,,,,,,,,,,,,,,,,,,,10,20,1,2024-11-27_16h10.03.300,uWM_experiment,2022.2.3,59.99340073
,,,,,,,,,,,,,,,,,,,,3,0,3,0,20,0,20,0,,,,,,,,,,,,,,,,,,,,,,,,,,,,,,,,,,,,,,,,,,,,,,,,,,,,,,,,,,,,,,,,,,,,,,0.055,,,,,,,,,,,,,,,,,,,,,,,,,,,,left,0,10,30,40,1,2390.782501,2390.782501,2390.782501,None,None,1,1,1.5316063,,,,,,,,,,,,,,,,,,,10,20,1,2024-11-27_16h10.03.300,uWM_experiment,2022.2.3,59.99340073
,,,,,,,,,,,,,,,,,,,,3,0,3,0,21,0,21,0,,,,,,,,,,,,,,,,,,,,,,,,,,,,,,,,,,,,,,,,,,,,,,,,,,,,,,,,,,,,,,,,,,,,,,0,,,,,,,,,,,,,,,,,,,,,,,,,,,,right,1,100,30,130,0,2398.316158,2398.316158,2398.316158,None,None,2,0,1.1739718,,,,,,,,,,,,,,,,,,,10,20,1,2024-11-27_16h10.03.300,uWM_experiment,2022.2.3,59.99340073
,,,,,,,,,,,,,,,,,,,,3,0,3,0,22,0,22,0,,,,,,,,,,,,,,,,,,,,,,,,,,,,,,,,,,,,,,,,,,,,,,,,,,,,,,,,,,,,,,,,,,,,,,0.065,,,,,,,,,,,,,,,,,,,,,,,,,,,,right,1,160,30,190,1,2406.499864,2406.499864,2406.499864,None,None,3,0,0.8463029,,,,,,,,,,,,,,,,,,,10,20,1,2024-11-27_16h10.03.300,uWM_experiment,2022.2.3,59.99340073
,,,,,,,,,,,,,,,,,,,,3,0,3,0,23,0,23,0,,,,,,,,,,,,,,,,,,,,,,,,,,,,,,,,,,,,,,,,,,,,,,,,,,,,,,,,,,,,,,,,,,,,,,0.055,,,,,,,,,,,,,,,,,,,,,,,,,,,,right,0,160,-30,130,1,2415.500241,2415.500241,2415.500241,None,None,2,0,0.933942,,,,,,,,,,,,,,,,,,,10,20,1,2024-11-27_16h10.03.300,uWM_experiment,2022.2.3,59.99340073
,,,,,,,,,,,,,,,,,,,,3,0,3,0,,,,,0,0,0,0,,,,,,,,,,,,,,,,,,,,,,,,,,,,,,,,,,,,,,,,,,,,,,,,,,,,,,,,,,,,,,,,,,,,,,,,,,,,,,,,,,,,,,,,,,,,,,,,,,,,,,,,,,,,2416.466958,2416.466958,space,166.1192356,None,None,,,,,,,,,,,,,10,20,1,2024-11-27_16h10.03.300,uWM_experiment,2022.2.3,59.99340073
,,,,,,,,,,,,,,,,,,,,3,0,3,0,,,,,1,0,1,0,,,,,,,,,,,,,,,,,,,,,,,,,,,,,,,,,,,,,,,,,,,,,,,,,,,,,,,,,,,,,,,,,,,,,,,,,,,,,,,,,,,,,,,,,,,,,,,,,,,,,,,,,,,,,,,,,,,,,,,,,,,,,,10,20,1,2024-11-27_16h10.03.300,uWM_experiment,2022.2.3,59.99340073
,,,,,,,,,,,,,,,,,,,,3,0,3,0,,,,,2,0,2,0,,,,,,,,,,,,,,,,,,,,,,,,,,,,,,,,,,,,,,,,,,,,,,,,,,,,,,,,,,,,,,,,,,,,,,,,,,,,,,,,,,,,,,,,,,,,,,,,,,,,,,,,,,,,,,,,,,,,,,,,,,,,,,10,20,1,2024-11-27_16h10.03.300,uWM_experiment,2022.2.3,59.99340073
,,,,,,,,,,,,,,,,,,,,4,0,4,0,0,0,0,0,,,,,,,,,,,,,,,,,,,,,,,,,,,,,,,,,,,,,,,,,,,,,,,,,,,,,,,,,,,,,,,,,,,,,,0.045,,,,,,,,,,,,,,,,,,,,2582.607716,2583.307743,2583.607776,2584.307788,2584.607823,2585.307832,2585.307832,2585.624526,left,1,160,-30,130,1,2593.208207,2593.208207,2593.208207,None,None,1,1,4.0099106,,,,,,,None,,,,,,,,,,,,10,20,1,2024-11-27_16h10.03.300,uWM_experiment,2022.2.3,59.99340073
,,,,,,,,,,,,,,,,,,,,4,0,4,0,1,0,1,0,,,,,,,,,,,,,,,,,,,,,,,,,,,,,,,,,,,,,,,,,,,,,,,,,,,,,,,,,,,,,,,,,,,,,,0.055,,,,,,,,,,,,,,,,,,,,,,,,,,,,right,1,40,30,70,1,2605.458761,2605.458761,2605.458761,None,None,2,0,6.9914883,,,,,,,,,,,,,,,,,,,10,20,1,2024-11-27_16h10.03.300,uWM_experiment,2022.2.3,59.99340073
,,,,,,,,,,,,,,,,,,,,4,0,4,0,2,0,2,0,,,,,,,,,,,,,,,,,,,,,,,,,,,,,,,,,,,,,,,,,,,,,,,,,,,,,,,,,,,,,,,,,,,,,,0.045,,,,,,,,,,,,,,,,,,,,,,,,,,,,right,0,130,-30,100,1,2619.092681,2619.092681,2619.092681,None,None,2,0,0.4214535,,,,,,,,,,,,,,,,,,,10,20,1,2024-11-27_16h10.03.300,uWM_experiment,2022.2.3,59.99340073
,,,,,,,,,,,,,,,,,,,,4,0,4,0,3,0,3,0,,,,,,,,,,,,,,,,,,,,,,,,,,,,,,,,,,,,,,,,,,,,,,,,,,,,,,,,,,,,,,,,,,,,,,0.035,,,,,,,,,,,,,,,,,,,,,,,,,,,,left,1,10,-30,-20,1,2626.159664,2626.159664,2626.159664,None,None,3,0,1.2906312,,,,,,,,,,,,,,,,,,,10,20,1,2024-11-27_16h10.03.300,uWM_experiment,2022.2.3,59.99340073
,,,,,,,,,,,,,,,,,,,,4,0,4,0,4,0,4,0,,,,,,,,,,,,,,,,,,,,,,,,,,,,,,,,,,,,,,,,,,,,,,,,,,,,,,,,,,,,,,,,,,,,,,0.025,,,,,,,,,,,,,,,,,,,,,,,,,,,,left,0,10,30,40,1,2633.476659,2633.476659,2633.476659,None,None,1,1,0.5816584,,,,,,,,,,,,,,,,,,,10,20,1,2024-11-27_16h10.03.300,uWM_experiment,2022.2.3,59.99340073
,,,,,,,,,,,,,,,,,,,,4,0,4,0,5,0,5,0,,,,,,,,,,,,,,,,,,,,,,,,,,,,,,,,,,,,,,,,,,,,,,,,,,,,,,,,,,,,,,,,,,,,,,0.035,,,,,,,,,,,,,,,,,,,,,,,,,,,,left,0,130,30,160,1,2641.077018,2641.077018,2641.077018,None,None,2,0,2.109295,,,,,,,,,,,,,,,,,,,10,20,1,2024-11-27_16h10.03.300,uWM_experiment,2022.2.3,59.99340073
,,,,,,,,,,,,,,,,,,,,4,0,4,0,6,0,6,0,,,,,,,,,,,,,,,,,,,,,,,,,,,,,,,,,,,,,,,,,,,,,,,,,,,,,,,,,,,,,,,,,,,,,,0.025,,,,,,,,,,,,,,,,,,,,,,,,,,,,left,1,70,-30,40,1,2649.994084,2649.994084,2649.994084,None,None,2,0,0.8401704,,,,,,,,,,,,,,,,,,,10,20,1,2024-11-27_16h10.03.300,uWM_experiment,2022.2.3,59.99340073
,,,,,,,,,,,,,,,,,,,,4,0,4,0,7,0,7,0,,,,,,,,,,,,,,,,,,,,,,,,,,,,,,,,,,,,,,,,,,,,,,,,,,,,,,,,,,,,,,,,,,,,,,0.015,,,,,,,,,,,,,,,,,,,,,,,,,,,,left,0,100,30,130,1,2657.327752,2657.327752,2657.327752,None,None,2,0,0.5465449,,,,,,,,,,,,,,,,,,,10,20,1,2024-11-27_16h10.03.300,uWM_experiment,2022.2.3,59.99340073
,,,,,,,,,,,,,,,,,,,,4,0,4,0,8,0,8,0,,,,,,,,,,,,,,,,,,,,,,,,,,,,,,,,,,,,,,,,,,,,,,,,,,,,,,,,,,,,,,,,,,,,,,0.005,,,,,,,,,,,,,,,,,,,,,,,,,,,,left,0,130,30,160,1,2666.061503,2666.061503,2666.061503,None,None,1,1,0.5327237,,,,,,,,,,,,,,,,,,,10,20,1,2024-11-27_16h10.03.300,uWM_experiment,2022.2.3,59.99340073
,,,,,,,,,,,,,,,,,,,,4,0,4,0,9,0,9,0,,,,,,,,,,,,,,,,,,,,,,,,,,,,,,,,,,,,,,,,,,,,,,,,,,,,,,,,,,,,,,,,,,,,,,0,,,,,,,,,,,,,,,,,,,,,,,,,,,,left,1,10,-30,-20,0,2673.828454,2673.828454,2673.828454,None,None,1,1,1.4217526,,,,,,,,,,,,,,,,,,,10,20,1,2024-11-27_16h10.03.300,uWM_experiment,2022.2.3,59.99340073
,,,,,,,,,,,,,,,,,,,,4,0,4,0,10,0,10,0,,,,,,,,,,,,,,,,,,,,,,,,,,,,,,,,,,,,,,,,,,,,,,,,,,,,,,,,,,,,,,,,,,,,,,0.015,,,,,,,,,,,,,,,,,,,,,,,,,,,,right,0,70,-30,40,1,2681.562193,2681.562193,2681.562193,None,None,1,1,1.0401408,,,,,,,,,,,,,,,,,,,10,20,1,2024-11-27_16h10.03.300,uWM_experiment,2022.2.3,59.99340073
,,,,,,,,,,,,,,,,,,,,4,0,4,0,11,0,11,0,,,,,,,,,,,,,,,,,,,,,,,,,,,,,,,,,,,,,,,,,,,,,,,,,,,,,,,,,,,,,,,,,,,,,,0.025,,,,,,,,,,,,,,,,,,,,,,,,,,,,left,1,100,-30,70,1,2690.612549,2690.612549,2690.612549,None,None,1,1,0.4777981,,,,,,,,,,,,,,,,,,,10,20,1,2024-11-27_16h10.03.300,uWM_experiment,2022.2.3,59.99340073
,,,,,,,,,,,,,,,,,,,,4,0,4,0,12,0,12,0,,,,,,,,,,,,,,,,,,,,,,,,,,,,,,,,,,,,,,,,,,,,,,,,,,,,,,,,,,,,,,,,,,,,,,0.035,,,,,,,,,,,,,,,,,,,,,,,,,,,,left,1,10,-30,-20,1,2698.412922,2698.412922,2698.412922,None,None,2,0,0.7894546,,,,,,,,,,,,,,,,,,,10,20,1,2024-11-27_16h10.03.300,uWM_experiment,2022.2.3,59.99340073
,,,,,,,,,,,,,,,,,,,,4,0,4,0,13,0,13,0,,,,,,,,,,,,,,,,,,,,,,,,,,,,,,,,,,,,,,,,,,,,,,,,,,,,,,,,,,,,,,,,,,,,,,0.025,,,,,,,,,,,,,,,,,,,,,,,,,,,,right,1,100,30,130,1,2705.39655,2705.39655,2705.39655,None,None,1,1,0.4617881,,,,,,,,,,,,,,,,,,,10,20,1,2024-11-27_16h10.03.300,uWM_experiment,2022.2.3,59.99340073
,,,,,,,,,,,,,,,,,,,,4,0,4,0,14,0,14,0,,,,,,,,,,,,,,,,,,,,,,,,,,,,,,,,,,,,,,,,,,,,,,,,,,,,,,,,,,,,,,,,,,,,,,0.035,,,,,,,,,,,,,,,,,,,,,,,,,,,,left,0,40,30,70,1,2712.946901,2712.946901,2712.946901,None,None,2,0,0.7513334,,,,,,,,,,,,,,,,,,,10,20,1,2024-11-27_16h10.03.300,uWM_experiment,2022.2.3,59.99340073
,,,,,,,,,,,,,,,,,,,,4,0,4,0,15,0,15,0,,,,,,,,,,,,,,,,,,,,,,,,,,,,,,,,,,,,,,,,,,,,,,,,,,,,,,,,,,,,,,,,,,,,,,0,,,,,,,,,,,,,,,,,,,,,,,,,,,,left,1,160,-30,130,0,2721.213936,2721.213936,2721.213936,None,None,1,1,3.7083639,,,,,,,,,,,,,,,,,,,10,20,1,2024-11-27_16h10.03.300,uWM_experiment,2022.2.3,59.99340073
,,,,,,,,,,,,,,,,,,,,4,0,4,0,16,0,16,0,,,,,,,,,,,,,,,,,,,,,,,,,,,,,,,,,,,,,,,,,,,,,,,,,,,,,,,,,,,,,,,,,,,,,,0.025,,,,,,,,,,,,,,,,,,,,,,,,,,,,right,1,10,30,40,1,2730.597664,2730.597664,2730.597664,None,None,1,1,0.3246887,,,,,,,,,,,,,,,,,,,10,20,1,2024-11-27_16h10.03.300,uWM_experiment,2022.2.3,59.99340073
,,,,,,,,,,,,,,,,,,,,4,0,4,0,17,0,17,0,,,,,,,,,,,,,,,,,,,,,,,,,,,,,,,,,,,,,,,,,,,,,,,,,,,,,,,,,,,,,,,,,,,,,,0.035,,,,,,,,,,,,,,,,,,,,,,,,,,,,left,0,70,30,100,1,2736.33126,2736.33126,2736.33126,None,None,1,1,0.4070729,,,,,,,,,,,,,,,,,,,10,20,1,2024-11-27_16h10.03.300,uWM_experiment,2022.2.3,59.99340073
,,,,,,,,,,,,,,,,,,,,4,0,4,0,18,0,18,0,,,,,,,,,,,,,,,,,,,,,,,,,,,,,,,,,,,,,,,,,,,,,,,,,,,,,,,,,,,,,,,,,,,,,,0.045,,,,,,,,,,,,,,,,,,,,,,,,,,,,left,1,100,-30,70,1,2750.765243,2750.765243,2750.765243,None,None,2,0,1.1490548,,,,,,,,,,,,,,,,,,,10,20,1,2024-11-27_16h10.03.300,uWM_experiment,2022.2.3,59.99340073
,,,,,,,,,,,,,,,,,,,,4,0,4,0,19,0,19,0,,,,,,,,,,,,,,,,,,,,,,,,,,,,,,,,,,,,,,,,,,,,,,,,,,,,,,,,,,,,,,,,,,,,,,0.035,,,,,,,,,,,,,,,,,,,,,,,,,,,,right,0,100,-30,70,1,2757.9989,2757.9989,2757.9989,None,None,1,1,0.1793692,,,,,,,,,,,,,,,,,,,10,20,1,2024-11-27_16h10.03.300,uWM_experiment,2022.2.3,59.99340073
,,,,,,,,,,,,,,,,,,,,4,0,4,0,20,0,20,0,,,,,,,,,,,,,,,,,,,,,,,,,,,,,,,,,,,,,,,,,,,,,,,,,,,,,,,,,,,,,,,,,,,,,,0.045,,,,,,,,,,,,,,,,,,,,,,,,,,,,left,0,100,30,130,1,2763.765829,2763.765829,2763.765829,None,None,1,1,0.0843271,,,,,,,,,,,,,,,,,,,10,20,1,2024-11-27_16h10.03.300,uWM_experiment,2022.2.3,59.99340073
,,,,,,,,,,,,,,,,,,,,4,0,4,0,21,0,21,0,,,,,,,,,,,,,,,,,,,,,,,,,,,,,,,,,,,,,,,,,,,,,,,,,,,,,,,,,,,,,,,,,,,,,,0.055,,,,,,,,,,,,,,,,,,,,,,,,,,,,left,1,160,-30,130,1,2772.116207,2772.116207,2772.116207,None,None,2,0,0.1581071,,,,,,,,,,,,,,,,,,,10,20,1,2024-11-27_16h10.03.300,uWM_experiment,2022.2.3,59.99340073
,,,,,,,,,,,,,,,,,,,,4,0,4,0,22,0,22,0,,,,,,,,,,,,,,,,,,,,,,,,,,,,,,,,,,,,,,,,,,,,,,,,,,,,,,,,,,,,,,,,,,,,,,0,,,,,,,,,,,,,,,,,,,,,,,,,,,,right,1,70,30,100,0,2778.06648,2778.06648,2778.06648,None,None,1,1,0.0319252,,,,,,,,,,,,,,,,,,,10,20,1,2024-11-27_16h10.03.300,uWM_experiment,2022.2.3,59.99340073
,,,,,,,,,,,,,,,,,,,,4,0,4,0,23,0,23,0,,,,,,,,,,,,,,,,,,,,,,,,,,,,,,,,,,,,,,,,,,,,,,,,,,,,,,,,,,,,,,,,,,,,,,0,,,,,,,,,,,,,,,,,,,,,,,,,,,,left,0,130,30,160,0,2784.483418,2784.483418,2784.483418,None,None,1,1,0.11084,,,,,,,,,,,,,,,,,,,10,20,1,2024-11-27_16h10.03.300,uWM_experiment,2022.2.3,59.99340073
,,,,,,,,,,,,,,,,,,,,4,0,4,0,,,,,0,0,0,0,,,,,,,,,,,,,,,,,,,,,,,,,,,,,,,,,,,,,,,,,,,,,,,,,,,,,,,,,,,,,,,,,,,,,,,,,,,,,,,,,,,,,,,,,,,,,,,,,,,,,,,,,,,,2784.616741,2784.616741,space,21.1216677,None,None,,,,,,,,,,,,,10,20,1,2024-11-27_16h10.03.300,uWM_experiment,2022.2.3,59.99340073
,,,,,,,,,,,,,,,,,,,,4,0,4,0,,,,,1,0,1,0,,,,,,,,,,,,,,,,,,,,,,,,,,,,,,,,,,,,,,,,,,,,,,,,,,,,,,,,,,,,,,,,,,,,,,,,,,,,,,,,,,,,,,,,,,,,,,,,,,,,,,,,,,,,,,,,,,,,,,,,,,,,,,10,20,1,2024-11-27_16h10.03.300,uWM_experiment,2022.2.3,59.99340073
,,,,,,,,,,,,,,,,,,,,4,0,4,0,,,,,2,0,2,0,,,,,,,,,,,,,,,,,,,,,,,,,,,,,,,,,,,,,,,,,,,,,,,,,,,,,,,,,,,,,,,,,,,,,,,,,,,,,,,,,,,,,,,,,,,,,,,,,,,,,,,,,,,,,,,,,,,,,,,,,,,,,,10,20,1,2024-11-27_16h10.03.300,uWM_experiment,2022.2.3,59.99340073
,,,,,,,,,,,,,,,,,,,,5,0,5,0,0,0,0,0,,,,,,,,,,,,,,,,,,,,,,,,,,,,,,,,,,,,,,,,,,,,,,,,,,,,,,,,,,,,,,,,,,,,,,0,,,,,,,,,,,,,,,,,,,,2805.767695,2806.467724,2806.767735,2807.467768,2807.7678,2808.467809,2808.467809,2808.7845,left,0,100,30,130,0,2815.818149,2815.818149,2815.818149,None,None,2,0,0.1042362,,,,,,,None,,,,,,,,,,,,10,20,1,2024-11-27_16h10.03.300,uWM_experiment,2022.2.3,59.99340073
,,,,,,,,,,,,,,,,,,,,5,0,5,0,1,0,1,0,,,,,,,,,,,,,,,,,,,,,,,,,,,,,,,,,,,,,,,,,,,,,,,,,,,,,,,,,,,,,,,,,,,,,,0.045,,,,,,,,,,,,,,,,,,,,,,,,,,,,right,0,70,-30,40,1,2822.785124,2822.785124,2822.785124,None,None,2,0,0.0971074,,,,,,,,,,,,,,,,,,,10,20,1,2024-11-27_16h10.03.300,uWM_experiment,2022.2.3,59.99340073
,,,,,,,,,,,,,,,,,,,,5,0,5,0,2,0,2,0,,,,,,,,,,,,,,,,,,,,,,,,,,,,,,,,,,,,,,,,,,,,,,,,,,,,,,,,,,,,,,,,,,,,,,0.035,,,,,,,,,,,,,,,,,,,,,,,,,,,,right,1,40,30,70,1,2830.802171,2830.802171,2830.802171,None,None,2,0,0.0960661,,,,,,,,,,,,,,,,,,,10,20,1,2024-11-27_16h10.03.300,uWM_experiment,2022.2.3,59.99340073
,,,,,,,,,,,,,,,,,,,,5,0,5,0,3,0,3,0,,,,,,,,,,,,,,,,,,,,,,,,,,,,,,,,,,,,,,,,,,,,,,,,,,,,,,,,,,,,,,,,,,,,,,0.025,,,,,,,,,,,,,,,,,,,,,,,,,,,,left,1,130,-30,100,1,2838.269165,2838.269165,2838.269165,None,None,2,0,0.1972237,,,,,,,,,,,,,,,,,,,10,20,1,2024-11-27_16h10.03.300,uWM_experiment,2022.2.3,59.99340073
,,,,,,,,,,,,,,,,,,,,5,0,5,0,4,0,4,0,,,,,,,,,,,,,,,,,,,,,,,,,,,,,,,,,,,,,,,,,,,,,,,,,,,,,,,,,,,,,,,,,,,,,,0,,,,,,,,,,,,,,,,,,,,,,,,,,,,left,0,40,30,70,0,2844.352746,2844.352746,2844.352746,None,None,1,1,0.0255489,,,,,,,,,,,,,,,,,,,10,20,1,2024-11-27_16h10.03.300,uWM_experiment,2022.2.3,59.99340073
,,,,,,,,,,,,,,,,,,,,5,0,5,0,5,0,5,0,,,,,,,,,,,,,,,,,,,,,,,,,,,,,,,,,,,,,,,,,,,,,,,,,,,,,,,,,,,,,,,,,,,,,,0.015,,,,,,,,,,,,,,,,,,,,,,,,,,,,right,0,40,-30,10,1,2849.869685,2849.869685,2849.869685,None,None,1,1,0.060661,,,,,,,,,,,,,,,,,,,10,20,1,2024-11-27_16h10.03.300,uWM_experiment,2022.2.3,59.99340073
,,,,,,,,,,,,,,,,,,,,5,0,5,0,6,0,6,0,,,,,,,,,,,,,,,,,,,,,,,,,,,,,,,,,,,,,,,,,,,,,,,,,,,,,,,,,,,,,,,,,,,,,,0.025,,,,,,,,,,,,,,,,,,,,,,,,,,,,left,0,10,30,40,1,2855.536581,2855.536581,2855.536581,None,None,1,1,0.0738593,,,,,,,,,,,,,,,,,,,10,20,1,2024-11-27_16h10.03.300,uWM_experiment,2022.2.3,59.99340073
,,,,,,,,,,,,,,,,,,,,5,0,5,0,7,0,7,0,,,,,,,,,,,,,,,,,,,,,,,,,,,,,,,,,,,,,,,,,,,,,,,,,,,,,,,,,,,,,,,,,,,,,,0.035,,,,,,,,,,,,,,,,,,,,,,,,,,,,left,1,10,-30,-20,1,2862.886921,2862.886921,2862.886921,None,None,2,0,0.1075237,,,,,,,,,,,,,,,,,,,10,20,1,2024-11-27_16h10.03.300,uWM_experiment,2022.2.3,59.99340073
,,,,,,,,,,,,,,,,,,,,5,0,5,0,8,0,8,0,,,,,,,,,,,,,,,,,,,,,,,,,,,,,,,,,,,,,,,,,,,,,,,,,,,,,,,,,,,,,,,,,,,,,,0,,,,,,,,,,,,,,,,,,,,,,,,,,,,right,0,70,-30,40,0,2868.570517,2868.570517,2868.570517,None,None,1,1,0.0318799,,,,,,,,,,,,,,,,,,,10,20,1,2024-11-27_16h10.03.300,uWM_experiment,2022.2.3,59.99340073
,,,,,,,,,,,,,,,,,,,,5,0,5,0,9,0,9,0,,,,,,,,,,,,,,,,,,,,,,,,,,,,,,,,,,,,,,,,,,,,,,,,,,,,,,,,,,,,,,,,,,,,,,0,,,,,,,,,,,,,,,,,,,,,,,,,,,,left,0,40,30,70,0,2874.08742,2874.08742,2874.08742,None,None,1,1,0.0990309,,,,,,,,,,,,,,,,,,,10,20,1,2024-11-27_16h10.03.300,uWM_experiment,2022.2.3,59.99340073
,,,,,,,,,,,,,,,,,,,,5,0,5,0,10,0,10,0,,,,,,,,,,,,,,,,,,,,,,,,,,,,,,,,,,,,,,,,,,,,,,,,,,,,,,,,,,,,,,,,,,,,,,0.025,,,,,,,,,,,,,,,,,,,,,,,,,,,,left,1,10,-30,-20,1,2882.437804,2882.437804,2882.437804,None,None,3,0,0.0524939,,,,,,,,,,,,,,,,,,,10,20,1,2024-11-27_16h10.03.300,uWM_experiment,2022.2.3,59.99340073
,,,,,,,,,,,,,,,,,,,,5,0,5,0,11,0,11,0,,,,,,,,,,,,,,,,,,,,,,,,,,,,,,,,,,,,,,,,,,,,,,,,,,,,,,,,,,,,,,,,,,,,,,0.015,,,,,,,,,,,,,,,,,,,,,,,,,,,,left,1,160,-30,130,1,2888.73806,2888.73806,2888.73806,None,None,1,1,0.5283089,,,,,,,,,,,,,,,,,,,10,20,1,2024-11-27_16h10.03.300,uWM_experiment,2022.2.3,59.99340073
,,,,,,,,,,,,,,,,,,,,5,0,5,0,12,0,12,0,,,,,,,,,,,,,,,,,,,,,,,,,,,,,,,,,,,,,,,,,,,,,,,,,,,,,,,,,,,,,,,,,,,,,,0.025,,,,,,,,,,,,,,,,,,,,,,,,,,,,right,0,130,-30,100,1,2894.754998,2894.754998,2894.754998,None,None,2,0,0.0553093,,,,,,,,,,,,,,,,,,,10,20,1,2024-11-27_16h10.03.300,uWM_experiment,2022.2.3,59.99340073
,,,,,,,,,,,,,,,,,,,,5,0,5,0,13,0,13,0,,,,,,,,,,,,,,,,,,,,,,,,,,,,,,,,,,,,,,,,,,,,,,,,,,,,,,,,,,,,,,,,,,,,,,0,,,,,,,,,,,,,,,,,,,,,,,,,,,,left,1,70,-30,40,0,2900.505278,2900.505278,2900.505278,None,None,1,1,0.0892197,,,,,,,,,,,,,,,,,,,10,20,1,2024-11-27_16h10.03.300,uWM_experiment,2022.2.3,59.99340073
,,,,,,,,,,,,,,,,,,,,5,0,5,0,14,0,14,0,,,,,,,,,,,,,,,,,,,,,,,,,,,,,,,,,,,,,,,,,,,,,,,,,,,,,,,,,,,,,,,,,,,,,,0.015,,,,,,,,,,,,,,,,,,,,,,,,,,,,right,1,130,30,160,1,2906.022184,2906.022184,2906.022184,None,None,1,1,0.0840382,,,,,,,,,,,,,,,,,,,10,20,1,2024-11-27_16h10.03.300,uWM_experiment,2022.2.3,59.99340073
,,,,,,,,,,,,,,,,,,,,5,0,5,0,15,0,15,0,,,,,,,,,,,,,,,,,,,,,,,,,,,,,,,,,,,,,,,,,,,,,,,,,,,,,,,,,,,,,,,,,,,,,,0.025,,,,,,,,,,,,,,,,,,,,,,,,,,,,left,0,10,30,40,1,2911.339077,2911.339077,2911.339077,None,None,1,1,0.1272705,,,,,,,,,,,,,,,,,,,10,20,1,2024-11-27_16h10.03.300,uWM_experiment,2022.2.3,59.99340073
,,,,,,,,,,,,,,,,,,,,5,0,5,0,16,0,16,0,,,,,,,,,,,,,,,,,,,,,,,,,,,,,,,,,,,,,,,,,,,,,,,,,,,,,,,,,,,,,,,,,,,,,,0,,,,,,,,,,,,,,,,,,,,,,,,,,,,right,0,130,-30,100,0,2917.189353,2917.189353,2917.189353,None,None,1,1,0.0611358,,,,,,,,,,,,,,,,,,,10,20,1,2024-11-27_16h10.03.300,uWM_experiment,2022.2.3,59.99340073
,,,,,,,,,,,,,,,,,,,,5,0,5,0,17,0,17,0,,,,,,,,,,,,,,,,,,,,,,,,,,,,,,,,,,,,,,,,,,,,,,,,,,,,,,,,,,,,,,,,,,,,,,0,,,,,,,,,,,,,,,,,,,,,,,,,,,,left,1,40,-30,10,0,2922.772925,2922.772925,2922.772925,None,None,1,1,0.0775213,,,,,,,,,,,,,,,,,,,10,20,1,2024-11-27_16h10.03.300,uWM_experiment,2022.2.3,59.99340073
,,,,,,,,,,,,,,,,,,,,5,0,5,0,18,0,18,0,,,,,,,,,,,,,,,,,,,,,,,,,,,,,,,,,,,,,,,,,,,,,,,,,,,,,,,,,,,,,,,,,,,,,,0,,,,,,,,,,,,,,,,,,,,,,,,,,,,right,1,10,30,40,0,2928.756538,2928.756538,2928.756538,None,None,1,1,0.0537782,,,,,,,,,,,,,,,,,,,10,20,1,2024-11-27_16h10.03.300,uWM_experiment,2022.2.3,59.99340073
,,,,,,,,,,,,,,,,,,,,5,0,5,0,19,0,19,0,,,,,,,,,,,,,,,,,,,,,,,,,,,,,,,,,,,,,,,,,,,,,,,,,,,,,,,,,,,,,,,,,,,,,,0,,,,,,,,,,,,,,,,,,,,,,,,,,,,left,0,40,30,70,0,2934.840138,2934.840138,2934.840138,None,None,1,1,0.0502744,,,,,,,,,,,,,,,,,,,10,20,1,2024-11-27_16h10.03.300,uWM_experiment,2022.2.3,59.99340073
,,,,,,,,,,,,,,,,,,,,5,0,5,0,20,0,20,0,,,,,,,,,,,,,,,,,,,,,,,,,,,,,,,,,,,,,,,,,,,,,,,,,,,,,,,,,,,,,,,,,,,,,,0.035,,,,,,,,,,,,,,,,,,,,,,,,,,,,right,0,130,-30,100,1,2941.17376,2941.17376,2941.17376,None,None,1,1,0.1325525,,,,,,,,,,,,,,,,,,,10,20,1,2024-11-27_16h10.03.300,uWM_experiment,2022.2.3,59.99340073
,,,,,,,,,,,,,,,,,,,,5,0,5,0,21,0,21,0,,,,,,,,,,,,,,,,,,,,,,,,,,,,,,,,,,,,,,,,,,,,,,,,,,,,,,,,,,,,,,,,,,,,,,0.045,,,,,,,,,,,,,,,,,,,,,,,,,,,,right,1,160,30,190,1,2948.474069,2948.474069,2948.474069,None,None,3,0,0.3042811,,,,,,,,,,,,,,,,,,,10,20,1,2024-11-27_16h10.03.300,uWM_experiment,2022.2.3,59.99340073
,,,,,,,,,,,,,,,,,,,,5,0,5,0,22,0,22,0,,,,,,,,,,,,,,,,,,,,,,,,,,,,,,,,,,,,,,,,,,,,,,,,,,,,,,,,,,,,,,,,,,,,,,0.035,,,,,,,,,,,,,,,,,,,,,,,,,,,,right,1,40,30,70,1,2956.141066,2956.141066,2956.141066,None,None,2,0,0.1332696,,,,,,,,,,,,,,,,,,,10,20,1,2024-11-27_16h10.03.300,uWM_experiment,2022.2.3,59.99340073
,,,,,,,,,,,,,,,,,,,,5,0,5,0,23,0,23,0,,,,,,,,,,,,,,,,,,,,,,,,,,,,,,,,,,,,,,,,,,,,,,,,,,,,,,,,,,,,,,,,,,,,,,0.025,,,,,,,,,,,,,,,,,,,,,,,,,,,,left,1,100,-30,70,1,2962.058023,2962.058023,2962.058023,None,None,2,0,0.0324187,,,,,,,,,,,,,,,,,,,10,20,1,2024-11-27_16h10.03.300,uWM_experiment,2022.2.3,59.99340073
,,,,,,,,,,,,,,,,,,,,5,0,5,0,,,,,0,0,0,0,,,,,,,,,,,,,,,,,,,,,,,,,,,,,,,,,,,,,,,,,,,,,,,,,,,,,,,,,,,,,,,,,,,,,,,,,,,,,,,,,,,,,,,,,,,,,,,,,,,,,,,,,,,,2962.108012,2962.108012,space,21.5503728,space,None,,2983.675634,2983.675634,10.086768,,,,,,,,,10,20,1,2024-11-27_16h10.03.300,uWM_experiment,2022.2.3,59.99340073
,,,,,,,,,,,,,,,,,,,,5,0,5,0,,,,,1,0,1,0,,,,,,,,,,,,,,,,,,,,,,,,,,,,,,,,,,,,,,,,,,,,,,,,,,,,,,,,,,,,,,,,,,,,,,,,,,,,,,,,,,,,,,,,,,,,,,,,,,,,,,,,,,,,,,,,,,,,,,,,,,,,,,10,20,1,2024-11-27_16h10.03.300,uWM_experiment,2022.2.3,59.99340073
,,,,,,,,,,,,,,,,,,,,5,0,5,0,,,,,2,0,2,0,,,,,,,,,,,,,,,,,,,,,,,,,,,,,,,,,,,,,,,,,,,,,,,,,,,,,,,,,,,,,,,,,,,,,,,,,,,,,,,,,,,,,,,,,,,,,,,,,,,,,,,,,,,,,,,,,,,,,,,,,,,,,,10,20,1,2024-11-27_16h10.03.300,uWM_experiment,2022.2.3,59.99340073
,,,,,,,,,,,,,,,,,,,,6,0,6,0,0,0,0,0,,,,,,,,,,,,,,,,,,,,,,,,,,,,,,,,,,,,,,,,,,,,,,,,,,,,,,,,,,,,,,,,,,,,,,0.015,,,,,,,,,,,,,,,,,,,,2993.792756,2994.49278,2994.792796,2995.492826,2995.792838,2996.492889,2996.492889,2996.809559,right,1,160,30,190,1,3001.443097,3001.443097,3001.443097,None,None,1,1,0.0152944,,,,,,,None,,,,,,,,,,,,10,20,1,2024-11-27_16h10.03.300,uWM_experiment,2022.2.3,59.99340073
,,,,,,,,,,,,,,,,,,,,6,0,6,0,1,0,1,0,,,,,,,,,,,,,,,,,,,,,,,,,,,,,,,,,,,,,,,,,,,,,,,,,,,,,,,,,,,,,,,,,,,,,,0,,,,,,,,,,,,,,,,,,,,,,,,,,,,left,0,160,30,190,0,3007.87674,3007.87674,3007.87674,None,None,1,1,0.1897049,,,,,,,,,,,,,,,,,,,10,20,1,2024-11-27_16h10.03.300,uWM_experiment,2022.2.3,59.99340073
,,,,,,,,,,,,,,,,,,,,6,0,6,0,2,0,2,0,,,,,,,,,,,,,,,,,,,,,,,,,,,,,,,,,,,,,,,,,,,,,,,,,,,,,,,,,,,,,,,,,,,,,,0.025,,,,,,,,,,,,,,,,,,,,,,,,,,,,left,0,130,30,160,1,3014.610377,3014.610377,3014.610377,None,None,1,1,0.127955,,,,,,,,,,,,,,,,,,,10,20,1,2024-11-27_16h10.03.300,uWM_experiment,2022.2.3,59.99340073
,,,,,,,,,,,,,,,,,,,,6,0,6,0,3,0,3,0,,,,,,,,,,,,,,,,,,,,,,,,,,,,,,,,,,,,,,,,,,,,,,,,,,,,,,,,,,,,,,,,,,,,,,0.035,,,,,,,,,,,,,,,,,,,,,,,,,,,,right,1,40,30,70,1,3027.494259,3027.494259,3027.494259,None,None,1,1,1.6922423,,,,,,,,,,,,,,,,,,,10,20,1,2024-11-27_16h10.03.300,uWM_experiment,2022.2.3,59.99340073
,,,,,,,,,,,,,,,,,,,,6,0,6,0,4,0,4,0,,,,,,,,,,,,,,,,,,,,,,,,,,,,,,,,,,,,,,,,,,,,,,,,,,,,,,,,,,,,,,,,,,,,,,0.045,,,,,,,,,,,,,,,,,,,,,,,,,,,,left,1,10,-30,-20,1,3035.377946,3035.377946,3035.377946,None,None,1,1,0.0645855,,,,,,,,,,,,,,,,,,,10,20,1,2024-11-27_16h10.03.300,uWM_experiment,2022.2.3,59.99340073
,,,,,,,,,,,,,,,,,,,,6,0,6,0,5,0,5,0,,,,,,,,,,,,,,,,,,,,,,,,,,,,,,,,,,,,,,,,,,,,,,,,,,,,,,,,,,,,,,,,,,,,,,0.055,,,,,,,,,,,,,,,,,,,,,,,,,,,,right,1,10,30,40,1,3041.428218,3041.428218,3041.428218,None,None,1,1,0.0702681,,,,,,,,,,,,,,,,,,,10,20,1,2024-11-27_16h10.03.300,uWM_experiment,2022.2.3,59.99340073
,,,,,,,,,,,,,,,,,,,,6,0,6,0,6,0,6,0,,,,,,,,,,,,,,,,,,,,,,,,,,,,,,,,,,,,,,,,,,,,,,,,,,,,,,,,,,,,,,,,,,,,,,0.065,,,,,,,,,,,,,,,,,,,,,,,,,,,,left,0,10,30,40,1,3047.145137,3047.145137,3047.145137,None,None,1,1,0.049346,,,,,,,,,,,,,,,,,,,10,20,1,2024-11-27_16h10.03.300,uWM_experiment,2022.2.3,59.99340073
,,,,,,,,,,,,,,,,,,,,6,0,6,0,7,0,7,0,,,,,,,,,,,,,,,,,,,,,,,,,,,,,,,,,,,,,,,,,,,,,,,,,,,,,,,,,,,,,,,,,,,,,,0,,,,,,,,,,,,,,,,,,,,,,,,,,,,right,0,100,-30,70,0,3053.795457,3053.795457,3053.795457,None,None,1,1,0.1348643,,,,,,,,,,,,,,,,,,,10,20,1,2024-11-27_16h10.03.300,uWM_experiment,2022.2.3,59.99340073
,,,,,,,,,,,,,,,,,,,,6,0,6,0,8,0,8,0,,,,,,,,,,,,,,,,,,,,,,,,,,,,,,,,,,,,,,,,,,,,,,,,,,,,,,,,,,,,,,,,,,,,,,0.075,,,,,,,,,,,,,,,,,,,,,,,,,,,,right,1,160,30,190,1,3060.162384,3060.162384,3060.162384,None,None,2,0,0.5681505,,,,,,,,,,,,,,,,,,,10,20,1,2024-11-27_16h10.03.300,uWM_experiment,2022.2.3,59.99340073
,,,,,,,,,,,,,,,,,,,,6,0,6,0,9,0,9,0,,,,,,,,,,,,,,,,,,,,,,,,,,,,,,,,,,,,,,,,,,,,,,,,,,,,,,,,,,,,,,,,,,,,,,0.065,,,,,,,,,,,,,,,,,,,,,,,,,,,,left,1,70,-30,40,1,3067.562738,3067.562738,3067.562738,None,None,3,0,0.0718406,,,,,,,,,,,,,,,,,,,10,20,1,2024-11-27_16h10.03.300,uWM_experiment,2022.2.3,59.99340073
,,,,,,,,,,,,,,,,,,,,6,0,6,0,10,0,10,0,,,,,,,,,,,,,,,,,,,,,,,,,,,,,,,,,,,,,,,,,,,,,,,,,,,,,,,,,,,,,,,,,,,,,,0.055,,,,,,,,,,,,,,,,,,,,,,,,,,,,right,1,100,30,130,1,3077.313164,3077.313164,3077.313164,None,None,1,1,0.0653034,,,,,,,,,,,,,,,,,,,10,20,1,2024-11-27_16h10.03.300,uWM_experiment,2022.2.3,59.99340073
,,,,,,,,,,,,,,,,,,,,6,0,6,0,11,0,11,0,,,,,,,,,,,,,,,,,,,,,,,,,,,,,,,,,,,,,,,,,,,,,,,,,,,,,,,,,,,,,,,,,,,,,,0.065,,,,,,,,,,,,,,,,,,,,,,,,,,,,left,1,160,-30,130,1,3083.413435,3083.413435,3083.413435,None,None,1,1,0.0530512,,,,,,,,,,,,,,,,,,,10,20,1,2024-11-27_16h10.03.300,uWM_experiment,2022.2.3,59.99340073
,,,,,,,,,,,,,,,,,,,,6,0,6,0,12,0,12,0,,,,,,,,,,,,,,,,,,,,,,,,,,,,,,,,,,,,,,,,,,,,,,,,,,,,,,,,,,,,,,,,,,,,,,0.075,,,,,,,,,,,,,,,,,,,,,,,,,,,,left,1,160,-30,130,1,3089.763708,3089.763708,3089.763708,None,None,1,1,0.1746803,,,,,,,,,,,,,,,,,,,10,20,1,2024-11-27_16h10.03.300,uWM_experiment,2022.2.3,59.99340073
,,,,,,,,,,,,,,,,,,,,6,0,6,0,13,0,13,0,,,,,,,,,,,,,,,,,,,,,,,,,,,,,,,,,,,,,,,,,,,,,,,,,,,,,,,,,,,,,,,,,,,,,,0.085,,,,,,,,,,,,,,,,,,,,,,,,,,,,right,1,130,30,160,1,3095.930657,3095.930657,3095.930657,None,None,3,0,0.7197317,,,,,,,,,,,,,,,,,,,10,20,1,2024-11-27_16h10.03.300,uWM_experiment,2022.2.3,59.99340073
,,,,,,,,,,,,,,,,,,,,6,0,6,0,14,0,14,0,,,,,,,,,,,,,,,,,,,,,,,,,,,,,,,,,,,,,,,,,,,,,,,,,,,,,,,,,,,,,,,,,,,,,,0.075,,,,,,,,,,,,,,,,,,,,,,,,,,,,left,1,70,-30,40,1,3103.314332,3103.314332,3103.314332,None,None,2,0,2.2721142,,,,,,,,,,,,,,,,,,,10,20,1,2024-11-27_16h10.03.300,uWM_experiment,2022.2.3,59.99340073
,,,,,,,,,,,,,,,,,,,,6,0,6,0,15,0,15,0,,,,,,,,,,,,,,,,,,,,,,,,,,,,,,,,,,,,,,,,,,,,,,,,,,,,,,,,,,,,,,,,,,,,,,0.065,,,,,,,,,,,,,,,,,,,,,,,,,,,,right,1,160,30,190,1,3112.248066,3112.248066,3112.248066,None,None,3,0,0.0904685,,,,,,,,,,,,,,,,,,,10,20,1,2024-11-27_16h10.03.300,uWM_experiment,2022.2.3,59.99340073
,,,,,,,,,,,,,,,,,,,,6,0,6,0,16,0,16,0,,,,,,,,,,,,,,,,,,,,,,,,,,,,,,,,,,,,,,,,,,,,,,,,,,,,,,,,,,,,,,,,,,,,,,0,,,,,,,,,,,,,,,,,,,,,,,,,,,,left,1,40,-30,10,0,3118.481673,3118.481673,3118.481673,None,None,1,1,0.7287498,,,,,,,,,,,,,,,,,,,10,20,1,2024-11-27_16h10.03.300,uWM_experiment,2022.2.3,59.99340073
,,,,,,,,,,,,,,,,,,,,6,0,6,0,17,0,17,0,,,,,,,,,,,,,,,,,,,,,,,,,,,,,,,,,,,,,,,,,,,,,,,,,,,,,,,,,,,,,,,,,,,,,,0,,,,,,,,,,,,,,,,,,,,,,,,,,,,left,0,130,30,160,0,3127.515405,3127.515405,3127.515405,None,None,1,1,0.0870456,,,,,,,,,,,,,,,,,,,10,20,1,2024-11-27_16h10.03.300,uWM_experiment,2022.2.3,59.99340073
,,,,,,,,,,,,,,,,,,,,6,0,6,0,18,0,18,0,,,,,,,,,,,,,,,,,,,,,,,,,,,,,,,,,,,,,,,,,,,,,,,,,,,,,,,,,,,,,,,,,,,,,,0,,,,,,,,,,,,,,,,,,,,,,,,,,,,left,0,70,30,100,0,3135.882454,3135.882454,3135.882454,None,None,1,1,0.0800166,,,,,,,,,,,,,,,,,,,10,20,1,2024-11-27_16h10.03.300,uWM_experiment,2022.2.3,59.99340073
,,,,,,,,,,,,,,,,,,,,6,0,6,0,19,0,19,0,,,,,,,,,,,,,,,,,,,,,,,,,,,,,,,,,,,,,,,,,,,,,,,,,,,,,,,,,,,,,,,,,,,,,,0.055,,,,,,,,,,,,,,,,,,,,,,,,,,,,left,1,130,-30,100,1,3143.632799,3143.632799,3143.632799,None,None,2,0,0.0737254,,,,,,,,,,,,,,,,,,,10,20,1,2024-11-27_16h10.03.300,uWM_experiment,2022.2.3,59.99340073
,,,,,,,,,,,,,,,,,,,,6,0,6,0,20,0,20,0,,,,,,,,,,,,,,,,,,,,,,,,,,,,,,,,,,,,,,,,,,,,,,,,,,,,,,,,,,,,,,,,,,,,,,0,,,,,,,,,,,,,,,,,,,,,,,,,,,,right,0,40,-30,10,0,3150.433092,3150.433092,3150.433092,None,None,1,1,0.0494109,,,,,,,,,,,,,,,,,,,10,20,1,2024-11-27_16h10.03.300,uWM_experiment,2022.2.3,59.99340073
,,,,,,,,,,,,,,,,,,,,6,0,6,0,21,0,21,0,,,,,,,,,,,,,,,,,,,,,,,,,,,,,,,,,,,,,,,,,,,,,,,,,,,,,,,,,,,,,,,,,,,,,,0,,,,,,,,,,,,,,,,,,,,,,,,,,,,left,0,10,30,40,0,3156.833388,3156.833388,3156.833388,None,None,1,1,0.0731917,,,,,,,,,,,,,,,,,,,10,20,1,2024-11-27_16h10.03.300,uWM_experiment,2022.2.3,59.99340073
,,,,,,,,,,,,,,,,,,,,6,0,6,0,22,0,22,0,,,,,,,,,,,,,,,,,,,,,,,,,,,,,,,,,,,,,,,,,,,,,,,,,,,,,,,,,,,,,,,,,,,,,,0.045,,,,,,,,,,,,,,,,,,,,,,,,,,,,left,0,100,30,130,1,3166.717166,3166.717166,3166.717166,None,None,1,1,0.0372755,,,,,,,,,,,,,,,,,,,10,20,1,2024-11-27_16h10.03.300,uWM_experiment,2022.2.3,59.99340073
,,,,,,,,,,,,,,,,,,,,6,0,6,0,23,0,23,0,,,,,,,,,,,,,,,,,,,,,,,,,,,,,,,,,,,,,,,,,,,,,,,,,,,,,,,,,,,,,,,,,,,,,,0.055,,,,,,,,,,,,,,,,,,,,,,,,,,,,right,1,10,30,40,1,3173.517459,3173.517459,3173.517459,None,None,1,1,0.1009664,,,,,,,,,,,,,,,,,,,10,20,1,2024-11-27_16h10.03.300,uWM_experiment,2022.2.3,59.99340073
,,,,,,,,,,,,,,,,,,,,6,0,6,0,,,,,0,0,0,0,,,,,,,,,,,,,,,,,,,,,,,,,,,,,,,,,,,,,,,,,,,,,,,,,,,,,,,,,,,,,,,,,,,,,,,,,,,,,,,,,,,,,,,,,,,,,,,,,,,,,,,,,,,,3173.650785,3173.650785,space,20.9518818,None,space,,,,,3194.635038,3194.635038,28.6395243,,,,,,10,20,1,2024-11-27_16h10.03.300,uWM_experiment,2022.2.3,59.99340073
,,,,,,,,,,,,,,,,,,,,6,0,6,0,,,,,1,0,1,0,,,,,,,,,,,,,,,,,,,,,,,,,,,,,,,,,,,,,,,,,,,,,,,,,,,,,,,,,,,,,,,,,,,,,,,,,,,,,,,,,,,,,,,,,,,,,,,,,,,,,,,,,,,,,,,,,,,,,,,,,,,,,,10,20,1,2024-11-27_16h10.03.300,uWM_experiment,2022.2.3,59.99340073
,,,,,,,,,,,,,,,,,,,,6,0,6,0,,,,,2,0,2,0,,,,,,,,,,,,,,,,,,,,,,,,,,,,,,,,,,,,,,,,,,,,,,,,,,,,,,,,,,,,,,,,,,,,,,,,,,,,,,,,,,,,,,,,,,,,,,,,,,,,,,,,,,,,,,,,,,,,,,,,,,,,,,10,20,1,2024-11-27_16h10.03.300,uWM_experiment,2022.2.3,59.99340073
,,,,,,,,,,,,,,,,,,,,7,0,7,0,0,0,0,0,,,,,,,,,,,,,,,,,,,,,,,,,,,,,,,,,,,,,,,,,,,,,,,,,,,,,,,,,,,,,,,,,,,,,,0.065,,,,,,,,,,,,,,,,,,,,3245.720658,3246.420743,3246.704036,3247.404068,3247.704082,3248.404107,3248.404107,3248.720838,right,1,160,30,190,1,3257.18784,3257.18784,3257.18784,None,None,2,0,0.6067782,,,,,,,space,,,,,,,3238.837039,3238.837039,6.8615245,,,10,20,1,2024-11-27_16h10.03.300,uWM_experiment,2022.2.3,59.99340073
,,,,,,,,,,,,,,,,,,,,7,0,7,0,1,0,1,0,,,,,,,,,,,,,,,,,,,,,,,,,,,,,,,,,,,,,,,,,,,,,,,,,,,,,,,,,,,,,,,,,,,,,,0,,,,,,,,,,,,,,,,,,,,,,,,,,,,left,0,100,30,130,0,3264.654841,3264.654841,3264.654841,None,None,1,1,0.5477145,,,,,,,,,,,,,,,,,,,10,20,1,2024-11-27_16h10.03.300,uWM_experiment,2022.2.3,59.99340073
,,,,,,,,,,,,,,,,,,,,7,0,7,0,2,0,2,0,,,,,,,,,,,,,,,,,,,,,,,,,,,,,,,,,,,,,,,,,,,,,,,,,,,,,,,,,,,,,,,,,,,,,,0.055,,,,,,,,,,,,,,,,,,,,,,,,,,,,right,0,100,-30,70,1,3271.755176,3271.755176,3271.755176,None,None,2,0,0.5593897,,,,,,,,,,,,,,,,,,,10,20,1,2024-11-27_16h10.03.300,uWM_experiment,2022.2.3,59.99340073
,,,,,,,,,,,,,,,,,,,,7,0,7,0,3,0,3,0,,,,,,,,,,,,,,,,,,,,,,,,,,,,,,,,,,,,,,,,,,,,,,,,,,,,,,,,,,,,,,,,,,,,,,0,,,,,,,,,,,,,,,,,,,,,,,,,,,,left,1,10,-30,-20,0,3279.072173,3279.072173,3279.072173,None,None,1,1,1.1144723,,,,,,,,,,,,,,,,,,,10,20,1,2024-11-27_16h10.03.300,uWM_experiment,2022.2.3,59.99340073
,,,,,,,,,,,,,,,,,,,,7,0,7,0,4,0,4,0,,,,,,,,,,,,,,,,,,,,,,,,,,,,,,,,,,,,,,,,,,,,,,,,,,,,,,,,,,,,,,,,,,,,,,0,,,,,,,,,,,,,,,,,,,,,,,,,,,,right,0,130,-30,100,0,3288.339252,3288.339252,3288.339252,None,None,1,1,4.8073928,,,,,,,,,,,,,,,,,,,10,20,1,2024-11-27_16h10.03.300,uWM_experiment,2022.2.3,59.99340073
,,,,,,,,,,,,,,,,,,,,7,0,7,0,5,0,5,0,,,,,,,,,,,,,,,,,,,,,,,,,,,,,,,,,,,,,,,,,,,,,,,,,,,,,,,,,,,,,,,,,,,,,,0.045,,,,,,,,,,,,,,,,,,,,,,,,,,,,left,0,100,30,130,1,3299.623087,3299.623087,3299.623087,None,None,2,0,0.6674007,,,,,,,,,,,,,,,,,,,10,20,1,2024-11-27_16h10.03.300,uWM_experiment,2022.2.3,59.99340073
,,,,,,,,,,,,,,,,,,,,7,0,7,0,6,0,6,0,,,,,,,,,,,,,,,,,,,,,,,,,,,,,,,,,,,,,,,,,,,,,,,,,,,,,,,,,,,,,,,,,,,,,,0.035,,,,,,,,,,,,,,,,,,,,,,,,,,,,left,0,160,30,190,1,3308.590155,3308.590155,3308.590155,None,None,2,0,0.0444617,,,,,,,,,,,,,,,,,,,10,20,1,2024-11-27_16h10.03.300,uWM_experiment,2022.2.3,59.99340073
,,,,,,,,,,,,,,,,,,,,7,0,7,0,7,0,7,0,,,,,,,,,,,,,,,,,,,,,,,,,,,,,,,,,,,,,,,,,,,,,,,,,,,,,,,,,,,,,,,,,,,,,,0,,,,,,,,,,,,,,,,,,,,,,,,,,,,right,1,10,30,40,0,3314.40707,3314.40707,3314.40707,None,None,1,1,0.0515359,,,,,,,,,,,,,,,,,,,10,20,1,2024-11-27_16h10.03.300,uWM_experiment,2022.2.3,59.99340073
,,,,,,,,,,,,,,,,,,,,7,0,7,0,8,0,8,0,,,,,,,,,,,,,,,,,,,,,,,,,,,,,,,,,,,,,,,,,,,,,,,,,,,,,,,,,,,,,,,,,,,,,,0.025,,,,,,,,,,,,,,,,,,,,,,,,,,,,right,1,160,30,190,1,3322.42409,3322.42409,3322.42409,None,None,1,1,0.0984066,,,,,,,,,,,,,,,,,,,10,20,1,2024-11-27_16h10.03.300,uWM_experiment,2022.2.3,59.99340073
,,,,,,,,,,,,,,,,,,,,7,0,7,0,9,0,9,0,,,,,,,,,,,,,,,,,,,,,,,,,,,,,,,,,,,,,,,,,,,,,,,,,,,,,,,,,,,,,,,,,,,,,,0.035,,,,,,,,,,,,,,,,,,,,,,,,,,,,right,1,70,30,100,1,3329.92442,3329.92442,3329.92442,None,None,2,0,0.0381473,,,,,,,,,,,,,,,,,,,10,20,1,2024-11-27_16h10.03.300,uWM_experiment,2022.2.3,59.99340073
,,,,,,,,,,,,,,,,,,,,7,0,7,0,10,0,10,0,,,,,,,,,,,,,,,,,,,,,,,,,,,,,,,,,,,,,,,,,,,,,,,,,,,,,,,,,,,,,,,,,,,,,,0,,,,,,,,,,,,,,,,,,,,,,,,,,,,right,0,130,-30,100,0,3337.124746,3337.124746,3337.124746,None,None,2,0,0.0138802,,,,,,,,,,,,,,,,,,,10,20,1,2024-11-27_16h10.03.300,uWM_experiment,2022.2.3,59.99340073
,,,,,,,,,,,,,,,,,,,,7,0,7,0,11,0,11,0,,,,,,,,,,,,,,,,,,,,,,,,,,,,,,,,,,,,,,,,,,,,,,,,,,,,,,,,,,,,,,,,,,,,,,0,,,,,,,,,,,,,,,,,,,,,,,,,,,,left,0,160,30,190,0,3343.291687,3343.291687,3343.291687,None,None,1,1,0.5269364,,,,,,,,,,,,,,,,,,,10,20,1,2024-11-27_16h10.03.300,uWM_experiment,2022.2.3,59.99340073
,,,,,,,,,,,,,,,,,,,,7,0,7,0,12,0,12,0,,,,,,,,,,,,,,,,,,,,,,,,,,,,,,,,,,,,,,,,,,,,,,,,,,,,,,,,,,,,,,,,,,,,,,0.025,,,,,,,,,,,,,,,,,,,,,,,,,,,,right,1,40,30,70,1,3349.925318,3349.925318,3349.925318,None,None,1,1,0.0532108,,,,,,,,,,,,,,,,,,,10,20,1,2024-11-27_16h10.03.300,uWM_experiment,2022.2.3,59.99340073
,,,,,,,,,,,,,,,,,,,,7,0,7,0,13,0,13,0,,,,,,,,,,,,,,,,,,,,,,,,,,,,,,,,,,,,,,,,,,,,,,,,,,,,,,,,,,,,,,,,,,,,,,0.035,,,,,,,,,,,,,,,,,,,,,,,,,,,,right,1,160,30,190,1,3356.792285,3356.792285,3356.792285,None,None,1,1,0.0824104,,,,,,,,,,,,,,,,,,,10,20,1,2024-11-27_16h10.03.300,uWM_experiment,2022.2.3,59.99340073
,,,,,,,,,,,,,,,,,,,,7,0,7,0,14,0,14,0,,,,,,,,,,,,,,,,,,,,,,,,,,,,,,,,,,,,,,,,,,,,,,,,,,,,,,,,,,,,,,,,,,,,,,0.045,,,,,,,,,,,,,,,,,,,,,,,,,,,,left,1,130,-30,100,1,3362.609237,3362.609237,3362.609237,None,None,2,0,0.0493622,,,,,,,,,,,,,,,,,,,10,20,1,2024-11-27_16h10.03.300,uWM_experiment,2022.2.3,59.99340073
,,,,,,,,,,,,,,,,,,,,7,0,7,0,15,0,15,0,,,,,,,,,,,,,,,,,,,,,,,,,,,,,,,,,,,,,,,,,,,,,,,,,,,,,,,,,,,,,,,,,,,,,,0.035,,,,,,,,,,,,,,,,,,,,,,,,,,,,left,0,70,30,100,1,3370.409582,3370.409582,3370.409582,None,None,2,0,0.5209702,,,,,,,,,,,,,,,,,,,10,20,1,2024-11-27_16h10.03.300,uWM_experiment,2022.2.3,59.99340073
,,,,,,,,,,,,,,,,,,,,7,0,7,0,16,0,16,0,,,,,,,,,,,,,,,,,,,,,,,,,,,,,,,,,,,,,,,,,,,,,,,,,,,,,,,,,,,,,,,,,,,,,,0.025,,,,,,,,,,,,,,,,,,,,,,,,,,,,right,1,130,30,160,1,3376.609837,3376.609837,3376.609837,None,None,2,0,0.5608052,,,,,,,,,,,,,,,,,,,10,20,1,2024-11-27_16h10.03.300,uWM_experiment,2022.2.3,59.99340073
,,,,,,,,,,,,,,,,,,,,7,0,7,0,17,0,17,0,,,,,,,,,,,,,,,,,,,,,,,,,,,,,,,,,,,,,,,,,,,,,,,,,,,,,,,,,,,,,,,,,,,,,,0.015,,,,,,,,,,,,,,,,,,,,,,,,,,,,left,0,40,30,70,1,3383.093476,3383.093476,3383.093476,None,None,2,0,0.0851403,,,,,,,,,,,,,,,,,,,10,20,1,2024-11-27_16h10.03.300,uWM_experiment,2022.2.3,59.99340073
,,,,,,,,,,,,,,,,,,,,7,0,7,0,18,0,18,0,,,,,,,,,,,,,,,,,,,,,,,,,,,,,,,,,,,,,,,,,,,,,,,,,,,,,,,,,,,,,,,,,,,,,,0,,,,,,,,,,,,,,,,,,,,,,,,,,,,right,1,70,30,100,0,3389.160424,3389.160424,3389.160424,None,None,1,1,0.0982848,,,,,,,,,,,,,,,,,,,10,20,1,2024-11-27_16h10.03.300,uWM_experiment,2022.2.3,59.99340073
,,,,,,,,,,,,,,,,,,,,7,0,7,0,19,0,19,0,,,,,,,,,,,,,,,,,,,,,,,,,,,,,,,,,,,,,,,,,,,,,,,,,,,,,,,,,,,,,,,,,,,,,,0.005,,,,,,,,,,,,,,,,,,,,,,,,,,,,right,1,130,30,160,1,3397.710803,3397.710803,3397.710803,None,None,1,1,0.8758068,,,,,,,,,,,,,,,,,,,10,20,1,2024-11-27_16h10.03.300,uWM_experiment,2022.2.3,59.99340073
,,,,,,,,,,,,,,,,,,,,7,0,7,0,20,0,20,0,,,,,,,,,,,,,,,,,,,,,,,,,,,,,,,,,,,,,,,,,,,,,,,,,,,,,,,,,,,,,,,,,,,,,,0.1,,,,,,,,,,,,,,,,,,,,,,,,,,,,right,1,130,30,160,2,3407.244561,3407.244561,3407.244561,None,None,4,0,3.0060496,,,,,,,,,,,,,,,,,,,10,20,1,2024-11-27_16h10.03.300,uWM_experiment,2022.2.3,59.99340073
,,,,,,,,,,,,,,,,,,,,7,0,7,0,21,0,21,0,,,,,,,,,,,,,,,,,,,,,,,,,,,,,,,,,,,,,,,,,,,,,,,,,,,,,,,,,,,,,,,,,,,,,,0.015,,,,,,,,,,,,,,,,,,,,,,,,,,,,right,0,40,-30,10,1,3419.128412,3419.128412,3419.128412,None,None,1,1,0.090359,,,,,,,,,,,,,,,,,,,10,20,1,2024-11-27_16h10.03.300,uWM_experiment,2022.2.3,59.99340073
,,,,,,,,,,,,,,,,,,,,7,0,7,0,22,0,22,0,,,,,,,,,,,,,,,,,,,,,,,,,,,,,,,,,,,,,,,,,,,,,,,,,,,,,,,,,,,,,,,,,,,,,,0,,,,,,,,,,,,,,,,,,,,,,,,,,,,left,1,40,-30,10,0,3427.062094,3427.062094,3427.062094,None,None,1,1,0.0765632,,,,,,,,,,,,,,,,,,,10,20,1,2024-11-27_16h10.03.300,uWM_experiment,2022.2.3,59.99340073
,,,,,,,,,,,,,,,,,,,,7,0,7,0,23,0,23,0,,,,,,,,,,,,,,,,,,,,,,,,,,,,,,,,,,,,,,,,,,,,,,,,,,,,,,,,,,,,,,,,,,,,,,0.025,,,,,,,,,,,,,,,,,,,,,,,,,,,,right,1,70,30,100,1,3433.229052,3433.229052,3433.229052,None,None,2,0,0.0295385,,,,,,,,,,,,,,,,,,,10,20,1,2024-11-27_16h10.03.300,uWM_experiment,2022.2.3,59.99340073
,,,,,,,,,,,,,,,,,,,,7,0,7,0,,,,,0,0,0,0,,,,,,,,,,,,,,,,,,,,,,,,,,,,,,,,,,,,,,,,,,,,,,,,,,,,,,,,,,,,,,,,,,,,,,,,,,,,,,,,,,,,,,,,,,,,,,,,,,,,,,,,,,,,3433.279027,3433.279027,space,35.8756182,None,None,,,,,,,,,,,,,10,20,1,2024-11-27_16h10.03.300,uWM_experiment,2022.2.3,59.99340073
,,,,,,,,,,,,,,,,,,,,7,0,7,0,,,,,1,0,1,0,,,,,,,,,,,,,,,,,,,,,,,,,,,,,,,,,,,,,,,,,,,,,,,,,,,,,,,,,,,,,,,,,,,,,,,,,,,,,,,,,,,,,,,,,,,,,,,,,,,,,,,,,,,,,,,,,,,,,,,,,,,,,,10,20,1,2024-11-27_16h10.03.300,uWM_experiment,2022.2.3,59.99340073
,,,,,,,,,,,,,,,,,,,,7,0,7,0,,,,,2,0,2,0,,,,,,,,,,,,,,,,,,,,,,,,,,,,,,,,,,,,,,,,,,,,,,,,,,,,,,,,,,,,,,,,,,,,,,,,,,,,,,,,,,,,,,,,,,,,,,,,,,,,,,,,,,,,,,,,,,,,,,,,,,,,,,10,20,1,2024-11-27_16h10.03.300,uWM_experiment,2022.2.3,59.99340073
,,,,,,,,,,,,,,,,,,,,8,0,8,0,0,0,0,0,,,,,,,,,,,,,,,,,,,,,,,,,,,,,,,,,,,,,,,,,,,,,,,,,,,,,,,,,,,,,,,,,,,,,,0.015,,,,,,,,,,,,,,,,,,,,3469.180638,3469.88065,3470.180677,3470.88071,3471.180728,3471.880753,3471.880753,3472.197444,right,0,100,-30,70,1,3477.397673,3477.397673,3477.397673,None,None,2,0,0.0209656,,,,,,,None,,,,,,,,,,,,10,20,1,2024-11-27_16h10.03.300,uWM_experiment,2022.2.3,59.99340073
,,,,,,,,,,,,,,,,,,,,8,0,8,0,1,0,1,0,,,,,,,,,,,,,,,,,,,,,,,,,,,,,,,,,,,,,,,,,,,,,,,,,,,,,,,,,,,,,,,,,,,,,,0.005,,,,,,,,,,,,,,,,,,,,,,,,,,,,right,0,100,-30,70,1,3484.04799,3484.04799,3484.04799,None,None,1,1,0.1626021,,,,,,,,,,,,,,,,,,,10,20,1,2024-11-27_16h10.03.300,uWM_experiment,2022.2.3,59.99340073
,,,,,,,,,,,,,,,,,,,,8,0,8,0,2,0,2,0,,,,,,,,,,,,,,,,,,,,,,,,,,,,,,,,,,,,,,,,,,,,,,,,,,,,,,,,,,,,,,,,,,,,,,0.015,,,,,,,,,,,,,,,,,,,,,,,,,,,,right,0,100,-30,70,1,3491.014951,3491.014951,3491.014951,None,None,1,1,0.3716604,,,,,,,,,,,,,,,,,,,10,20,1,2024-11-27_16h10.03.300,uWM_experiment,2022.2.3,59.99340073
,,,,,,,,,,,,,,,,,,,,8,0,8,0,3,0,3,0,,,,,,,,,,,,,,,,,,,,,,,,,,,,,,,,,,,,,,,,,,,,,,,,,,,,,,,,,,,,,,,,,,,,,,0.025,,,,,,,,,,,,,,,,,,,,,,,,,,,,left,0,160,30,190,1,3498.798638,3498.798638,3498.798638,None,None,2,0,2.9080471,,,,,,,,,,,,,,,,,,,10,20,1,2024-11-27_16h10.03.300,uWM_experiment,2022.2.3,59.99340073
,,,,,,,,,,,,,,,,,,,,8,0,8,0,4,0,4,0,,,,,,,,,,,,,,,,,,,,,,,,,,,,,,,,,,,,,,,,,,,,,,,,,,,,,,,,,,,,,,,,,,,,,,0.015,,,,,,,,,,,,,,,,,,,,,,,,,,,,right,0,100,-30,70,1,3507.449018,3507.449018,3507.449018,None,None,1,1,0.5136653,,,,,,,,,,,,,,,,,,,10,20,1,2024-11-27_16h10.03.300,uWM_experiment,2022.2.3,59.99340073
,,,,,,,,,,,,,,,,,,,,8,0,8,0,5,0,5,0,,,,,,,,,,,,,,,,,,,,,,,,,,,,,,,,,,,,,,,,,,,,,,,,,,,,,,,,,,,,,,,,,,,,,,0,,,,,,,,,,,,,,,,,,,,,,,,,,,,right,1,40,30,70,0,3523.783081,3523.783081,3523.783081,None,None,1,1,0.2675318,,,,,,,,,,,,,,,,,,,10,20,1,2024-11-27_16h10.03.300,uWM_experiment,2022.2.3,59.99340073
,,,,,,,,,,,,,,,,,,,,8,0,8,0,6,0,6,0,,,,,,,,,,,,,,,,,,,,,,,,,,,,,,,,,,,,,,,,,,,,,,,,,,,,,,,,,,,,,,,,,,,,,,0,,,,,,,,,,,,,,,,,,,,,,,,,,,,right,0,10,-30,-20,0,3532.850152,3532.850152,3532.850152,None,None,1,1,1.0245201,,,,,,,,,,,,,,,,,,,10,20,1,2024-11-27_16h10.03.300,uWM_experiment,2022.2.3,59.99340073
,,,,,,,,,,,,,,,,,,,,8,0,8,0,7,0,7,0,,,,,,,,,,,,,,,,,,,,,,,,,,,,,,,,,,,,,,,,,,,,,,,,,,,,,,,,,,,,,,,,,,,,,,0.025,,,,,,,,,,,,,,,,,,,,,,,,,,,,left,1,10,-30,-20,1,3540.400505,3540.400505,3540.400505,None,None,2,0,0.098298,,,,,,,,,,,,,,,,,,,10,20,1,2024-11-27_16h10.03.300,uWM_experiment,2022.2.3,59.99340073
,,,,,,,,,,,,,,,,,,,,8,0,8,0,8,0,8,0,,,,,,,,,,,,,,,,,,,,,,,,,,,,,,,,,,,,,,,,,,,,,,,,,,,,,,,,,,,,,,,,,,,,,,0.015,,,,,,,,,,,,,,,,,,,,,,,,,,,,right,1,40,30,70,1,3546.400771,3546.400771,3546.400771,None,None,2,0,0.0339919,,,,,,,,,,,,,,,,,,,10,20,1,2024-11-27_16h10.03.300,uWM_experiment,2022.2.3,59.99340073
,,,,,,,,,,,,,,,,,,,,8,0,8,0,9,0,9,0,,,,,,,,,,,,,,,,,,,,,,,,,,,,,,,,,,,,,,,,,,,,,,,,,,,,,,,,,,,,,,,,,,,,,,0,,,,,,,,,,,,,,,,,,,,,,,,,,,,left,1,70,-30,40,0,3552.517675,3552.517675,3552.517675,None,None,1,1,1.2369449,,,,,,,,,,,,,,,,,,,10,20,1,2024-11-27_16h10.03.300,uWM_experiment,2022.2.3,59.99340073
,,,,,,,,,,,,,,,,,,,,8,0,8,0,10,0,10,0,,,,,,,,,,,,,,,,,,,,,,,,,,,,,,,,,,,,,,,,,,,,,,,,,,,,,,,,,,,,,,,,,,,,,,0,,,,,,,,,,,,,,,,,,,,,,,,,,,,left,0,10,30,40,0,3560.984756,3560.984756,3560.984756,None,None,1,1,0.0419219,,,,,,,,,,,,,,,,,,,10,20,1,2024-11-27_16h10.03.300,uWM_experiment,2022.2.3,59.99340073
,,,,,,,,,,,,,,,,,,,,8,0,8,0,11,0,11,0,,,,,,,,,,,,,,,,,,,,,,,,,,,,,,,,,,,,,,,,,,,,,,,,,,,,,,,,,,,,,,,,,,,,,,0.005,,,,,,,,,,,,,,,,,,,,,,,,,,,,left,0,10,30,40,1,3568.735102,3568.735102,3568.735102,None,None,1,1,0.6596658,,,,,,,,,,,,,,,,,,,10,20,1,2024-11-27_16h10.03.300,uWM_experiment,2022.2.3,59.99340073
,,,,,,,,,,,,,,,,,,,,8,0,8,0,12,0,12,0,,,,,,,,,,,,,,,,,,,,,,,,,,,,,,,,,,,,,,,,,,,,,,,,,,,,,,,,,,,,,,,,,,,,,,0,,,,,,,,,,,,,,,,,,,,,,,,,,,,left,1,40,-30,10,0,3576.452132,3576.452132,3576.452132,None,None,1,1,0.0306396,,,,,,,,,,,,,,,,,,,10,20,1,2024-11-27_16h10.03.300,uWM_experiment,2022.2.3,59.99340073
,,,,,,,,,,,,,,,,,,,,8,0,8,0,13,0,13,0,,,,,,,,,,,,,,,,,,,,,,,,,,,,,,,,,,,,,,,,,,,,,,,,,,,,,,,,,,,,,,,,,,,,,,0,,,,,,,,,,,,,,,,,,,,,,,,,,,,right,0,40,-30,10,0,3586.119208,3586.119208,3586.119208,None,None,2,0,0.0435871,,,,,,,,,,,,,,,,,,,10,20,1,2024-11-27_16h10.03.300,uWM_experiment,2022.2.3,59.99340073
,,,,,,,,,,,,,,,,,,,,8,0,8,0,14,0,14,0,,,,,,,,,,,,,,,,,,,,,,,,,,,,,,,,,,,,,,,,,,,,,,,,,,,,,,,,,,,,,,,,,,,,,,0.015,,,,,,,,,,,,,,,,,,,,,,,,,,,,left,1,100,-30,70,1,3595.702976,3595.702976,3595.702976,None,None,1,1,0.8196697,,,,,,,,,,,,,,,,,,,10,20,1,2024-11-27_16h10.03.300,uWM_experiment,2022.2.3,59.99340073
,,,,,,,,,,,,,,,,,,,,8,0,8,0,15,0,15,0,,,,,,,,,,,,,,,,,,,,,,,,,,,,,,,,,,,,,,,,,,,,,,,,,,,,,,,,,,,,,,,,,,,,,,0.025,,,,,,,,,,,,,,,,,,,,,,,,,,,,right,1,40,30,70,1,3603.453315,3603.453315,3603.453315,None,None,1,1,0.1095094,,,,,,,,,,,,,,,,,,,10,20,1,2024-11-27_16h10.03.300,uWM_experiment,2022.2.3,59.99340073
,,,,,,,,,,,,,,,,,,,,8,0,8,0,16,0,16,0,,,,,,,,,,,,,,,,,,,,,,,,,,,,,,,,,,,,,,,,,,,,,,,,,,,,,,,,,,,,,,,,,,,,,,0.035,,,,,,,,,,,,,,,,,,,,,,,,,,,,left,0,130,30,160,1,3610.720306,3610.720306,3610.720306,None,None,2,0,0.0424832,,,,,,,,,,,,,,,,,,,10,20,1,2024-11-27_16h10.03.300,uWM_experiment,2022.2.3,59.99340073
,,,,,,,,,,,,,,,,,,,,8,0,8,0,17,0,17,0,,,,,,,,,,,,,,,,,,,,,,,,,,,,,,,,,,,,,,,,,,,,,,,,,,,,,,,,,,,,,,,,,,,,,,0.025,,,,,,,,,,,,,,,,,,,,,,,,,,,,right,0,100,-30,70,1,3616.720572,3616.720572,3616.720572,None,None,2,0,0.0662534,,,,,,,,,,,,,,,,,,,10,20,1,2024-11-27_16h10.03.300,uWM_experiment,2022.2.3,59.99340073
,,,,,,,,,,,,,,,,,,,,8,0,8,0,18,0,18,0,,,,,,,,,,,,,,,,,,,,,,,,,,,,,,,,,,,,,,,,,,,,,,,,,,,,,,,,,,,,,,,,,,,,,,0,,,,,,,,,,,,,,,,,,,,,,,,,,,,left,0,130,30,160,0,3622.487501,3622.487501,3622.487501,None,None,2,0,0.0833083,,,,,,,,,,,,,,,,,,,10,20,1,2024-11-27_16h10.03.300,uWM_experiment,2022.2.3,59.99340073
,,,,,,,,,,,,,,,,,,,,8,0,8,0,19,0,19,0,,,,,,,,,,,,,,,,,,,,,,,,,,,,,,,,,,,,,,,,,,,,,,,,,,,,,,,,,,,,,,,,,,,,,,0,,,,,,,,,,,,,,,,,,,,,,,,,,,,right,0,40,-30,10,0,3628.70447,3628.70447,3628.70447,None,None,1,1,0.0262788,,,,,,,,,,,,,,,,,,,10,20,1,2024-11-27_16h10.03.300,uWM_experiment,2022.2.3,59.99340073
,,,,,,,,,,,,,,,,,,,,8,0,8,0,20,0,20,0,,,,,,,,,,,,,,,,,,,,,,,,,,,,,,,,,,,,,,,,,,,,,,,,,,,,,,,,,,,,,,,,,,,,,,0.015,,,,,,,,,,,,,,,,,,,,,,,,,,,,left,0,160,30,190,1,3634.988041,3634.988041,3634.988041,None,None,1,1,0.0467642,,,,,,,,,,,,,,,,,,,10,20,1,2024-11-27_16h10.03.300,uWM_experiment,2022.2.3,59.99340073
,,,,,,,,,,,,,,,,,,,,8,0,8,0,21,0,21,0,,,,,,,,,,,,,,,,,,,,,,,,,,,,,,,,,,,,,,,,,,,,,,,,,,,,,,,,,,,,,,,,,,,,,,0.025,,,,,,,,,,,,,,,,,,,,,,,,,,,,left,1,130,-30,100,1,3641.288337,3641.288337,3641.288337,None,None,1,1,0.0343121,,,,,,,,,,,,,,,,,,,10,20,1,2024-11-27_16h10.03.300,uWM_experiment,2022.2.3,59.99340073
,,,,,,,,,,,,,,,,,,,,8,0,8,0,22,0,22,0,,,,,,,,,,,,,,,,,,,,,,,,,,,,,,,,,,,,,,,,,,,,,,,,,,,,,,,,,,,,,,,,,,,,,,0.035,,,,,,,,,,,,,,,,,,,,,,,,,,,,left,0,100,30,130,1,3647.538622,3647.538622,3647.538622,None,None,1,1,0.0481849,,,,,,,,,,,,,,,,,,,10,20,1,2024-11-27_16h10.03.300,uWM_experiment,2022.2.3,59.99340073
,,,,,,,,,,,,,,,,,,,,8,0,8,0,23,0,23,0,,,,,,,,,,,,,,,,,,,,,,,,,,,,,,,,,,,,,,,,,,,,,,,,,,,,,,,,,,,,,,,,,,,,,,0.045,,,,,,,,,,,,,,,,,,,,,,,,,,,,right,1,70,30,100,1,3661.58924,3661.58924,3661.58924,None,None,2,0,0.0374848,,,,,,,,,,,,,,,,,,,10,20,1,2024-11-27_16h10.03.300,uWM_experiment,2022.2.3,59.99340073
,,,,,,,,,,,,,,,,,,,,8,0,8,0,,,,,0,0,0,0,,,,,,,,,,,,,,,,,,,,,,,,,,,,,,,,,,,,,,,,,,,,,,,,,,,,,,,,,,,,,,,,,,,,,,,,,,,,,,,,,,,,,,,,,,,,,,,,,,,,,,,,,,,,3661.655909,3661.655909,space,17.7308342,space,None,,3679.406726,3679.406726,4.1001107,,,,,,,,,10,20,1,2024-11-27_16h10.03.300,uWM_experiment,2022.2.3,59.99340073
,,,,,,,,,,,,,,,,,,,,8,0,8,0,,,,,1,0,1,0,,,,,,,,,,,,,,,,,,,,,,,,,,,,,,,,,,,,,,,,,,,,,,,,,,,,,,,,,,,,,,,,,,,,,,,,,,,,,,,,,,,,,,,,,,,,,,,,,,,,,,,,,,,,,,,,,,,,,,,,,,,,,,10,20,1,2024-11-27_16h10.03.300,uWM_experiment,2022.2.3,59.99340073
,,,,,,,,,,,,,,,,,,,,8,0,8,0,,,,,2,0,2,0,,,,,,,,,,,,,,,,,,,,,,,,,,,,,,,,,,,,,,,,,,,,,,,,,,,,,,,,,,,,,,,,,,,,,,,,,,,,,,,,,,,,,,,,,,,,,,,,,,,,,,,,,,,,,,,,,,,,,,,,,,,,,,10,20,1,2024-11-27_16h10.03.300,uWM_experiment,2022.2.3,59.99340073
,,,,,,,,,,,,,,,,,,,,9,0,9,0,0,0,0,0,,,,,,,,,,,,,,,,,,,,,,,,,,,,,,,,,,,,,,,,,,,,,,,,,,,,,,,,,,,,,,,,,,,,,,0.035,,,,,,,,,,,,,,,,,,,,3683.523535,3684.223561,3684.523576,3685.223607,3685.523623,3686.223667,3686.223667,3686.540362,right,0,160,-30,130,1,3693.02395,3693.02395,3693.02395,None,None,2,0,0.0268199,,,,,,,None,,,,,,,,,,,,10,20,1,2024-11-27_16h10.03.300,uWM_experiment,2022.2.3,59.99340073
,,,,,,,,,,,,,,,,,,,,9,0,9,0,1,0,1,0,,,,,,,,,,,,,,,,,,,,,,,,,,,,,,,,,,,,,,,,,,,,,,,,,,,,,,,,,,,,,,,,,,,,,,0.025,,,,,,,,,,,,,,,,,,,,,,,,,,,,right,0,70,-30,40,1,3701.591024,3701.591024,3701.591024,None,None,2,0,0.0196344,,,,,,,,,,,,,,,,,,,10,20,1,2024-11-27_16h10.03.300,uWM_experiment,2022.2.3,59.99340073
,,,,,,,,,,,,,,,,,,,,9,0,9,0,2,0,2,0,,,,,,,,,,,,,,,,,,,,,,,,,,,,,,,,,,,,,,,,,,,,,,,,,,,,,,,,,,,,,,,,,,,,,,0.015,,,,,,,,,,,,,,,,,,,,,,,,,,,,left,0,70,30,100,1,3707.40795,3707.40795,3707.40795,None,None,2,0,0.0588389,,,,,,,,,,,,,,,,,,,10,20,1,2024-11-27_16h10.03.300,uWM_experiment,2022.2.3,59.99340073
,,,,,,,,,,,,,,,,,,,,9,0,9,0,3,0,3,0,,,,,,,,,,,,,,,,,,,,,,,,,,,,,,,,,,,,,,,,,,,,,,,,,,,,,,,,,,,,,,,,,,,,,,0,,,,,,,,,,,,,,,,,,,,,,,,,,,,left,1,130,-30,100,0,3714.958291,3714.958291,3714.958291,None,None,2,0,0.0363995,,,,,,,,,,,,,,,,,,,10,20,1,2024-11-27_16h10.03.300,uWM_experiment,2022.2.3,59.99340073
,,,,,,,,,,,,,,,,,,,,9,0,9,0,4,0,4,0,,,,,,,,,,,,,,,,,,,,,,,,,,,,,,,,,,,,,,,,,,,,,,,,,,,,,,,,,,,,,,,,,,,,,,0.005,,,,,,,,,,,,,,,,,,,,,,,,,,,,right,0,160,-30,130,1,3722.708633,3722.708633,3722.708633,None,None,2,0,0.0060708,,,,,,,,,,,,,,,,,,,10,20,1,2024-11-27_16h10.03.300,uWM_experiment,2022.2.3,59.99340073
,,,,,,,,,,,,,,,,,,,,9,0,9,0,5,0,5,0,,,,,,,,,,,,,,,,,,,,,,,,,,,,,,,,,,,,,,,,,,,,,,,,,,,,,,,,,,,,,,,,,,,,,,0.1,,,,,,,,,,,,,,,,,,,,,,,,,,,,left,1,10,-30,-20,2,3730.50898,3730.50898,3730.50898,None,None,4,0,0.06982,,,,,,,,,,,,,,,,,,,10,20,1,2024-11-27_16h10.03.300,uWM_experiment,2022.2.3,59.99340073
,,,,,,,,,,,,,,,,,,,,9,0,9,0,6,0,6,0,,,,,,,,,,,,,,,,,,,,,,,,,,,,,,,,,,,,,,,,,,,,,,,,,,,,,,,,,,,,,,,,,,,,,,0,,,,,,,,,,,,,,,,,,,,,,,,,,,,right,0,10,-30,-20,0,3738.092657,3738.092657,3738.092657,None,None,2,0,0.0782298,,,,,,,,,,,,,,,,,,,10,20,1,2024-11-27_16h10.03.300,uWM_experiment,2022.2.3,59.99340073
,,,,,,,,,,,,,,,,,,,,9,0,9,0,7,0,7,0,,,,,,,,,,,,,,,,,,,,,,,,,,,,,,,,,,,,,,,,,,,,,,,,,,,,,,,,,,,,,,,,,,,,,,0.005,,,,,,,,,,,,,,,,,,,,,,,,,,,,left,1,100,-30,70,1,3744.259587,3744.259587,3744.259587,None,None,1,1,0.0951514,,,,,,,,,,,,,,,,,,,10,20,1,2024-11-27_16h10.03.300,uWM_experiment,2022.2.3,59.99340073
,,,,,,,,,,,,,,,,,,,,9,0,9,0,8,0,8,0,,,,,,,,,,,,,,,,,,,,,,,,,,,,,,,,,,,,,,,,,,,,,,,,,,,,,,,,,,,,,,,,,,,,,,0.015,,,,,,,,,,,,,,,,,,,,,,,,,,,,right,1,10,30,40,1,3751.276545,3751.276545,3751.276545,None,None,1,1,0.086159,,,,,,,,,,,,,,,,,,,10,20,1,2024-11-27_16h10.03.300,uWM_experiment,2022.2.3,59.99340073
,,,,,,,,,,,,,,,,,,,,9,0,9,0,9,0,9,0,,,,,,,,,,,,,,,,,,,,,,,,,,,,,,,,,,,,,,,,,,,,,,,,,,,,,,,,,,,,,,,,,,,,,,0.025,,,,,,,,,,,,,,,,,,,,,,,,,,,,left,1,160,-30,130,1,3757.176831,3757.176831,3757.176831,None,None,1,1,0.0579742,,,,,,,,,,,,,,,,,,,10,20,1,2024-11-27_16h10.03.300,uWM_experiment,2022.2.3,59.99340073
,,,,,,,,,,,,,,,,,,,,9,0,9,0,10,0,10,0,,,,,,,,,,,,,,,,,,,,,,,,,,,,,,,,,,,,,,,,,,,,,,,,,,,,,,,,,,,,,,,,,,,,,,0.035,,,,,,,,,,,,,,,,,,,,,,,,,,,,right,1,10,30,40,1,3763.777122,3763.777122,3763.777122,None,None,2,0,0.0257665,,,,,,,,,,,,,,,,,,,10,20,1,2024-11-27_16h10.03.300,uWM_experiment,2022.2.3,59.99340073
,,,,,,,,,,,,,,,,,,,,9,0,9,0,11,0,11,0,,,,,,,,,,,,,,,,,,,,,,,,,,,,,,,,,,,,,,,,,,,,,,,,,,,,,,,,,,,,,,,,,,,,,,0.025,,,,,,,,,,,,,,,,,,,,,,,,,,,,left,1,70,-30,40,1,3769.76072,3769.76072,3769.76072,None,None,1,1,0.058097,,,,,,,,,,,,,,,,,,,10,20,1,2024-11-27_16h10.03.300,uWM_experiment,2022.2.3,59.99340073
,,,,,,,,,,,,,,,,,,,,9,0,9,0,12,0,12,0,,,,,,,,,,,,,,,,,,,,,,,,,,,,,,,,,,,,,,,,,,,,,,,,,,,,,,,,,,,,,,,,,,,,,,0.035,,,,,,,,,,,,,,,,,,,,,,,,,,,,left,1,160,-30,130,1,3776.161021,3776.161021,3776.161021,None,None,1,1,0.7537387,,,,,,,,,,,,,,,,,,,10,20,1,2024-11-27_16h10.03.300,uWM_experiment,2022.2.3,59.99340073
,,,,,,,,,,,,,,,,,,,,9,0,9,0,13,0,13,0,,,,,,,,,,,,,,,,,,,,,,,,,,,,,,,,,,,,,,,,,,,,,,,,,,,,,,,,,,,,,,,,,,,,,,0.045,,,,,,,,,,,,,,,,,,,,,,,,,,,,right,0,70,-30,40,1,3783.694686,3783.694686,3783.694686,None,None,2,0,0.0121136,,,,,,,,,,,,,,,,,,,10,20,1,2024-11-27_16h10.03.300,uWM_experiment,2022.2.3,59.99340073
,,,,,,,,,,,,,,,,,,,,9,0,9,0,14,0,14,0,,,,,,,,,,,,,,,,,,,,,,,,,,,,,,,,,,,,,,,,,,,,,,,,,,,,,,,,,,,,,,,,,,,,,,0.035,,,,,,,,,,,,,,,,,,,,,,,,,,,,right,0,70,-30,40,1,3789.511597,3789.511597,3789.511597,None,None,2,0,0.0753179,,,,,,,,,,,,,,,,,,,10,20,1,2024-11-27_16h10.03.300,uWM_experiment,2022.2.3,59.99340073
,,,,,,,,,,,,,,,,,,,,9,0,9,0,15,0,15,0,,,,,,,,,,,,,,,,,,,,,,,,,,,,,,,,,,,,,,,,,,,,,,,,,,,,,,,,,,,,,,,,,,,,,,0,,,,,,,,,,,,,,,,,,,,,,,,,,,,left,1,130,-30,100,0,3795.461876,3795.461876,3795.461876,None,None,1,1,0.0048411,,,,,,,,,,,,,,,,,,,10,20,1,2024-11-27_16h10.03.300,uWM_experiment,2022.2.3,59.99340073
,,,,,,,,,,,,,,,,,,,,9,0,9,0,16,0,16,0,,,,,,,,,,,,,,,,,,,,,,,,,,,,,,,,,,,,,,,,,,,,,,,,,,,,,,,,,,,,,,,,,,,,,,0.025,,,,,,,,,,,,,,,,,,,,,,,,,,,,left,0,130,30,160,1,3801.995507,3801.995507,3801.995507,None,None,1,1,0.0234002,,,,,,,,,,,,,,,,,,,10,20,1,2024-11-27_16h10.03.300,uWM_experiment,2022.2.3,59.99340073
,,,,,,,,,,,,,,,,,,,,9,0,9,0,17,0,17,0,,,,,,,,,,,,,,,,,,,,,,,,,,,,,,,,,,,,,,,,,,,,,,,,,,,,,,,,,,,,,,,,,,,,,,0,,,,,,,,,,,,,,,,,,,,,,,,,,,,right,1,10,30,40,0,3807.595743,3807.595743,3807.595743,None,None,1,1,0.0471159,,,,,,,,,,,,,,,,,,,10,20,1,2024-11-27_16h10.03.300,uWM_experiment,2022.2.3,59.99340073
,,,,,,,,,,,,,,,,,,,,9,0,9,0,18,0,18,0,,,,,,,,,,,,,,,,,,,,,,,,,,,,,,,,,,,,,,,,,,,,,,,,,,,,,,,,,,,,,,,,,,,,,,0.035,,,,,,,,,,,,,,,,,,,,,,,,,,,,left,1,160,-30,130,1,3815.762781,3815.762781,3815.762781,None,None,2,0,0.6800094,,,,,,,,,,,,,,,,,,,10,20,1,2024-11-27_16h10.03.300,uWM_experiment,2022.2.3,59.99340073
,,,,,,,,,,,,,,,,,,,,9,0,9,0,19,0,19,0,,,,,,,,,,,,,,,,,,,,,,,,,,,,,,,,,,,,,,,,,,,,,,,,,,,,,,,,,,,,,,,,,,,,,,0.025,,,,,,,,,,,,,,,,,,,,,,,,,,,,left,0,100,30,130,1,3826.896618,3826.896618,3826.896618,None,None,1,1,0.0341402,,,,,,,,,,,,,,,,,,,10,20,1,2024-11-27_16h10.03.300,uWM_experiment,2022.2.3,59.99340073
,,,,,,,,,,,,,,,,,,,,9,0,9,0,20,0,20,0,,,,,,,,,,,,,,,,,,,,,,,,,,,,,,,,,,,,,,,,,,,,,,,,,,,,,,,,,,,,,,,,,,,,,,0.035,,,,,,,,,,,,,,,,,,,,,,,,,,,,right,1,10,30,40,1,3833.013552,3833.013552,3833.013552,None,None,2,0,0.6772101,,,,,,,,,,,,,,,,,,,10,20,1,2024-11-27_16h10.03.300,uWM_experiment,2022.2.3,59.99340073
,,,,,,,,,,,,,,,,,,,,9,0,9,0,21,0,21,0,,,,,,,,,,,,,,,,,,,,,,,,,,,,,,,,,,,,,,,,,,,,,,,,,,,,,,,,,,,,,,,,,,,,,,0.025,,,,,,,,,,,,,,,,,,,,,,,,,,,,right,0,40,-30,10,1,3841.713928,3841.713928,3841.713928,None,None,1,1,0.0329115,,,,,,,,,,,,,,,,,,,10,20,1,2024-11-27_16h10.03.300,uWM_experiment,2022.2.3,59.99340073
,,,,,,,,,,,,,,,,,,,,9,0,9,0,22,0,22,0,,,,,,,,,,,,,,,,,,,,,,,,,,,,,,,,,,,,,,,,,,,,,,,,,,,,,,,,,,,,,,,,,,,,,,0.035,,,,,,,,,,,,,,,,,,,,,,,,,,,,right,0,160,-30,130,1,3851.414374,3851.414374,3851.414374,None,None,1,1,0.0523913,,,,,,,,,,,,,,,,,,,10,20,1,2024-11-27_16h10.03.300,uWM_experiment,2022.2.3,59.99340073
,,,,,,,,,,,,,,,,,,,,9,0,9,0,23,0,23,0,,,,,,,,,,,,,,,,,,,,,,,,,,,,,,,,,,,,,,,,,,,,,,,,,,,,,,,,,,,,,,,,,,,,,,0.1,,,,,,,,,,,,,,,,,,,,,,,,,,,,left,1,130,-30,100,2,3860.948112,3860.948112,3860.948112,None,None,4,0,0.1267023,,,,,,,,,,,,,,,,,,,10,20,1,2024-11-27_16h10.03.300,uWM_experiment,2022.2.3,59.99340073
