PreTrainingPAS4_loop.thisRepN,PreTrainingPAS4_loop.thisTrialN,PreTrainingPAS4_loop.thisN,PreTrainingPAS4_loop.thisIndex,PreTrainingPAS1_loop.thisRepN,PreTrainingPAS1_loop.thisTrialN,PreTrainingPAS1_loop.thisN,PreTrainingPAS1_loop.thisIndex,RepeatCV_loop.thisRepN,RepeatCV_loop.thisTrialN,RepeatCV_loop.thisN,RepeatCV_loop.thisIndex,TrainingCV_loop.thisRepN,TrainingCV_loop.thisTrialN,TrainingCV_loop.thisN,TrainingCV_loop.thisIndex,TrainingCAL_loop.thisRepN,TrainingCAL_loop.thisTrialN,TrainingCAL_loop.thisN,TrainingCAL_loop.thisIndex,blocks_loop.thisRepN,blocks_loop.thisTrialN,blocks_loop.thisN,blocks_loop.thisIndex,trials_loop.thisRepN,trials_loop.thisTrialN,trials_loop.thisN,trials_loop.thisIndex,TrainingPAS1_loop.thisRepN,TrainingPAS1_loop.thisTrialN,TrainingPAS1_loop.thisN,TrainingPAS1_loop.thisIndex,spacebarWelcome0.started,spacebarWelcome0.keys,spacebarWelcome0.rt,spacebarWelcome1.started,gaborWelcome1.started,maskWelcome1.started,textMaskWelcome1.started,spacebarWelcome1.keys,spacebarWelcome1.rt,spacebarWelcome2.started,spacebarWelcome2.keys,spacebarWelcome2.rt,textInst_PreTrainingPAS4.started,spacebarPreTrainingPAS4.started,spacebarPreTrainingPAS4.keys,spacebarPreTrainingPAS4.rt,textPreTrainingPAS1.started,spacebarPreTrainingPAS1.started,spacebarPreTrainingPAS1.keys,spacebarPreTrainingPAS1.rt,textQUEST0.started,spacebarQUEST0.started,spacebarQUEST0.keys,spacebarQUEST0.rt,spacebar0.started,spacebar0.keys,spacebar0.rt,spacebar1.started,spacebar1.keys,spacebar1.rt,textInstructions2.started,spacebar2.started,Gabor1Inst2.started,Gabor2Inst2.started,Gabor3Inst2.started,Gabor4Inst2.started,spacebar2.keys,spacebar2.rt,textInstructionsPAS.started,spacebarInstPAS.started,spacebarInstPAS.keys,spacebarInstPAS.rt,textInstructions3.started,spacebar3.started,spacebar3.keys,spacebar3.rt,WMresp_CV,WMresp_CV_acc,oriMemo_CV,gyre_CV,oriTest_CV,feedbackText.started,feedbackText.stopped,sliderCV.started,PAStextCV.started,PASkeyCV.started,sliderCV.response,sliderCV.rt,PASkeyCV.keys,PASkeyCV.corr,PASkeyCV.rt,TextInstructionsCAL.started,spacebarCAL.started,spacebarCAL.keys,spacebarCAL.rt,contrast,WMresp_CAL,WMresp_CAL_acc,oriMemo_CAL,gyre_CAL,oriTest_CAL,cue_CAL,sliderCAL.started,PAStextCAL.started,PASkeyCAL.started,sliderCAL.response,sliderCAL.rt,PASkeyCAL.keys,PASkeyCAL.corr,PASkeyCAL.rt,propUnseen_CAL,textStart.started,spacebar4.started,spacebar4.keys,spacebar4.rt,three.started,three.stopped,two.started,two.stopped,one.started,one.stopped,blank_countdown.started,blank_countdown.stopped,WMresp,WMresp_acc,oriMemo,gyre,oriTest,cue,slider.started,textPAS_firstGabor.started,PASkey.started,slider.response,slider.rt,PASkey.keys,PASkey.corr,PASkey.rt,spacebarContinue.started,textBreak.started,spacebarContinue.keys,spacebarContinue.rt,spacebar_reminder.keys,spacebar_TrainingPAS1.keys,spacebar_endpractice.keys,spacebar_reminder.started,textReminder.started,spacebar_reminder.rt,textInst_TrainingPAS1.started,spacebar_TrainingPAS1.started,spacebar_TrainingPAS1.rt,textend_practicePAS1.started,spacebar_endpractice.started,spacebar_endpractice.rt,textThanks.started,textThanks.stopped,laboratory,participant,session,date,expName,psychopyVersion,frameRate
,,,,,,,,,,,,,,,,,,,,,,,,,,,,,,,,198.5690996,space,23.3686722,,,,,,,,,,,,,,,,,,,,,,,,,,,,,,,,,,,,,,,,,,,,,,,,,,,,,,,,,,,,,,,,,,,,,,,,,,,,,,,,,,,,,,,,,,,,,,,,,,,,,,,,,,,,,,,,,,,,,,,,,,,10,22,1,2024-12-18_12h08.22.655,uWM_experiment,2022.2.3,59.99109732
,,,,,,,,,,,,,,,,,,,,,,,,,,,,,,,,,,,221.9863533,221.9863533,221.9863533,221.9863533,space,22.5834023,,,,,,,,,,,,,,,,,,,,,,,,,,,,,,,,,,,,,,,,,,,,,,,,,,,,,,,,,,,,,,,,,,,,,,,,,,,,,,,,,,,,,,,,,,,,,,,,,,,,,,,,,,,,,,,,,,,,,10,22,1,2024-12-18_12h08.22.655,uWM_experiment,2022.2.3,59.99109732
,,,,,,,,,,,,,,,,,,,,,,,,,,,,,,,,,,,,,,,,,244.5872276,space,30.5102491,,,,,,,,,,,,,,,,,,,,,,,,,,,,,,,,,,,,,,,,,,,,,,,,,,,,,,,,,,,,,,,,,,,,,,,,,,,,,,,,,,,,,,,,,,,,,,,,,,,,,,,,,,,,,,,,,,10,22,1,2024-12-18_12h08.22.655,uWM_experiment,2022.2.3,59.99109732
,,,,,,,,,,,,,,,,,,,,,,,,,,,,,,,,,,,,,,,,,,,,275.1217394,275.1217394,space,15.7037194,,,,,,,,,,,,,,,,,,,,,,,,,,,,,,,,,,,,,,,,,,,,,,,,,,,,,,,,,,,,,,,,,,,,,,,,,,,,,,,,,,,,,,,,,,,,,,,,,,,,,,,,,,,,,,10,22,1,2024-12-18_12h08.22.655,uWM_experiment,2022.2.3,59.99109732
0,0,0,0,,,,,,,,,,,,,,,,,,,,,,,,,,,,,,,,,,,,,,,,,,,,,,,,,,,,,,,,,,,,,,,,,,,,,,,,,,,,,,,,,,,,,,,,,,,,,,,,,,,,,,,,,,,,,,,,,,,,,,,,,,,,,,,,,,,,,,,,,,,,,,,,,,,,,,,,,,10,22,1,2024-12-18_12h08.22.655,uWM_experiment,2022.2.3,59.99109732
1,0,1,0,,,,,,,,,,,,,,,,,,,,,,,,,,,,,,,,,,,,,,,,,,,,,,,,,,,,,,,,,,,,,,,,,,,,,,,,,,,,,,,,,,,,,,,,,,,,,,,,,,,,,,,,,,,,,,,,,,,,,,,,,,,,,,,,,,,,,,,,,,,,,,,,,,,,,,,,,,10,22,1,2024-12-18_12h08.22.655,uWM_experiment,2022.2.3,59.99109732
2,0,2,0,,,,,,,,,,,,,,,,,,,,,,,,,,,,,,,,,,,,,,,,,,,,,,,,,,,,,,,,,,,,,,,,,,,,,,,,,,,,,,,,,,,,,,,,,,,,,,,,,,,,,,,,,,,,,,,,,,,,,,,,,,,,,,,,,,,,,,,,,,,,,,,,,,,,,,,,,,10,22,1,2024-12-18_12h08.22.655,uWM_experiment,2022.2.3,59.99109732
,,,,,,,,,,,,,,,,,,,,,,,,,,,,,,,,,,,,,,,,,,,,,,,,333.7073498,333.7073498,space,22.7737678,,,,,,,,,,,,,,,,,,,,,,,,,,,,,,,,,,,,,,,,,,,,,,,,,,,,,,,,,,,,,,,,,,,,,,,,,,,,,,,,,,,,,,,,,,,,,,,,,,,,,,,,,,10,22,1,2024-12-18_12h08.22.655,uWM_experiment,2022.2.3,59.99109732
,,,,0,0,0,0,,,,,,,,,,,,,,,,,,,,,,,,,,,,,,,,,,,,,,,,,,,,,,,,,,,,,,,,,,,,,,,,,,,,,,,,,,,,,,,,,,,,,,,,,,,,,,,,,,,,,,,,,,,,,,,,,,,,,,,,,,,,,,,,,,,,,,,,,,,,,,,,,,,,,,10,22,1,2024-12-18_12h08.22.655,uWM_experiment,2022.2.3,59.99109732
,,,,1,0,1,0,,,,,,,,,,,,,,,,,,,,,,,,,,,,,,,,,,,,,,,,,,,,,,,,,,,,,,,,,,,,,,,,,,,,,,,,,,,,,,,,,,,,,,,,,,,,,,,,,,,,,,,,,,,,,,,,,,,,,,,,,,,,,,,,,,,,,,,,,,,,,,,,,,,,,,10,22,1,2024-12-18_12h08.22.655,uWM_experiment,2022.2.3,59.99109732
,,,,2,0,2,0,,,,,,,,,,,,,,,,,,,,,,,,,,,,,,,,,,,,,,,,,,,,,,,,,,,,,,,,,,,,,,,,,,,,,,,,,,,,,,,,,,,,,,,,,,,,,,,,,,,,,,,,,,,,,,,,,,,,,,,,,,,,,,,,,,,,,,,,,,,,,,,,,,,,,,10,22,1,2024-12-18_12h08.22.655,uWM_experiment,2022.2.3,59.99109732
,,,,,,,,,,,,,,,,,,,,,,,,,,,,,,,,,,,,,,,,,,,,,,,,,,,,363.8418518,363.8418518,space,7.9912459,,,,,,,,,,,,,,,,,,,,,,,,,,,,,,,,,,,,,,,,,,,,,,,,,,,,,,,,,,,,,,,,,,,,,,,,,,,,,,,,,,,,,,,,,,,,,,,,,,,,,,10,22,1,2024-12-18_12h08.22.655,uWM_experiment,2022.2.3,59.99109732
,,,,,,,,,,,,,,,,,,,,,,,,,,,,,,,,,,,,,,,,,,,,,,,,,,,,,,,,502.047254,space,21.7129979,,,,,,,,,,,,,,,,,,,,,,,,,,,,,,,,,,,,,,,,,,,,,,,,,,,,,,,,,,,,,,,,,,,,,,,,,,,,,,,,,,,,,,,,,,,,,,,,,,,10,22,1,2024-12-18_12h08.22.655,uWM_experiment,2022.2.3,59.99109732
,,,,,,,,,,,,,,,,,,,,,,,,,,,,,,,,,,,,,,,,,,,,,,,,,,,,,,,,,,,523.7814221,space,68.5064918,,,,,,,,,,,,,,,,,,,,,,,,,,,,,,,,,,,,,,,,,,,,,,,,,,,,,,,,,,,,,,,,,,,,,,,,,,,,,,,,,,,,,,,,,,,,,,,,10,22,1,2024-12-18_12h08.22.655,uWM_experiment,2022.2.3,59.99109732
,,,,,,,,,,,,,,,,,,,,,,,,,,,,,,,,,,,,,,,,,,,,,,,,,,,,,,,,,,,,,,592.317432,592.317432,592.317432,592.317432,592.317432,592.317432,space,26.1703453,,,,,,,,,,,,,,,,,,,,,,,,,,,,,,,,,,,,,,,,,,,,,,,,,,,,,,,,,,,,,,,,,,,,,,,,,,,,,,,,,,,,,,,,10,22,1,2024-12-18_12h08.22.655,uWM_experiment,2022.2.3,59.99109732
,,,,,,,,,,,,,,,,,,,,,,,,,,,,,,,,,,,,,,,,,,,,,,,,,,,,,,,,,,,,,,,,,,,,,,618.5184605,618.5184605,space,27.7771312,,,,,,,,,,,,,,,,,,,,,,,,,,,,,,,,,,,,,,,,,,,,,,,,,,,,,,,,,,,,,,,,,,,,,,,,,,,,,,,,,,,,10,22,1,2024-12-18_12h08.22.655,uWM_experiment,2022.2.3,59.99109732
,,,,,,,,,,,,,,,,,,,,,,,,,,,,,,,,,,,,,,,,,,,,,,,,,,,,,,,,,,,,,,,,,,,,,,,,,,646.3195413,646.3195413,space,21.0080336,,,,,,,,,,,,,,,,,,,,,,,,,,,,,,,,,,,,,,,,,,,,,,,,,,,,,,,,,,,,,,,,,,,,,,,,,,,,,,,,10,22,1,2024-12-18_12h08.22.655,uWM_experiment,2022.2.3,59.99109732
,,,,,,,,0,0,0,0,0,0,0,0,,,,,,,,,,,,,,,,,,,,,,,,,,,,,,,,,,,,,,,,,,,,,,,,,,,,,,,,,,,,,,,right,1,40,30,70,675.1373357,676.1373818,676.1373818,676.1373818,676.1373818,None,None,4,0,2.7661328,,,,,,,,,,,,,,,,,,,,,,,,,,,,,,,,,,,,,,,,,,,,,,,,,,,,,,,,,,,,,,,,,10,22,1,2024-12-18_12h08.22.655,uWM_experiment,2022.2.3,59.99109732
,,,,,,,,0,0,0,0,1,0,1,0,,,,,,,,,,,,,,,,,,,,,,,,,,,,,,,,,,,,,,,,,,,,,,,,,,,,,,,,,,,,,,,left,1,10,-30,-20,685.0210801,686.0211056,686.0211056,686.0211056,686.0211056,None,None,4,0,1.0423105,,,,,,,,,,,,,,,,,,,,,,,,,,,,,,,,,,,,,,,,,,,,,,,,,,,,,,,,,,,,,,,,,10,22,1,2024-12-18_12h08.22.655,uWM_experiment,2022.2.3,59.99109732
,,,,,,,,0,0,0,0,2,0,2,0,,,,,,,,,,,,,,,,,,,,,,,,,,,,,,,,,,,,,,,,,,,,,,,,,,,,,,,,,,,,,,,right,1,160,30,190,693.321401,,694.3214257,694.3214257,694.3214257,None,None,4,0,0.8140135,,,,,,,,,,,,,,,,,,,,,,,,,,,,,,,,,,,,,,,,,,,,,,,,,,,,,,,,,,,,,,,,,10,22,1,2024-12-18_12h08.22.655,uWM_experiment,2022.2.3,59.99109732
,,,,,,,,0,0,0,0,3,0,3,0,,,,,,,,,,,,,,,,,,,,,,,,,,,,,,,,,,,,,,,,,,,,,,,,,,,,,,,,,,,,,,,left,1,160,-30,130,701.1550307,702.1550709,702.1550709,702.1550709,702.1550709,None,None,4,0,0.7722169,,,,,,,,,,,,,,,,,,,,,,,,,,,,,,,,,,,,,,,,,,,,,,,,,,,,,,,,,,,,,,,,,10,22,1,2024-12-18_12h08.22.655,uWM_experiment,2022.2.3,59.99109732
,,,,,,,,0,0,0,0,4,0,4,0,,,,,,,,,,,,,,,,,,,,,,,,,,,,,,,,,,,,,,,,,,,,,,,,,,,,,,,,,,,,,,,right,1,100,30,130,709.7053559,,710.7054403,710.7054403,710.7054403,None,None,4,0,0.581862,,,,,,,,,,,,,,,,,,,,,,,,,,,,,,,,,,,,,,,,,,,,,,,,,,,,,,,,,,,,,,,,,10,22,1,2024-12-18_12h08.22.655,uWM_experiment,2022.2.3,59.99109732
,,,,,,,,0,0,0,0,5,0,5,0,,,,,,,,,,,,,,,,,,,,,,,,,,,,,,,,,,,,,,,,,,,,,,,,,,,,,,,,,,,,,,,right,1,100,30,130,717.9223421,,718.9224014,718.9224014,718.9224014,None,None,4,0,0.5968702,,,,,,,,,,,,,,,,,,,,,,,,,,,,,,,,,,,,,,,,,,,,,,,,,,,,,,,,,,,,,,,,,10,22,1,2024-12-18_12h08.22.655,uWM_experiment,2022.2.3,59.99109732
,,,,,,,,0,0,0,0,6,0,6,0,,,,,,,,,,,,,,,,,,,,,,,,,,,,,,,,,,,,,,,,,,,,,,,,,,,,,,,,,,,,,,,left,0,70,30,100,726.2226727,,727.2227244,727.2227244,727.2227244,None,None,3,0,18.7522912,,,,,,,,,,,,,,,,,,,,,,,,,,,,,,,,,,,,,,,,,,,,,,,,,,,,,,,,,,,,,,,,,10,22,1,2024-12-18_12h08.22.655,uWM_experiment,2022.2.3,59.99109732
,,,,,,,,0,0,0,0,7,0,7,0,,,,,,,,,,,,,,,,,,,,,,,,,,,,,,,,,,,,,,,,,,,,,,,,,,,,,,,,,,,,,,,left,1,160,-30,130,753.240424,754.2404515,754.2404515,754.2404515,754.2404515,None,None,4,0,0.8545045,,,,,,,,,,,,,,,,,,,,,,,,,,,,,,,,,,,,,,,,,,,,,,,,,,,,,,,,,,,,,,,,,10,22,1,2024-12-18_12h08.22.655,uWM_experiment,2022.2.3,59.99109732
,,,,,,,,0,0,0,0,8,0,8,0,,,,,,,,,,,,,,,,,,,,,,,,,,,,,,,,,,,,,,,,,,,,,,,,,,,,,,,,,,,,,,,right,1,40,30,70,762.7241143,763.7241557,763.7241557,763.7241557,763.7241557,None,None,4,0,0.7468645,,,,,,,,,,,,,,,,,,,,,,,,,,,,,,,,,,,,,,,,,,,,,,,,,,,,,,,,,,,,,,,,,10,22,1,2024-12-18_12h08.22.655,uWM_experiment,2022.2.3,59.99109732
,,,,,,,,0,0,0,0,9,0,9,0,,,,,,,,,,,,,,,,,,,,,,,,,,,,,,,,,,,,,,,,,,,,,,,,,,,,,,,,,,,,,,,left,1,100,-30,70,773.5412342,774.5412449,774.5412449,774.5412449,774.5412449,None,None,4,0,0.4176181,,,,,,,,,,,,,,,,,,,,,,,,,,,,,,,,,,,,,,,,,,,,,,,,,,,,,,,,,,,,,,,,,10,22,1,2024-12-18_12h08.22.655,uWM_experiment,2022.2.3,59.99109732
,,,,,,,,0,0,0,0,10,0,10,0,,,,,,,,,,,,,,,,,,,,,,,,,,,,,,,,,,,,,,,,,,,,,,,,,,,,,,,,,,,,,,,left,1,70,-30,40,781.0581555,,782.0582038,782.0582038,782.0582038,None,None,4,0,0.3566756,,,,,,,,,,,,,,,,,,,,,,,,,,,,,,,,,,,,,,,,,,,,,,,,,,,,,,,,,,,,,,,,,10,22,1,2024-12-18_12h08.22.655,uWM_experiment,2022.2.3,59.99109732
,,,,,,,,0,0,0,0,11,0,11,0,,,,,,,,,,,,,,,,,,,,,,,,,,,,,,,,,,,,,,,,,,,,,,,,,,,,,,,,,,,,,,,left,1,10,-30,-20,792.2085974,793.2086403,793.2086403,793.2086403,793.2086403,None,None,4,0,0.3582563,,,,,,,,,,,,,,,,,,,,,,,,,,,,,,,,,,,,,,,,,,,,,,,,,,,,,,,,,,,,,,,,,10,22,1,2024-12-18_12h08.22.655,uWM_experiment,2022.2.3,59.99109732
,,,,,,,,0,0,0,0,,,,,,,,,,,,,,,,,,,,,,,,,,,,,,,,,,,,,,,,,,,,,,,,,,,,,,,,,,,,,,,,,,,,,,,,,,,,,,,,,,,,,,,,,,,,,,,,,,,,,,,,,,,,,,,,,,,,,,,,,,,,,,,,,,,,,,,,,,,,,,,,,,10,22,1,2024-12-18_12h08.22.655,uWM_experiment,2022.2.3,59.99109732
,,,,,,,,,,,,,,,,,,,,,,,,,,,,,,,,,,,,,,,,,,,,,,,,,,,,,,,,,,,,,,,,,,,,,,,,,,,,,,,,,,,,,,,,,,,,,809.4259821,809.4259821,space,30.5886829,,,,,,,,,,,,,,,,,,,,,,,,,,,,,,,,,,,,,,,,,,,,,,,,,,,,,,,,,,,,,10,22,1,2024-12-18_12h08.22.655,uWM_experiment,2022.2.3,59.99109732
,,,,,,,,,,,,,,,,0,0,0,0,,,,,,,,,,,,,,,,,,,,,,,,,,,,,,,,,,,,,,,,,,,,,,,,,,,,,,,,,,,,,,,,,,,,,,,,,,,,,,0.040751641,right,0,100,-30,70,1,846.5941296,846.5941296,846.5941296,None,None,3,0,4.6684023,,,,,,,,,,,,,,,,,,,,,,,,,,,,,,,,,,,,,,,,,,,,,,10,22,1,2024-12-18_12h08.22.655,uWM_experiment,2022.2.3,59.99109732
,,,,,,,,,,,,,,,,1,0,1,0,,,,,,,,,,,,,,,,,,,,,,,,,,,,,,,,,,,,,,,,,,,,,,,,,,,,,,,,,,,,,,,,,,,,,,,,,,,,,,0.1,left,1,130,-30,100,2,857.944525,857.944525,857.944525,None,None,4,0,1.1339198,0,,,,,,,,,,,,,,,,,,,,,,,,,,,,,,,,,,,,,,,,,,,,,10,22,1,2024-12-18_12h08.22.655,uWM_experiment,2022.2.3,59.99109732
,,,,,,,,,,,,,,,,2,0,2,0,,,,,,,,,,,,,,,,,,,,,,,,,,,,,,,,,,,,,,,,,,,,,,,,,,,,,,,,,,,,,,,,,,,,,,,,,,,,,,0.1,left,1,70,-30,40,2,866.0781562,866.0781562,866.0781562,None,None,4,0,1.1842628,0,,,,,,,,,,,,,,,,,,,,,,,,,,,,,,,,,,,,,,,,,,,,,10,22,1,2024-12-18_12h08.22.655,uWM_experiment,2022.2.3,59.99109732
,,,,,,,,,,,,,,,,3,0,3,0,,,,,,,,,,,,,,,,,,,,,,,,,,,,,,,,,,,,,,,,,,,,,,,,,,,,,,,,,,,,,,,,,,,,,,,,,,,,,,0.030751641,left,1,160,-30,130,1,874.6951691,874.6951691,874.6951691,None,None,2,0,2.4233291,0,,,,,,,,,,,,,,,,,,,,,,,,,,,,,,,,,,,,,,,,,,,,,10,22,1,2024-12-18_12h08.22.655,uWM_experiment,2022.2.3,59.99109732
,,,,,,,,,,,,,,,,4,0,4,0,,,,,,,,,,,,,,,,,,,,,,,,,,,,,,,,,,,,,,,,,,,,,,,,,,,,,,,,,,,,,,,,,,,,,,,,,,,,,,0.1,right,1,160,30,190,2,884.8622431,884.8622431,884.8622431,None,None,4,0,0.7520875,0,,,,,,,,,,,,,,,,,,,,,,,,,,,,,,,,,,,,,,,,,,,,,10,22,1,2024-12-18_12h08.22.655,uWM_experiment,2022.2.3,59.99109732
,,,,,,,,,,,,,,,,5,0,5,0,,,,,,,,,,,,,,,,,,,,,,,,,,,,,,,,,,,,,,,,,,,,,,,,,,,,,,,,,,,,,,,,,,,,,,,,,,,,,,0.1,left,1,10,-30,-20,2,893.2959102,893.2959102,893.2959102,None,None,4,0,1.2863515,0,,,,,,,,,,,,,,,,,,,,,,,,,,,,,,,,,,,,,,,,,,,,,10,22,1,2024-12-18_12h08.22.655,uWM_experiment,2022.2.3,59.99109732
,,,,,,,,,,,,,,,,6,0,6,0,,,,,,,,,,,,,,,,,,,,,,,,,,,,,,,,,,,,,,,,,,,,,,,,,,,,,,,,,,,,,,,,,,,,,,,,,,,,,,0.1,right,1,100,30,130,2,902.2462545,902.2462545,902.2462545,None,None,4,0,0.5920931,0,,,,,,,,,,,,,,,,,,,,,,,,,,,,,,,,,,,,,,,,,,,,,10,22,1,2024-12-18_12h08.22.655,uWM_experiment,2022.2.3,59.99109732
,,,,,,,,,,,,,,,,7,0,7,0,,,,,,,,,,,,,,,,,,,,,,,,,,,,,,,,,,,,,,,,,,,,,,,,,,,,,,,,,,,,,,,,,,,,,,,,,,,,,,0.1,left,1,100,-30,70,2,914.9967353,914.9967353,914.9967353,None,None,4,0,0.6735167,0,,,,,,,,,,,,,,,,,,,,,,,,,,,,,,,,,,,,,,,,,,,,,10,22,1,2024-12-18_12h08.22.655,uWM_experiment,2022.2.3,59.99109732
,,,,,,,,,,,,,,,,8,0,8,0,,,,,,,,,,,,,,,,,,,,,,,,,,,,,,,,,,,,,,,,,,,,,,,,,,,,,,,,,,,,,,,,,,,,,,,,,,,,,,0.020751641,left,0,130,30,160,1,922.0470113,922.0470113,922.0470113,None,None,1,1,0.9991595,0,,,,,,,,,,,,,,,,,,,,,,,,,,,,,,,,,,,,,,,,,,,,,10,22,1,2024-12-18_12h08.22.655,uWM_experiment,2022.2.3,59.99109732
,,,,,,,,,,,,,,,,9,0,9,0,,,,,,,,,,,,,,,,,,,,,,,,,,,,,,,,,,,,,,,,,,,,,,,,,,,,,,,,,,,,,,,,,,,,,,,,,,,,,,0.1,right,1,40,30,70,2,929.3139809,929.3139809,929.3139809,None,None,4,0,0.4201138,0.111111111,,,,,,,,,,,,,,,,,,,,,,,,,,,,,,,,,,,,,,,,,,,,,10,22,1,2024-12-18_12h08.22.655,uWM_experiment,2022.2.3,59.99109732
,,,,,,,,,,,,,,,,10,0,10,0,,,,,,,,,,,,,,,,,,,,,,,,,,,,,,,,,,,,,,,,,,,,,,,,,,,,,,,,,,,,,,,,,,,,,,,,,,,,,,0.030751641,left,1,130,-30,100,1,936.1642342,936.1642342,936.1642342,None,None,1,1,0.5139037,0.1,,,,,,,,,,,,,,,,,,,,,,,,,,,,,,,,,,,,,,,,,,,,,10,22,1,2024-12-18_12h08.22.655,uWM_experiment,2022.2.3,59.99109732
,,,,,,,,,,,,,,,,11,0,11,0,,,,,,,,,,,,,,,,,,,,,,,,,,,,,,,,,,,,,,,,,,,,,,,,,,,,,,,,,,,,,,,,,,,,,,,,,,,,,,0.040751641,left,1,160,-30,130,1,942.2811402,942.2811402,942.2811402,None,None,1,1,0.4129985,0.181818182,,,,,,,,,,,,,,,,,,,,,,,,,,,,,,,,,,,,,,,,,,,,,10,22,1,2024-12-18_12h08.22.655,uWM_experiment,2022.2.3,59.99109732
,,,,,,,,,,,,,,,,12,0,12,0,,,,,,,,,,,,,,,,,,,,,,,,,,,,,,,,,,,,,,,,,,,,,,,,,,,,,,,,,,,,,,,,,,,,,,,,,,,,,,0.1,left,1,40,-30,10,2,948.831399,948.831399,948.831399,None,None,1,1,0.4066002,0.25,,,,,,,,,,,,,,,,,,,,,,,,,,,,,,,,,,,,,,,,,,,,,10,22,1,2024-12-18_12h08.22.655,uWM_experiment,2022.2.3,59.99109732
,,,,,,,,,,,,,,,,13,0,13,0,,,,,,,,,,,,,,,,,,,,,,,,,,,,,,,,,,,,,,,,,,,,,,,,,,,,,,,,,,,,,,,,,,,,,,,,,,,,,,0.050751641,left,1,40,-30,10,1,954.8649643,954.8649643,954.8649643,None,None,1,1,1.5251246,0.307692308,,,,,,,,,,,,,,,,,,,,,,,,,,,,,,,,,,,,,,,,,,,,,10,22,1,2024-12-18_12h08.22.655,uWM_experiment,2022.2.3,59.99109732
,,,,,,,,,,,,,,,,14,0,14,0,,,,,,,,,,,,,,,,,,,,,,,,,,,,,,,,,,,,,,,,,,,,,,,,,,,,,,,,,,,,,,,,,,,,,,,,,,,,,,0.1,right,1,10,30,40,2,966.0487407,966.0487407,966.0487407,None,None,3,0,3.2932809,0.357142857,,,,,,,,,,,,,,,,,,,,,,,,,,,,,,,,,,,,,,,,,,,,,10,22,1,2024-12-18_12h08.22.655,uWM_experiment,2022.2.3,59.99109732
,,,,,,,,,,,,,,,,15,0,15,0,,,,,,,,,,,,,,,,,,,,,,,,,,,,,,,,,,,,,,,,,,,,,,,,,,,,,,,,,,,,,,,,,,,,,,,,,,,,,,0.1,right,1,70,30,100,2,978.7159234,978.7159234,978.7159234,None,None,3,0,3.7219141,0.333333333,,,,,,,,,,,,,,,,,,,,,,,,,,,,,,,,,,,,,,,,,,,,,10,22,1,2024-12-18_12h08.22.655,uWM_experiment,2022.2.3,59.99109732
,,,,,,,,,,,,,,,,16,0,16,0,,,,,,,,,,,,,,,,,,,,,,,,,,,,,,,,,,,,,,,,,,,,,,,,,,,,,,,,,,,,,,,,,,,,,,,,,,,,,,0.060751641,right,0,40,-30,10,1,989.0163047,989.0163047,989.0163047,None,None,1,1,0.3735759,0.3125,,,,,,,,,,,,,,,,,,,,,,,,,,,,,,,,,,,,,,,,,,,,,10,22,1,2024-12-18_12h08.22.655,uWM_experiment,2022.2.3,59.99109732
,,,,,,,,,,,,,,,,17,0,17,0,,,,,,,,,,,,,,,,,,,,,,,,,,,,,,,,,,,,,,,,,,,,,,,,,,,,,,,,,,,,,,,,,,,,,,,,,,,,,,0.1,right,1,10,30,40,2,995.2832206,995.2832206,995.2832206,None,None,4,0,0.8426454,0.352941176,,,,,,,,,,,,,,,,,,,,,,,,,,,,,,,,,,,,,,,,,,,,,10,22,1,2024-12-18_12h08.22.655,uWM_experiment,2022.2.3,59.99109732
,,,,,,,,,,,,,,,,18,0,18,0,,,,,,,,,,,,,,,,,,,,,,,,,,,,,,,,,,,,,,,,,,,,,,,,,,,,,,,,,,,,,,,,,,,,,,,,,,,,,,0.070751641,left,0,100,30,130,1,1002.000159,1002.000159,1002.000159,None,None,1,1,0.3896438,0.333333333,,,,,,,,,,,,,,,,,,,,,,,,,,,,,,,,,,,,,,,,,,,,,10,22,1,2024-12-18_12h08.22.655,uWM_experiment,2022.2.3,59.99109732
,,,,,,,,,,,,,,,,19,0,19,0,,,,,,,,,,,,,,,,,,,,,,,,,,,,,,,,,,,,,,,,,,,,,,,,,,,,,,,,,,,,,,,,,,,,,,,,,,,,,,0.1,left,1,70,-30,40,2,1011.750527,1011.750527,1011.750527,None,None,3,0,1.7191353,0.368421053,,,,,,,,,,,,,,,,,,,,,,,,,,,,,,,,,,,,,,,,,,,,,10,22,1,2024-12-18_12h08.22.655,uWM_experiment,2022.2.3,59.99109732
,,,,,,,,,,,,,,,,20,0,20,0,,,,,,,,,,,,,,,,,,,,,,,,,,,,,,,,,,,,,,,,,,,,,,,,,,,,,,,,,,,,,,,,,,,,,,,,,,,,,,0.080751641,left,0,130,30,160,1,1019.534189,1019.534189,1019.534189,None,None,2,0,1.5674326,0.35,,,,,,,,,,,,,,,,,,,,,,,,,,,,,,,,,,,,,,,,,,,,,10,22,1,2024-12-18_12h08.22.655,uWM_experiment,2022.2.3,59.99109732
,,,,,,,,,,,,,,,,21,0,21,0,,,,,,,,,,,,,,,,,,,,,,,,,,,,,,,,,,,,,,,,,,,,,,,,,,,,,,,,,,,,,,,,,,,,,,,,,,,,,,0.070751641,right,1,160,30,190,1,1027.767857,1027.767857,1027.767857,None,None,2,0,2.3738575,0.333333333,,,,,,,,,,,,,,,,,,,,,,,,,,,,,,,,,,,,,,,,,,,,,10,22,1,2024-12-18_12h08.22.655,uWM_experiment,2022.2.3,59.99109732
,,,,,,,,,,,,,,,,22,0,22,0,,,,,,,,,,,,,,,,,,,,,,,,,,,,,,,,,,,,,,,,,,,,,,,,,,,,,,,,,,,,,,,,,,,,,,,,,,,,,,0.060751641,right,1,10,30,40,1,1036.218172,1036.218172,1036.218172,None,None,1,1,0.587354,0.318181818,,,,,,,,,,,,,,,,,,,,,,,,,,,,,,,,,,,,,,,,,,,,,10,22,1,2024-12-18_12h08.22.655,uWM_experiment,2022.2.3,59.99109732
,,,,,,,,,,,,,,,,23,0,23,0,,,,,,,,,,,,,,,,,,,,,,,,,,,,,,,,,,,,,,,,,,,,,,,,,,,,,,,,,,,,,,,,,,,,,,,,,,,,,,0.070751641,left,0,70,30,100,1,1042.985088,1042.985088,1042.985088,None,None,1,1,0.6604595,0.347826087,,,,,,,,,,,,,,,,,,,,,,,,,,,,,,,,,,,,,,,,,,,,,10,22,1,2024-12-18_12h08.22.655,uWM_experiment,2022.2.3,59.99109732
,,,,,,,,,,,,,,,,,,,,,,,,,,,,,,,,,,,,,,,,,,,,,,,,,,,,,,,,,,,,,,,,,,,,,,,,,,,,,,,,,,,,,,,,,,,,,,,,,,,,,,,,,,,,,,,,,1043.668447,1044.651794,space,8.34581,,,,,,,,,,,,,,,,,,,,,,,,,,,,,,,,,,,,,,,,,10,22,1,2024-12-18_12h08.22.655,uWM_experiment,2022.2.3,59.99109732
,,,,,,,,,,,,,,,,,,,,0,0,0,0,0,0,0,0,,,,,,,,,,,,,,,,,,,,,,,,,,,,,,,,,,,,,,,,,,,,,,,,,,,,,,,,,,,,,,,,,,,,,,0.070751641,,,,,,,,,,,,,,,,,,,,1053.018798,1053.718831,1054.002169,1054.70219,1055.002225,1055.702234,1055.702234,1056.052251,left,0,70,30,100,1,1060.785766,1060.785766,1060.785766,None,None,2,0,0.7397456,,,,,,,,,,,,,,,,,,,10,22,1,2024-12-18_12h08.22.655,uWM_experiment,2022.2.3,59.99109732
,,,,,,,,,,,,,,,,,,,,0,0,0,0,1,0,1,0,,,,,,,,,,,,,,,,,,,,,,,,,,,,,,,,,,,,,,,,,,,,,,,,,,,,,,,,,,,,,,,,,,,,,,0.060751641,,,,,,,,,,,,,,,,,,,,,,,,,,,,left,1,130,-30,100,1,1067.336028,1067.336028,1067.336028,None,None,2,0,0.6213543,,,,,,,,,,,,,,,,,,,10,22,1,2024-12-18_12h08.22.655,uWM_experiment,2022.2.3,59.99109732
,,,,,,,,,,,,,,,,,,,,0,0,0,0,2,0,2,0,,,,,,,,,,,,,,,,,,,,,,,,,,,,,,,,,,,,,,,,,,,,,,,,,,,,,,,,,,,,,,,,,,,,,,0.050751641,,,,,,,,,,,,,,,,,,,,,,,,,,,,left,1,160,-30,130,1,1073.602943,1073.602943,1073.602943,None,None,2,0,0.5383939,,,,,,,,,,,,,,,,,,,10,22,1,2024-12-18_12h08.22.655,uWM_experiment,2022.2.3,59.99109732
,,,,,,,,,,,,,,,,,,,,0,0,0,0,3,0,3,0,,,,,,,,,,,,,,,,,,,,,,,,,,,,,,,,,,,,,,,,,,,,,,,,,,,,,,,,,,,,,,,,,,,,,,0.040751641,,,,,,,,,,,,,,,,,,,,,,,,,,,,left,1,10,-30,-20,1,1079.769831,1079.769831,1079.769831,None,None,1,1,0.5396135,,,,,,,,,,,,,,,,,,,10,22,1,2024-12-18_12h08.22.655,uWM_experiment,2022.2.3,59.99109732
,,,,,,,,,,,,,,,,,,,,0,0,0,0,4,0,4,0,,,,,,,,,,,,,,,,,,,,,,,,,,,,,,,,,,,,,,,,,,,,,,,,,,,,,,,,,,,,,,,,,,,,,,0.050751641,,,,,,,,,,,,,,,,,,,,,,,,,,,,left,0,70,30,100,1,1086.203447,1086.203447,1086.203447,None,None,2,0,0.7299591,,,,,,,,,,,,,,,,,,,10,22,1,2024-12-18_12h08.22.655,uWM_experiment,2022.2.3,59.99109732
,,,,,,,,,,,,,,,,,,,,0,0,0,0,5,0,5,0,,,,,,,,,,,,,,,,,,,,,,,,,,,,,,,,,,,,,,,,,,,,,,,,,,,,,,,,,,,,,,,,,,,,,,0,,,,,,,,,,,,,,,,,,,,,,,,,,,,left,1,160,-30,130,0,1092.703743,1092.703743,1092.703743,None,None,1,1,0.4456678,,,,,,,,,,,,,,,,,,,10,22,1,2024-12-18_12h08.22.655,uWM_experiment,2022.2.3,59.99109732
,,,,,,,,,,,,,,,,,,,,0,0,0,0,6,0,6,0,,,,,,,,,,,,,,,,,,,,,,,,,,,,,,,,,,,,,,,,,,,,,,,,,,,,,,,,,,,,,,,,,,,,,,0.040751641,,,,,,,,,,,,,,,,,,,,,,,,,,,,right,1,160,30,190,1,1098.787265,1098.787265,1098.787265,None,None,1,1,0.5060066,,,,,,,,,,,,,,,,,,,10,22,1,2024-12-18_12h08.22.655,uWM_experiment,2022.2.3,59.99109732
,,,,,,,,,,,,,,,,,,,,0,0,0,0,7,0,7,0,,,,,,,,,,,,,,,,,,,,,,,,,,,,,,,,,,,,,,,,,,,,,,,,,,,,,,,,,,,,,,,,,,,,,,0.050751641,,,,,,,,,,,,,,,,,,,,,,,,,,,,right,0,100,-30,70,1,1105.504206,1105.504206,1105.504206,None,None,1,1,0.3570841,,,,,,,,,,,,,,,,,,,10,22,1,2024-12-18_12h08.22.655,uWM_experiment,2022.2.3,59.99109732
,,,,,,,,,,,,,,,,,,,,0,0,0,0,8,0,8,0,,,,,,,,,,,,,,,,,,,,,,,,,,,,,,,,,,,,,,,,,,,,,,,,,,,,,,,,,,,,,,,,,,,,,,0.060751641,,,,,,,,,,,,,,,,,,,,,,,,,,,,right,1,40,30,70,1,1111.62109,1111.62109,1111.62109,None,None,1,1,0.4081813,,,,,,,,,,,,,,,,,,,10,22,1,2024-12-18_12h08.22.655,uWM_experiment,2022.2.3,59.99109732
,,,,,,,,,,,,,,,,,,,,0,0,0,0,9,0,9,0,,,,,,,,,,,,,,,,,,,,,,,,,,,,,,,,,,,,,,,,,,,,,,,,,,,,,,,,,,,,,,,,,,,,,,0.070751641,,,,,,,,,,,,,,,,,,,,,,,,,,,,left,1,130,-30,100,1,1117.804667,1117.804667,1117.804667,None,None,1,1,0.752449,,,,,,,,,,,,,,,,,,,10,22,1,2024-12-18_12h08.22.655,uWM_experiment,2022.2.3,59.99109732
,,,,,,,,,,,,,,,,,,,,0,0,0,0,10,0,10,0,,,,,,,,,,,,,,,,,,,,,,,,,,,,,,,,,,,,,,,,,,,,,,,,,,,,,,,,,,,,,,,,,,,,,,0.080751641,,,,,,,,,,,,,,,,,,,,,,,,,,,,right,1,40,30,70,1,1124.12158,1124.12158,1124.12158,None,None,1,1,0.4995563,,,,,,,,,,,,,,,,,,,10,22,1,2024-12-18_12h08.22.655,uWM_experiment,2022.2.3,59.99109732
,,,,,,,,,,,,,,,,,,,,0,0,0,0,11,0,11,0,,,,,,,,,,,,,,,,,,,,,,,,,,,,,,,,,,,,,,,,,,,,,,,,,,,,,,,,,,,,,,,,,,,,,,0.090751641,,,,,,,,,,,,,,,,,,,,,,,,,,,,left,0,70,30,100,1,1130.95522,1130.95522,1130.95522,None,None,2,0,1.6739875,,,,,,,,,,,,,,,,,,,10,22,1,2024-12-18_12h08.22.655,uWM_experiment,2022.2.3,59.99109732
,,,,,,,,,,,,,,,,,,,,0,0,0,0,12,0,12,0,,,,,,,,,,,,,,,,,,,,,,,,,,,,,,,,,,,,,,,,,,,,,,,,,,,,,,,,,,,,,,,,,,,,,,0,,,,,,,,,,,,,,,,,,,,,,,,,,,,left,0,130,30,160,0,1138.555502,1138.555502,1138.555502,None,None,1,1,0.4575672,,,,,,,,,,,,,,,,,,,10,22,1,2024-12-18_12h08.22.655,uWM_experiment,2022.2.3,59.99109732
,,,,,,,,,,,,,,,,,,,,0,0,0,0,13,0,13,0,,,,,,,,,,,,,,,,,,,,,,,,,,,,,,,,,,,,,,,,,,,,,,,,,,,,,,,,,,,,,,,,,,,,,,0.1,,,,,,,,,,,,,,,,,,,,,,,,,,,,left,1,40,-30,10,2,1147.889168,1147.889168,1147.889168,None,None,3,0,1.1159453,,,,,,,,,,,,,,,,,,,10,22,1,2024-12-18_12h08.22.655,uWM_experiment,2022.2.3,59.99109732
,,,,,,,,,,,,,,,,,,,,0,0,0,0,14,0,14,0,,,,,,,,,,,,,,,,,,,,,,,,,,,,,,,,,,,,,,,,,,,,,,,,,,,,,,,,,,,,,,,,,,,,,,0,,,,,,,,,,,,,,,,,,,,,,,,,,,,left,0,130,30,160,0,1155.339486,1155.339486,1155.339486,None,None,1,1,0.5534416,,,,,,,,,,,,,,,,,,,10,22,1,2024-12-18_12h08.22.655,uWM_experiment,2022.2.3,59.99109732
,,,,,,,,,,,,,,,,,,,,0,0,0,0,15,0,15,0,,,,,,,,,,,,,,,,,,,,,,,,,,,,,,,,,,,,,,,,,,,,,,,,,,,,,,,,,,,,,,,,,,,,,,0.080751641,,,,,,,,,,,,,,,,,,,,,,,,,,,,right,1,160,30,190,1,1165.756552,1165.756552,1165.756552,None,None,1,1,1.8323962,,,,,,,,,,,,,,,,,,,10,22,1,2024-12-18_12h08.22.655,uWM_experiment,2022.2.3,59.99109732
,,,,,,,,,,,,,,,,,,,,0,0,0,0,16,0,16,0,,,,,,,,,,,,,,,,,,,,,,,,,,,,,,,,,,,,,,,,,,,,,,,,,,,,,,,,,,,,,,,,,,,,,,0.090751641,,,,,,,,,,,,,,,,,,,,,,,,,,,,right,1,160,30,190,1,1174.906906,1174.906906,1174.906906,None,None,2,0,0.8339222,,,,,,,,,,,,,,,,,,,10,22,1,2024-12-18_12h08.22.655,uWM_experiment,2022.2.3,59.99109732
,,,,,,,,,,,,,,,,,,,,0,0,0,0,17,0,17,0,,,,,,,,,,,,,,,,,,,,,,,,,,,,,,,,,,,,,,,,,,,,,,,,,,,,,,,,,,,,,,,,,,,,,,0.080751641,,,,,,,,,,,,,,,,,,,,,,,,,,,,right,1,160,30,190,1,1181.457164,1181.457164,1181.457164,None,None,2,0,0.7477848,,,,,,,,,,,,,,,,,,,10,22,1,2024-12-18_12h08.22.655,uWM_experiment,2022.2.3,59.99109732
,,,,,,,,,,,,,,,,,,,,0,0,0,0,18,0,18,0,,,,,,,,,,,,,,,,,,,,,,,,,,,,,,,,,,,,,,,,,,,,,,,,,,,,,,,,,,,,,,,,,,,,,,0.070751641,,,,,,,,,,,,,,,,,,,,,,,,,,,,right,1,160,30,190,1,1187.857419,1187.857419,1187.857419,None,None,2,0,0.5074501,,,,,,,,,,,,,,,,,,,10,22,1,2024-12-18_12h08.22.655,uWM_experiment,2022.2.3,59.99109732
,,,,,,,,,,,,,,,,,,,,0,0,0,0,19,0,19,0,,,,,,,,,,,,,,,,,,,,,,,,,,,,,,,,,,,,,,,,,,,,,,,,,,,,,,,,,,,,,,,,,,,,,,0.060751641,,,,,,,,,,,,,,,,,,,,,,,,,,,,left,1,10,-30,-20,1,1194.057663,1194.057663,1194.057663,None,None,2,0,0.6991172,,,,,,,,,,,,,,,,,,,10,22,1,2024-12-18_12h08.22.655,uWM_experiment,2022.2.3,59.99109732
,,,,,,,,,,,,,,,,,,,,0,0,0,0,20,0,20,0,,,,,,,,,,,,,,,,,,,,,,,,,,,,,,,,,,,,,,,,,,,,,,,,,,,,,,,,,,,,,,,,,,,,,,0,,,,,,,,,,,,,,,,,,,,,,,,,,,,left,1,130,-30,100,0,1200.607894,1200.607894,1200.607894,None,None,1,1,0.6367988,,,,,,,,,,,,,,,,,,,10,22,1,2024-12-18_12h08.22.655,uWM_experiment,2022.2.3,59.99109732
,,,,,,,,,,,,,,,,,,,,0,0,0,0,21,0,21,0,,,,,,,,,,,,,,,,,,,,,,,,,,,,,,,,,,,,,,,,,,,,,,,,,,,,,,,,,,,,,,,,,,,,,,0.050751641,,,,,,,,,,,,,,,,,,,,,,,,,,,,right,1,70,30,100,1,1208.324868,1208.324868,1208.324868,None,None,2,0,1.4799091,,,,,,,,,,,,,,,,,,,10,22,1,2024-12-18_12h08.22.655,uWM_experiment,2022.2.3,59.99109732
,,,,,,,,,,,,,,,,,,,,0,0,0,0,22,0,22,0,,,,,,,,,,,,,,,,,,,,,,,,,,,,,,,,,,,,,,,,,,,,,,,,,,,,,,,,,,,,,,,,,,,,,,0.040751641,,,,,,,,,,,,,,,,,,,,,,,,,,,,right,1,130,30,160,1,1217.74194,1217.74194,1217.74194,None,None,2,0,0.4866697,,,,,,,,,,,,,,,,,,,10,22,1,2024-12-18_12h08.22.655,uWM_experiment,2022.2.3,59.99109732
,,,,,,,,,,,,,,,,,,,,0,0,0,0,23,0,23,0,,,,,,,,,,,,,,,,,,,,,,,,,,,,,,,,,,,,,,,,,,,,,,,,,,,,,,,,,,,,,,,,,,,,,,0.1,,,,,,,,,,,,,,,,,,,,,,,,,,,,right,1,10,30,40,2,1224.842171,1224.842171,1224.842171,None,None,4,0,0.5145047,,,,,,,,,,,,,,,,,,,10,22,1,2024-12-18_12h08.22.655,uWM_experiment,2022.2.3,59.99109732
,,,,,,,,,,,,,,,,,,,,0,0,0,0,,,,,0,0,0,0,,,,,,,,,,,,,,,,,,,,,,,,,,,,,,,,,,,,,,,,,,,,,,,,,,,,,,,,,,,,,,,,,,,,,,,,,,,,,,,,,,,,,,,,,,,,,,,,,,,,,,,,,,,,1225.3755,1225.3755,space,6.2850713,None,None,,,,,,,,,,,,,10,22,1,2024-12-18_12h08.22.655,uWM_experiment,2022.2.3,59.99109732
,,,,,,,,,,,,,,,,,,,,0,0,0,0,,,,,1,0,1,0,,,,,,,,,,,,,,,,,,,,,,,,,,,,,,,,,,,,,,,,,,,,,,,,,,,,,,,,,,,,,,,,,,,,,,,,,,,,,,,,,,,,,,,,,,,,,,,,,,,,,,,,,,,,,,,,,,,,,,,,,,,,,,10,22,1,2024-12-18_12h08.22.655,uWM_experiment,2022.2.3,59.99109732
,,,,,,,,,,,,,,,,,,,,0,0,0,0,,,,,2,0,2,0,,,,,,,,,,,,,,,,,,,,,,,,,,,,,,,,,,,,,,,,,,,,,,,,,,,,,,,,,,,,,,,,,,,,,,,,,,,,,,,,,,,,,,,,,,,,,,,,,,,,,,,,,,,,,,,,,,,,,,,,,,,,,,10,22,1,2024-12-18_12h08.22.655,uWM_experiment,2022.2.3,59.99109732
,,,,,,,,,,,,,,,,,,,,1,0,1,0,0,0,0,0,,,,,,,,,,,,,,,,,,,,,,,,,,,,,,,,,,,,,,,,,,,,,,,,,,,,,,,,,,,,,,,,,,,,,,0,,,,,,,,,,,,,,,,,,,,1231.69245,1232.392474,1232.692481,1233.392546,1233.692523,1234.392549,1234.392549,1234.709234,right,1,40,30,70,0,1240.192779,1240.192779,1240.192779,None,None,1,1,0.3797859,,,,,,,None,,,,,,,,,,,,10,22,1,2024-12-18_12h08.22.655,uWM_experiment,2022.2.3,59.99109732
,,,,,,,,,,,,,,,,,,,,1,0,1,0,1,0,1,0,,,,,,,,,,,,,,,,,,,,,,,,,,,,,,,,,,,,,,,,,,,,,,,,,,,,,,,,,,,,,,,,,,,,,,0,,,,,,,,,,,,,,,,,,,,,,,,,,,,right,1,10,30,40,0,1246.343035,1246.343035,1246.343035,None,None,1,1,0.3734817,,,,,,,,,,,,,,,,,,,10,22,1,2024-12-18_12h08.22.655,uWM_experiment,2022.2.3,59.99109732
,,,,,,,,,,,,,,,,,,,,1,0,1,0,2,0,2,0,,,,,,,,,,,,,,,,,,,,,,,,,,,,,,,,,,,,,,,,,,,,,,,,,,,,,,,,,,,,,,,,,,,,,,0,,,,,,,,,,,,,,,,,,,,,,,,,,,,left,1,130,-30,100,0,1253.543304,1253.543304,1253.543304,None,None,1,1,0.7972531,,,,,,,,,,,,,,,,,,,10,22,1,2024-12-18_12h08.22.655,uWM_experiment,2022.2.3,59.99109732
,,,,,,,,,,,,,,,,,,,,1,0,1,0,3,0,3,0,,,,,,,,,,,,,,,,,,,,,,,,,,,,,,,,,,,,,,,,,,,,,,,,,,,,,,,,,,,,,,,,,,,,,,0.030751641,,,,,,,,,,,,,,,,,,,,,,,,,,,,right,0,100,-30,70,1,1261.810275,1261.810275,1261.810275,None,None,1,1,0.3861053,,,,,,,,,,,,,,,,,,,10,22,1,2024-12-18_12h08.22.655,uWM_experiment,2022.2.3,59.99109732
,,,,,,,,,,,,,,,,,,,,1,0,1,0,4,0,4,0,,,,,,,,,,,,,,,,,,,,,,,,,,,,,,,,,,,,,,,,,,,,,,,,,,,,,,,,,,,,,,,,,,,,,,0,,,,,,,,,,,,,,,,,,,,,,,,,,,,left,1,10,-30,-20,0,1275.510849,1275.510849,1275.510849,None,None,1,1,0.3174657,,,,,,,,,,,,,,,,,,,10,22,1,2024-12-18_12h08.22.655,uWM_experiment,2022.2.3,59.99109732
,,,,,,,,,,,,,,,,,,,,1,0,1,0,5,0,5,0,,,,,,,,,,,,,,,,,,,,,,,,,,,,,,,,,,,,,,,,,,,,,,,,,,,,,,,,,,,,,,,,,,,,,,0,,,,,,,,,,,,,,,,,,,,,,,,,,,,right,1,160,30,190,0,1282.09445,1282.09445,1282.09445,None,None,1,1,0.3018528,,,,,,,,,,,,,,,,,,,10,22,1,2024-12-18_12h08.22.655,uWM_experiment,2022.2.3,59.99109732
,,,,,,,,,,,,,,,,,,,,1,0,1,0,6,0,6,0,,,,,,,,,,,,,,,,,,,,,,,,,,,,,,,,,,,,,,,,,,,,,,,,,,,,,,,,,,,,,,,,,,,,,,0.040751641,,,,,,,,,,,,,,,,,,,,,,,,,,,,left,0,130,30,160,1,1288.14465,1288.14465,1288.14465,None,None,1,1,0.2917267,,,,,,,,,,,,,,,,,,,10,22,1,2024-12-18_12h08.22.655,uWM_experiment,2022.2.3,59.99109732
,,,,,,,,,,,,,,,,,,,,1,0,1,0,7,0,7,0,,,,,,,,,,,,,,,,,,,,,,,,,,,,,,,,,,,,,,,,,,,,,,,,,,,,,,,,,,,,,,,,,,,,,,0.050751641,,,,,,,,,,,,,,,,,,,,,,,,,,,,right,0,70,-30,40,1,1294.428222,1294.428222,1294.428222,None,None,1,1,1.2240845,,,,,,,,,,,,,,,,,,,10,22,1,2024-12-18_12h08.22.655,uWM_experiment,2022.2.3,59.99109732
,,,,,,,,,,,,,,,,,,,,1,0,1,0,8,0,8,0,,,,,,,,,,,,,,,,,,,,,,,,,,,,,,,,,,,,,,,,,,,,,,,,,,,,,,,,,,,,,,,,,,,,,,0,,,,,,,,,,,,,,,,,,,,,,,,,,,,left,1,160,-30,130,0,1301.445195,1301.445195,1301.445195,None,None,1,1,0.3110941,,,,,,,,,,,,,,,,,,,10,22,1,2024-12-18_12h08.22.655,uWM_experiment,2022.2.3,59.99109732
,,,,,,,,,,,,,,,,,,,,1,0,1,0,9,0,9,0,,,,,,,,,,,,,,,,,,,,,,,,,,,,,,,,,,,,,,,,,,,,,,,,,,,,,,,,,,,,,,,,,,,,,,0.060751641,,,,,,,,,,,,,,,,,,,,,,,,,,,,left,1,130,-30,100,1,1308.095438,1308.095438,1308.095438,None,None,1,1,0.4768644,,,,,,,,,,,,,,,,,,,10,22,1,2024-12-18_12h08.22.655,uWM_experiment,2022.2.3,59.99109732
,,,,,,,,,,,,,,,,,,,,1,0,1,0,10,0,10,0,,,,,,,,,,,,,,,,,,,,,,,,,,,,,,,,,,,,,,,,,,,,,,,,,,,,,,,,,,,,,,,,,,,,,,0.070751641,,,,,,,,,,,,,,,,,,,,,,,,,,,,left,0,70,30,100,1,1314.195695,1314.195695,1314.195695,None,None,1,1,0.4324635,,,,,,,,,,,,,,,,,,,10,22,1,2024-12-18_12h08.22.655,uWM_experiment,2022.2.3,59.99109732
,,,,,,,,,,,,,,,,,,,,1,0,1,0,11,0,11,0,,,,,,,,,,,,,,,,,,,,,,,,,,,,,,,,,,,,,,,,,,,,,,,,,,,,,,,,,,,,,,,,,,,,,,0.080751641,,,,,,,,,,,,,,,,,,,,,,,,,,,,right,1,40,30,70,1,1323.246036,1323.246036,1323.246036,None,None,2,0,0.4061598,,,,,,,,,,,,,,,,,,,10,22,1,2024-12-18_12h08.22.655,uWM_experiment,2022.2.3,59.99109732
,,,,,,,,,,,,,,,,,,,,1,0,1,0,12,0,12,0,,,,,,,,,,,,,,,,,,,,,,,,,,,,,,,,,,,,,,,,,,,,,,,,,,,,,,,,,,,,,,,,,,,,,,0.1,,,,,,,,,,,,,,,,,,,,,,,,,,,,left,1,160,-30,130,2,1330.963058,1330.963058,1330.963058,None,None,3,0,2.0570552,,,,,,,,,,,,,,,,,,,10,22,1,2024-12-18_12h08.22.655,uWM_experiment,2022.2.3,59.99109732
,,,,,,,,,,,,,,,,,,,,1,0,1,0,13,0,13,0,,,,,,,,,,,,,,,,,,,,,,,,,,,,,,,,,,,,,,,,,,,,,,,,,,,,,,,,,,,,,,,,,,,,,,0,,,,,,,,,,,,,,,,,,,,,,,,,,,,left,1,130,-30,100,0,1339.330038,1339.330038,1339.330038,None,None,1,1,0.2980566,,,,,,,,,,,,,,,,,,,10,22,1,2024-12-18_12h08.22.655,uWM_experiment,2022.2.3,59.99109732
,,,,,,,,,,,,,,,,,,,,1,0,1,0,14,0,14,0,,,,,,,,,,,,,,,,,,,,,,,,,,,,,,,,,,,,,,,,,,,,,,,,,,,,,,,,,,,,,,,,,,,,,,0,,,,,,,,,,,,,,,,,,,,,,,,,,,,right,1,10,30,40,0,1346.030468,1346.030468,1346.030468,None,None,1,1,0.7255971,,,,,,,,,,,,,,,,,,,10,22,1,2024-12-18_12h08.22.655,uWM_experiment,2022.2.3,59.99109732
,,,,,,,,,,,,,,,,,,,,1,0,1,0,15,0,15,0,,,,,,,,,,,,,,,,,,,,,,,,,,,,,,,,,,,,,,,,,,,,,,,,,,,,,,,,,,,,,,,,,,,,,,0,,,,,,,,,,,,,,,,,,,,,,,,,,,,left,1,160,-30,130,0,1353.047196,1353.047196,1353.047196,None,None,1,1,0.3488791,,,,,,,,,,,,,,,,,,,10,22,1,2024-12-18_12h08.22.655,uWM_experiment,2022.2.3,59.99109732
,,,,,,,,,,,,,,,,,,,,1,0,1,0,16,0,16,0,,,,,,,,,,,,,,,,,,,,,,,,,,,,,,,,,,,,,,,,,,,,,,,,,,,,,,,,,,,,,,,,,,,,,,0.070751641,,,,,,,,,,,,,,,,,,,,,,,,,,,,right,0,70,-30,40,1,1361.564197,1361.564197,1361.564197,None,None,3,0,2.5758356,,,,,,,,,,,,,,,,,,,10,22,1,2024-12-18_12h08.22.655,uWM_experiment,2022.2.3,59.99109732
,,,,,,,,,,,,,,,,,,,,1,0,1,0,17,0,17,0,,,,,,,,,,,,,,,,,,,,,,,,,,,,,,,,,,,,,,,,,,,,,,,,,,,,,,,,,,,,,,,,,,,,,,0,,,,,,,,,,,,,,,,,,,,,,,,,,,,left,0,70,30,100,0,1370.164537,1370.164537,1370.164537,None,None,2,0,1.5352906,,,,,,,,,,,,,,,,,,,10,22,1,2024-12-18_12h08.22.655,uWM_experiment,2022.2.3,59.99109732
,,,,,,,,,,,,,,,,,,,,1,0,1,0,18,0,18,0,,,,,,,,,,,,,,,,,,,,,,,,,,,,,,,,,,,,,,,,,,,,,,,,,,,,,,,,,,,,,,,,,,,,,,0.060751641,,,,,,,,,,,,,,,,,,,,,,,,,,,,left,0,100,30,130,1,1378.481507,1378.481507,1378.481507,None,None,2,0,0.666435,,,,,,,,,,,,,,,,,,,10,22,1,2024-12-18_12h08.22.655,uWM_experiment,2022.2.3,59.99109732
,,,,,,,,,,,,,,,,,,,,1,0,1,0,19,0,19,0,,,,,,,,,,,,,,,,,,,,,,,,,,,,,,,,,,,,,,,,,,,,,,,,,,,,,,,,,,,,,,,,,,,,,,0.050751641,,,,,,,,,,,,,,,,,,,,,,,,,,,,left,0,100,30,130,1,1387.198503,1387.198503,1387.198503,None,None,2,0,0.7254232,,,,,,,,,,,,,,,,,,,10,22,1,2024-12-18_12h08.22.655,uWM_experiment,2022.2.3,59.99109732
,,,,,,,,,,,,,,,,,,,,1,0,1,0,20,0,20,0,,,,,,,,,,,,,,,,,,,,,,,,,,,,,,,,,,,,,,,,,,,,,,,,,,,,,,,,,,,,,,,,,,,,,,0.040751641,,,,,,,,,,,,,,,,,,,,,,,,,,,,right,0,100,-30,70,1,1396.032216,1396.032216,1396.032216,None,None,2,0,0.5955599,,,,,,,,,,,,,,,,,,,10,22,1,2024-12-18_12h08.22.655,uWM_experiment,2022.2.3,59.99109732
,,,,,,,,,,,,,,,,,,,,1,0,1,0,21,0,21,0,,,,,,,,,,,,,,,,,,,,,,,,,,,,,,,,,,,,,,,,,,,,,,,,,,,,,,,,,,,,,,,,,,,,,,0.1,,,,,,,,,,,,,,,,,,,,,,,,,,,,right,1,10,30,40,2,1408.582732,1408.582732,1408.582732,None,None,3,0,1.141006,,,,,,,,,,,,,,,,,,,10,22,1,2024-12-18_12h08.22.655,uWM_experiment,2022.2.3,59.99109732
,,,,,,,,,,,,,,,,,,,,1,0,1,0,22,0,22,0,,,,,,,,,,,,,,,,,,,,,,,,,,,,,,,,,,,,,,,,,,,,,,,,,,,,,,,,,,,,,,,,,,,,,,0,,,,,,,,,,,,,,,,,,,,,,,,,,,,right,1,40,30,70,0,1415.599637,1415.599637,1415.599637,None,None,1,1,0.4199688,,,,,,,,,,,,,,,,,,,10,22,1,2024-12-18_12h08.22.655,uWM_experiment,2022.2.3,59.99109732
,,,,,,,,,,,,,,,,,,,,1,0,1,0,23,0,23,0,,,,,,,,,,,,,,,,,,,,,,,,,,,,,,,,,,,,,,,,,,,,,,,,,,,,,,,,,,,,,,,,,,,,,,0.030751641,,,,,,,,,,,,,,,,,,,,,,,,,,,,left,0,100,30,130,1,1421.799894,1421.799894,1421.799894,None,None,1,1,0.3477966,,,,,,,,,,,,,,,,,,,10,22,1,2024-12-18_12h08.22.655,uWM_experiment,2022.2.3,59.99109732
,,,,,,,,,,,,,,,,,,,,1,0,1,0,,,,,0,0,0,0,,,,,,,,,,,,,,,,,,,,,,,,,,,,,,,,,,,,,,,,,,,,,,,,,,,,,,,,,,,,,,,,,,,,,,,,,,,,,,,,,,,,,,,,,,,,,,,,,,,,,,,,,,,,1422.166536,1422.166536,space,16.4130025,None,None,,,,,,,,,,,,,10,22,1,2024-12-18_12h08.22.655,uWM_experiment,2022.2.3,59.99109732
,,,,,,,,,,,,,,,,,,,,1,0,1,0,,,,,1,0,1,0,,,,,,,,,,,,,,,,,,,,,,,,,,,,,,,,,,,,,,,,,,,,,,,,,,,,,,,,,,,,,,,,,,,,,,,,,,,,,,,,,,,,,,,,,,,,,,,,,,,,,,,,,,,,,,,,,,,,,,,,,,,,,,10,22,1,2024-12-18_12h08.22.655,uWM_experiment,2022.2.3,59.99109732
,,,,,,,,,,,,,,,,,,,,1,0,1,0,,,,,2,0,2,0,,,,,,,,,,,,,,,,,,,,,,,,,,,,,,,,,,,,,,,,,,,,,,,,,,,,,,,,,,,,,,,,,,,,,,,,,,,,,,,,,,,,,,,,,,,,,,,,,,,,,,,,,,,,,,,,,,,,,,,,,,,,,,10,22,1,2024-12-18_12h08.22.655,uWM_experiment,2022.2.3,59.99109732
,,,,,,,,,,,,,,,,,,,,2,0,2,0,0,0,0,0,,,,,,,,,,,,,,,,,,,,,,,,,,,,,,,,,,,,,,,,,,,,,,,,,,,,,,,,,,,,,,,,,,,,,,0.040751641,,,,,,,,,,,,,,,,,,,,1438.600574,1439.300551,1439.600565,1440.300588,1440.600601,1441.300627,1441.300627,1441.617319,right,0,100,-30,70,1,1446.250839,1446.250839,1446.250839,None,None,1,1,0.4246716,,,,,,,None,,,,,,,,,,,,10,22,1,2024-12-18_12h08.22.655,uWM_experiment,2022.2.3,59.99109732
,,,,,,,,,,,,,,,,,,,,2,0,2,0,1,0,1,0,,,,,,,,,,,,,,,,,,,,,,,,,,,,,,,,,,,,,,,,,,,,,,,,,,,,,,,,,,,,,,,,,,,,,,0.1,,,,,,,,,,,,,,,,,,,,,,,,,,,,right,0,130,-30,100,2,1455.817846,1455.817846,1455.817846,None,None,4,0,0.7776037,,,,,,,,,,,,,,,,,,,10,22,1,2024-12-18_12h08.22.655,uWM_experiment,2022.2.3,59.99109732
,,,,,,,,,,,,,,,,,,,,2,0,2,0,2,0,2,0,,,,,,,,,,,,,,,,,,,,,,,,,,,,,,,,,,,,,,,,,,,,,,,,,,,,,,,,,,,,,,,,,,,,,,0.050751641,,,,,,,,,,,,,,,,,,,,,,,,,,,,right,1,70,30,100,1,1467.051636,1467.051636,1467.051636,None,None,2,0,1.7838088,,,,,,,,,,,,,,,,,,,10,22,1,2024-12-18_12h08.22.655,uWM_experiment,2022.2.3,59.99109732
,,,,,,,,,,,,,,,,,,,,2,0,2,0,3,0,3,0,,,,,,,,,,,,,,,,,,,,,,,,,,,,,,,,,,,,,,,,,,,,,,,,,,,,,,,,,,,,,,,,,,,,,,0,,,,,,,,,,,,,,,,,,,,,,,,,,,,right,1,10,30,40,0,1475.56866,1475.56866,1475.56866,None,None,1,1,0.466682,,,,,,,,,,,,,,,,,,,10,22,1,2024-12-18_12h08.22.655,uWM_experiment,2022.2.3,59.99109732
,,,,,,,,,,,,,,,,,,,,2,0,2,0,4,0,4,0,,,,,,,,,,,,,,,,,,,,,,,,,,,,,,,,,,,,,,,,,,,,,,,,,,,,,,,,,,,,,,,,,,,,,,0,,,,,,,,,,,,,,,,,,,,,,,,,,,,left,1,160,-30,130,0,1481.952237,1481.952237,1481.952237,None,None,1,1,1.2671801,,,,,,,,,,,,,,,,,,,10,22,1,2024-12-18_12h08.22.655,uWM_experiment,2022.2.3,59.99109732
,,,,,,,,,,,,,,,,,,,,2,0,2,0,5,0,5,0,,,,,,,,,,,,,,,,,,,,,,,,,,,,,,,,,,,,,,,,,,,,,,,,,,,,,,,,,,,,,,,,,,,,,,0.040751641,,,,,,,,,,,,,,,,,,,,,,,,,,,,left,0,70,30,100,1,1489.602517,1489.602517,1489.602517,None,None,1,1,0.3367066,,,,,,,,,,,,,,,,,,,10,22,1,2024-12-18_12h08.22.655,uWM_experiment,2022.2.3,59.99109732
,,,,,,,,,,,,,,,,,,,,2,0,2,0,6,0,6,0,,,,,,,,,,,,,,,,,,,,,,,,,,,,,,,,,,,,,,,,,,,,,,,,,,,,,,,,,,,,,,,,,,,,,,0,,,,,,,,,,,,,,,,,,,,,,,,,,,,right,1,10,30,40,0,1496.569467,1496.569467,1496.569467,None,None,1,1,0.3778745,,,,,,,,,,,,,,,,,,,10,22,1,2024-12-18_12h08.22.655,uWM_experiment,2022.2.3,59.99109732
,,,,,,,,,,,,,,,,,,,,2,0,2,0,7,0,7,0,,,,,,,,,,,,,,,,,,,,,,,,,,,,,,,,,,,,,,,,,,,,,,,,,,,,,,,,,,,,,,,,,,,,,,0,,,,,,,,,,,,,,,,,,,,,,,,,,,,left,1,10,-30,-20,0,1503.469747,1503.469747,1503.469747,None,None,1,1,0.2933713,,,,,,,,,,,,,,,,,,,10,22,1,2024-12-18_12h08.22.655,uWM_experiment,2022.2.3,59.99109732
,,,,,,,,,,,,,,,,,,,,2,0,2,0,8,0,8,0,,,,,,,,,,,,,,,,,,,,,,,,,,,,,,,,,,,,,,,,,,,,,,,,,,,,,,,,,,,,,,,,,,,,,,0.050751641,,,,,,,,,,,,,,,,,,,,,,,,,,,,right,0,40,-30,10,1,1510.60336,1510.60336,1510.60336,None,None,2,0,0.5279348,,,,,,,,,,,,,,,,,,,10,22,1,2024-12-18_12h08.22.655,uWM_experiment,2022.2.3,59.99109732
,,,,,,,,,,,,,,,,,,,,2,0,2,0,9,0,9,0,,,,,,,,,,,,,,,,,,,,,,,,,,,,,,,,,,,,,,,,,,,,,,,,,,,,,,,,,,,,,,,,,,,,,,0.040751641,,,,,,,,,,,,,,,,,,,,,,,,,,,,left,0,130,30,160,1,1516.803584,1516.803584,1516.803584,None,None,1,1,0.295592,,,,,,,,,,,,,,,,,,,10,22,1,2024-12-18_12h08.22.655,uWM_experiment,2022.2.3,59.99109732
,,,,,,,,,,,,,,,,,,,,2,0,2,0,10,0,10,0,,,,,,,,,,,,,,,,,,,,,,,,,,,,,,,,,,,,,,,,,,,,,,,,,,,,,,,,,,,,,,,,,,,,,,0.050751641,,,,,,,,,,,,,,,,,,,,,,,,,,,,right,0,100,-30,70,1,1523.43717,1523.43717,1523.43717,None,None,1,1,0.7260346,,,,,,,,,,,,,,,,,,,10,22,1,2024-12-18_12h08.22.655,uWM_experiment,2022.2.3,59.99109732
,,,,,,,,,,,,,,,,,,,,2,0,2,0,11,0,11,0,,,,,,,,,,,,,,,,,,,,,,,,,,,,,,,,,,,,,,,,,,,,,,,,,,,,,,,,,,,,,,,,,,,,,,0.060751641,,,,,,,,,,,,,,,,,,,,,,,,,,,,right,1,40,30,70,1,1529.837485,1529.837485,1529.837485,None,None,1,1,0.4375244,,,,,,,,,,,,,,,,,,,10,22,1,2024-12-18_12h08.22.655,uWM_experiment,2022.2.3,59.99109732
,,,,,,,,,,,,,,,,,,,,2,0,2,0,12,0,12,0,,,,,,,,,,,,,,,,,,,,,,,,,,,,,,,,,,,,,,,,,,,,,,,,,,,,,,,,,,,,,,,,,,,,,,0.070751641,,,,,,,,,,,,,,,,,,,,,,,,,,,,right,1,160,30,190,1,1536.871023,1536.871023,1536.871023,None,None,1,1,0.3801168,,,,,,,,,,,,,,,,,,,10,22,1,2024-12-18_12h08.22.655,uWM_experiment,2022.2.3,59.99109732
,,,,,,,,,,,,,,,,,,,,2,0,2,0,13,0,13,0,,,,,,,,,,,,,,,,,,,,,,,,,,,,,,,,,,,,,,,,,,,,,,,,,,,,,,,,,,,,,,,,,,,,,,0,,,,,,,,,,,,,,,,,,,,,,,,,,,,right,1,40,30,70,0,1542.887945,1542.887945,1542.887945,None,None,1,1,0.4671254,,,,,,,,,,,,,,,,,,,10,22,1,2024-12-18_12h08.22.655,uWM_experiment,2022.2.3,59.99109732
,,,,,,,,,,,,,,,,,,,,2,0,2,0,14,0,14,0,,,,,,,,,,,,,,,,,,,,,,,,,,,,,,,,,,,,,,,,,,,,,,,,,,,,,,,,,,,,,,,,,,,,,,0.080751641,,,,,,,,,,,,,,,,,,,,,,,,,,,,right,0,100,-30,70,1,1549.054846,1549.054846,1549.054846,None,None,1,1,0.532204,,,,,,,,,,,,,,,,,,,10,22,1,2024-12-18_12h08.22.655,uWM_experiment,2022.2.3,59.99109732
,,,,,,,,,,,,,,,,,,,,2,0,2,0,15,0,15,0,,,,,,,,,,,,,,,,,,,,,,,,,,,,,,,,,,,,,,,,,,,,,,,,,,,,,,,,,,,,,,,,,,,,,,0.090751641,,,,,,,,,,,,,,,,,,,,,,,,,,,,right,0,100,-30,70,1,1555.071743,1555.071743,1555.071743,None,None,1,1,0.5472485,,,,,,,,,,,,,,,,,,,10,22,1,2024-12-18_12h08.22.655,uWM_experiment,2022.2.3,59.99109732
,,,,,,,,,,,,,,,,,,,,2,0,2,0,16,0,16,0,,,,,,,,,,,,,,,,,,,,,,,,,,,,,,,,,,,,,,,,,,,,,,,,,,,,,,,,,,,,,,,,,,,,,,0.100751641,,,,,,,,,,,,,,,,,,,,,,,,,,,,left,1,130,-30,100,1,1561.888661,1561.888661,1561.888661,None,None,2,0,1.0183046,,,,,,,,,,,,,,,,,,,10,22,1,2024-12-18_12h08.22.655,uWM_experiment,2022.2.3,59.99109732
,,,,,,,,,,,,,,,,,,,,2,0,2,0,17,0,17,0,,,,,,,,,,,,,,,,,,,,,,,,,,,,,,,,,,,,,,,,,,,,,,,,,,,,,,,,,,,,,,,,,,,,,,0.090751641,,,,,,,,,,,,,,,,,,,,,,,,,,,,right,0,100,-30,70,1,1570.722341,1570.722341,1570.722341,None,None,2,0,3.4166119,,,,,,,,,,,,,,,,,,,10,22,1,2024-12-18_12h08.22.655,uWM_experiment,2022.2.3,59.99109732
,,,,,,,,,,,,,,,,,,,,2,0,2,0,18,0,18,0,,,,,,,,,,,,,,,,,,,,,,,,,,,,,,,,,,,,,,,,,,,,,,,,,,,,,,,,,,,,,,,,,,,,,,0.080751641,,,,,,,,,,,,,,,,,,,,,,,,,,,,left,0,10,30,40,1,1583.872879,1583.872879,1583.872879,None,None,2,0,0.9538614,,,,,,,,,,,,,,,,,,,10,22,1,2024-12-18_12h08.22.655,uWM_experiment,2022.2.3,59.99109732
,,,,,,,,,,,,,,,,,,,,2,0,2,0,19,0,19,0,,,,,,,,,,,,,,,,,,,,,,,,,,,,,,,,,,,,,,,,,,,,,,,,,,,,,,,,,,,,,,,,,,,,,,0.070751641,,,,,,,,,,,,,,,,,,,,,,,,,,,,right,1,100,30,130,1,1591.906549,1591.906549,1591.906549,None,None,2,0,1.0242497,,,,,,,,,,,,,,,,,,,10,22,1,2024-12-18_12h08.22.655,uWM_experiment,2022.2.3,59.99109732
,,,,,,,,,,,,,,,,,,,,2,0,2,0,20,0,20,0,,,,,,,,,,,,,,,,,,,,,,,,,,,,,,,,,,,,,,,,,,,,,,,,,,,,,,,,,,,,,,,,,,,,,,0.060751641,,,,,,,,,,,,,,,,,,,,,,,,,,,,right,1,10,30,40,1,1603.690332,1603.690332,1603.690332,None,None,1,1,1.3444379,,,,,,,,,,,,,,,,,,,10,22,1,2024-12-18_12h08.22.655,uWM_experiment,2022.2.3,59.99109732
,,,,,,,,,,,,,,,,,,,,2,0,2,0,21,0,21,0,,,,,,,,,,,,,,,,,,,,,,,,,,,,,,,,,,,,,,,,,,,,,,,,,,,,,,,,,,,,,,,,,,,,,,0.070751641,,,,,,,,,,,,,,,,,,,,,,,,,,,,right,1,160,30,190,1,1614.840759,1614.840759,1614.840759,None,None,2,0,1.162014,,,,,,,,,,,,,,,,,,,10,22,1,2024-12-18_12h08.22.655,uWM_experiment,2022.2.3,59.99109732
,,,,,,,,,,,,,,,,,,,,2,0,2,0,22,0,22,0,,,,,,,,,,,,,,,,,,,,,,,,,,,,,,,,,,,,,,,,,,,,,,,,,,,,,,,,,,,,,,,,,,,,,,0.060751641,,,,,,,,,,,,,,,,,,,,,,,,,,,,left,0,100,30,130,1,1621.691018,1621.691018,1621.691018,None,None,1,1,0.3276594,,,,,,,,,,,,,,,,,,,10,22,1,2024-12-18_12h08.22.655,uWM_experiment,2022.2.3,59.99109732
,,,,,,,,,,,,,,,,,,,,2,0,2,0,23,0,23,0,,,,,,,,,,,,,,,,,,,,,,,,,,,,,,,,,,,,,,,,,,,,,,,,,,,,,,,,,,,,,,,,,,,,,,0,,,,,,,,,,,,,,,,,,,,,,,,,,,,left,0,100,30,130,0,1629.374624,1629.374624,1629.374624,None,None,1,1,0.4599171,,,,,,,,,,,,,,,,,,,10,22,1,2024-12-18_12h08.22.655,uWM_experiment,2022.2.3,59.99109732
,,,,,,,,,,,,,,,,,,,,2,0,2,0,,,,,0,0,0,0,,,,,,,,,,,,,,,,,,,,,,,,,,,,,,,,,,,,,,,,,,,,,,,,,,,,,,,,,,,,,,,,,,,,,,,,,,,,,,,,,,,,,,,,,,,,,,,,,,,,,,,,,,,,1629.85797,1629.85797,space,4.7286747,space,None,,1634.608171,1634.608171,23.0822985,,,,,,,,,10,22,1,2024-12-18_12h08.22.655,uWM_experiment,2022.2.3,59.99109732
,,,,,,,,,,,,,,,,,,,,2,0,2,0,,,,,1,0,1,0,,,,,,,,,,,,,,,,,,,,,,,,,,,,,,,,,,,,,,,,,,,,,,,,,,,,,,,,,,,,,,,,,,,,,,,,,,,,,,,,,,,,,,,,,,,,,,,,,,,,,,,,,,,,,,,,,,,,,,,,,,,,,,10,22,1,2024-12-18_12h08.22.655,uWM_experiment,2022.2.3,59.99109732
,,,,,,,,,,,,,,,,,,,,2,0,2,0,,,,,2,0,2,0,,,,,,,,,,,,,,,,,,,,,,,,,,,,,,,,,,,,,,,,,,,,,,,,,,,,,,,,,,,,,,,,,,,,,,,,,,,,,,,,,,,,,,,,,,,,,,,,,,,,,,,,,,,,,,,,,,,,,,,,,,,,,,10,22,1,2024-12-18_12h08.22.655,uWM_experiment,2022.2.3,59.99109732
,,,,,,,,,,,,,,,,,,,,3,0,3,0,0,0,0,0,,,,,,,,,,,,,,,,,,,,,,,,,,,,,,,,,,,,,,,,,,,,,,,,,,,,,,,,,,,,,,,,,,,,,,0.1,,,,,,,,,,,,,,,,,,,,1657.709078,1658.409124,1658.709162,1659.409138,1659.709156,1660.409182,1660.409182,1660.725877,right,1,10,30,40,2,1665.926069,1665.926069,1665.926069,None,None,4,0,0.9403452,,,,,,,None,,,,,,,,,,,,10,22,1,2024-12-18_12h08.22.655,uWM_experiment,2022.2.3,59.99109732
,,,,,,,,,,,,,,,,,,,,3,0,3,0,1,0,1,0,,,,,,,,,,,,,,,,,,,,,,,,,,,,,,,,,,,,,,,,,,,,,,,,,,,,,,,,,,,,,,,,,,,,,,0.070751641,,,,,,,,,,,,,,,,,,,,,,,,,,,,left,1,40,-30,10,1,1675.859783,1675.859783,1675.859783,None,None,3,0,2.1986833,,,,,,,,,,,,,,,,,,,10,22,1,2024-12-18_12h08.22.655,uWM_experiment,2022.2.3,59.99109732
,,,,,,,,,,,,,,,,,,,,3,0,3,0,2,0,2,0,,,,,,,,,,,,,,,,,,,,,,,,,,,,,,,,,,,,,,,,,,,,,,,,,,,,,,,,,,,,,,,,,,,,,,0.060751641,,,,,,,,,,,,,,,,,,,,,,,,,,,,left,1,40,-30,10,1,1684.893459,1684.893459,1684.893459,None,None,2,0,1.1729257,,,,,,,,,,,,,,,,,,,10,22,1,2024-12-18_12h08.22.655,uWM_experiment,2022.2.3,59.99109732
,,,,,,,,,,,,,,,,,,,,3,0,3,0,3,0,3,0,,,,,,,,,,,,,,,,,,,,,,,,,,,,,,,,,,,,,,,,,,,,,,,,,,,,,,,,,,,,,,,,,,,,,,0.050751641,,,,,,,,,,,,,,,,,,,,,,,,,,,,left,0,100,30,130,1,1693.093786,1693.093786,1693.093786,None,None,1,1,0.4684137,,,,,,,,,,,,,,,,,,,10,22,1,2024-12-18_12h08.22.655,uWM_experiment,2022.2.3,59.99109732
,,,,,,,,,,,,,,,,,,,,3,0,3,0,4,0,4,0,,,,,,,,,,,,,,,,,,,,,,,,,,,,,,,,,,,,,,,,,,,,,,,,,,,,,,,,,,,,,,,,,,,,,,0.060751641,,,,,,,,,,,,,,,,,,,,,,,,,,,,left,1,130,-30,100,1,1700.444077,1700.444077,1700.444077,None,None,2,0,1.462212,,,,,,,,,,,,,,,,,,,10,22,1,2024-12-18_12h08.22.655,uWM_experiment,2022.2.3,59.99109732
,,,,,,,,,,,,,,,,,,,,3,0,3,0,5,0,5,0,,,,,,,,,,,,,,,,,,,,,,,,,,,,,,,,,,,,,,,,,,,,,,,,,,,,,,,,,,,,,,,,,,,,,,0.050751641,,,,,,,,,,,,,,,,,,,,,,,,,,,,right,1,160,30,190,1,1710.044456,1710.044456,1710.044456,None,None,2,0,1.2856849,,,,,,,,,,,,,,,,,,,10,22,1,2024-12-18_12h08.22.655,uWM_experiment,2022.2.3,59.99109732
,,,,,,,,,,,,,,,,,,,,3,0,3,0,6,0,6,0,,,,,,,,,,,,,,,,,,,,,,,,,,,,,,,,,,,,,,,,,,,,,,,,,,,,,,,,,,,,,,,,,,,,,,0,,,,,,,,,,,,,,,,,,,,,,,,,,,,left,0,100,30,130,0,1718.111427,1718.111427,1718.111427,None,None,1,1,0.4986783,,,,,,,,,,,,,,,,,,,10,22,1,2024-12-18_12h08.22.655,uWM_experiment,2022.2.3,59.99109732
,,,,,,,,,,,,,,,,,,,,3,0,3,0,7,0,7,0,,,,,,,,,,,,,,,,,,,,,,,,,,,,,,,,,,,,,,,,,,,,,,,,,,,,,,,,,,,,,,,,,,,,,,0.040751641,,,,,,,,,,,,,,,,,,,,,,,,,,,,left,0,70,30,100,1,1726.328424,1726.328424,1726.328424,None,None,1,1,0.7057344,,,,,,,,,,,,,,,,,,,10,22,1,2024-12-18_12h08.22.655,uWM_experiment,2022.2.3,59.99109732
,,,,,,,,,,,,,,,,,,,,3,0,3,0,8,0,8,0,,,,,,,,,,,,,,,,,,,,,,,,,,,,,,,,,,,,,,,,,,,,,,,,,,,,,,,,,,,,,,,,,,,,,,0.050751641,,,,,,,,,,,,,,,,,,,,,,,,,,,,left,0,160,30,190,1,1736.295509,1736.295509,1736.295509,None,None,2,0,1.2105956,,,,,,,,,,,,,,,,,,,10,22,1,2024-12-18_12h08.22.655,uWM_experiment,2022.2.3,59.99109732
,,,,,,,,,,,,,,,,,,,,3,0,3,0,9,0,9,0,,,,,,,,,,,,,,,,,,,,,,,,,,,,,,,,,,,,,,,,,,,,,,,,,,,,,,,,,,,,,,,,,,,,,,0.040751641,,,,,,,,,,,,,,,,,,,,,,,,,,,,left,0,70,30,100,1,1744.429134,1744.429134,1744.429134,None,None,1,1,0.3007993,,,,,,,,,,,,,,,,,,,10,22,1,2024-12-18_12h08.22.655,uWM_experiment,2022.2.3,59.99109732
,,,,,,,,,,,,,,,,,,,,3,0,3,0,10,0,10,0,,,,,,,,,,,,,,,,,,,,,,,,,,,,,,,,,,,,,,,,,,,,,,,,,,,,,,,,,,,,,,,,,,,,,,0,,,,,,,,,,,,,,,,,,,,,,,,,,,,right,0,40,-30,10,0,1751.796077,1751.796077,1751.796077,None,None,1,1,1.6218496,,,,,,,,,,,,,,,,,,,10,22,1,2024-12-18_12h08.22.655,uWM_experiment,2022.2.3,59.99109732
,,,,,,,,,,,,,,,,,,,,3,0,3,0,11,0,11,0,,,,,,,,,,,,,,,,,,,,,,,,,,,,,,,,,,,,,,,,,,,,,,,,,,,,,,,,,,,,,,,,,,,,,,0.050751641,,,,,,,,,,,,,,,,,,,,,,,,,,,,left,0,100,30,130,1,1759.979764,1759.979764,1759.979764,None,None,1,1,0.4860723,,,,,,,,,,,,,,,,,,,10,22,1,2024-12-18_12h08.22.655,uWM_experiment,2022.2.3,59.99109732
,,,,,,,,,,,,,,,,,,,,3,0,3,0,12,0,12,0,,,,,,,,,,,,,,,,,,,,,,,,,,,,,,,,,,,,,,,,,,,,,,,,,,,,,,,,,,,,,,,,,,,,,,0,,,,,,,,,,,,,,,,,,,,,,,,,,,,left,1,10,-30,-20,0,1768.996765,1768.996765,1768.996765,None,None,1,1,0.3651608,,,,,,,,,,,,,,,,,,,10,22,1,2024-12-18_12h08.22.655,uWM_experiment,2022.2.3,59.99109732
,,,,,,,,,,,,,,,,,,,,3,0,3,0,13,0,13,0,,,,,,,,,,,,,,,,,,,,,,,,,,,,,,,,,,,,,,,,,,,,,,,,,,,,,,,,,,,,,,,,,,,,,,0.060751641,,,,,,,,,,,,,,,,,,,,,,,,,,,,right,0,40,-30,10,1,1776.247039,1776.247039,1776.247039,None,None,1,1,0.4748731,,,,,,,,,,,,,,,,,,,10,22,1,2024-12-18_12h08.22.655,uWM_experiment,2022.2.3,59.99109732
,,,,,,,,,,,,,,,,,,,,3,0,3,0,14,0,14,0,,,,,,,,,,,,,,,,,,,,,,,,,,,,,,,,,,,,,,,,,,,,,,,,,,,,,,,,,,,,,,,,,,,,,,0.070751641,,,,,,,,,,,,,,,,,,,,,,,,,,,,right,0,70,-30,40,1,1784.980739,1784.980739,1784.980739,None,None,4,0,1.0049783,,,,,,,,,,,,,,,,,,,10,22,1,2024-12-18_12h08.22.655,uWM_experiment,2022.2.3,59.99109732
,,,,,,,,,,,,,,,,,,,,3,0,3,0,15,0,15,0,,,,,,,,,,,,,,,,,,,,,,,,,,,,,,,,,,,,,,,,,,,,,,,,,,,,,,,,,,,,,,,,,,,,,,0.060751641,,,,,,,,,,,,,,,,,,,,,,,,,,,,right,0,100,-30,70,1,1793.631063,1793.631063,1793.631063,None,None,1,1,0.8826759,,,,,,,,,,,,,,,,,,,10,22,1,2024-12-18_12h08.22.655,uWM_experiment,2022.2.3,59.99109732
,,,,,,,,,,,,,,,,,,,,3,0,3,0,16,0,16,0,,,,,,,,,,,,,,,,,,,,,,,,,,,,,,,,,,,,,,,,,,,,,,,,,,,,,,,,,,,,,,,,,,,,,,0.070751641,,,,,,,,,,,,,,,,,,,,,,,,,,,,left,0,70,30,100,1,1800.247979,1800.247979,1800.247979,None,None,1,1,0.3137508,,,,,,,,,,,,,,,,,,,10,22,1,2024-12-18_12h08.22.655,uWM_experiment,2022.2.3,59.99109732
,,,,,,,,,,,,,,,,,,,,3,0,3,0,17,0,17,0,,,,,,,,,,,,,,,,,,,,,,,,,,,,,,,,,,,,,,,,,,,,,,,,,,,,,,,,,,,,,,,,,,,,,,0.080751641,,,,,,,,,,,,,,,,,,,,,,,,,,,,left,1,160,-30,130,1,1806.031542,1806.031542,1806.031542,None,None,1,1,0.3221274,,,,,,,,,,,,,,,,,,,10,22,1,2024-12-18_12h08.22.655,uWM_experiment,2022.2.3,59.99109732
,,,,,,,,,,,,,,,,,,,,3,0,3,0,18,0,18,0,,,,,,,,,,,,,,,,,,,,,,,,,,,,,,,,,,,,,,,,,,,,,,,,,,,,,,,,,,,,,,,,,,,,,,0.1,,,,,,,,,,,,,,,,,,,,,,,,,,,,left,1,10,-30,-20,2,1812.515127,1812.515127,1812.515127,None,None,4,0,1.5826038,,,,,,,,,,,,,,,,,,,10,22,1,2024-12-18_12h08.22.655,uWM_experiment,2022.2.3,59.99109732
,,,,,,,,,,,,,,,,,,,,3,0,3,0,19,0,19,0,,,,,,,,,,,,,,,,,,,,,,,,,,,,,,,,,,,,,,,,,,,,,,,,,,,,,,,,,,,,,,,,,,,,,,0.090751641,,,,,,,,,,,,,,,,,,,,,,,,,,,,left,1,130,-30,100,1,1820.33215,1820.33215,1820.33215,None,None,3,0,1.3655164,,,,,,,,,,,,,,,,,,,10,22,1,2024-12-18_12h08.22.655,uWM_experiment,2022.2.3,59.99109732
,,,,,,,,,,,,,,,,,,,,3,0,3,0,20,0,20,0,,,,,,,,,,,,,,,,,,,,,,,,,,,,,,,,,,,,,,,,,,,,,,,,,,,,,,,,,,,,,,,,,,,,,,0,,,,,,,,,,,,,,,,,,,,,,,,,,,,left,0,40,30,70,0,1830.899181,1830.899181,1830.899181,None,None,2,0,1.4543042,,,,,,,,,,,,,,,,,,,10,22,1,2024-12-18_12h08.22.655,uWM_experiment,2022.2.3,59.99109732
,,,,,,,,,,,,,,,,,,,,3,0,3,0,21,0,21,0,,,,,,,,,,,,,,,,,,,,,,,,,,,,,,,,,,,,,,,,,,,,,,,,,,,,,,,,,,,,,,,,,,,,,,0.080751641,,,,,,,,,,,,,,,,,,,,,,,,,,,,right,1,100,30,130,1,1843.933014,1843.933014,1843.933014,None,None,2,0,1.2044247,,,,,,,,,,,,,,,,,,,10,22,1,2024-12-18_12h08.22.655,uWM_experiment,2022.2.3,59.99109732
,,,,,,,,,,,,,,,,,,,,3,0,3,0,22,0,22,0,,,,,,,,,,,,,,,,,,,,,,,,,,,,,,,,,,,,,,,,,,,,,,,,,,,,,,,,,,,,,,,,,,,,,,0.070751641,,,,,,,,,,,,,,,,,,,,,,,,,,,,right,0,160,-30,130,1,1852.533358,1852.533358,1852.533358,None,None,2,0,0.8440745,,,,,,,,,,,,,,,,,,,10,22,1,2024-12-18_12h08.22.655,uWM_experiment,2022.2.3,59.99109732
,,,,,,,,,,,,,,,,,,,,3,0,3,0,23,0,23,0,,,,,,,,,,,,,,,,,,,,,,,,,,,,,,,,,,,,,,,,,,,,,,,,,,,,,,,,,,,,,,,,,,,,,,0,,,,,,,,,,,,,,,,,,,,,,,,,,,,right,1,160,30,190,0,1859.766966,1859.766966,1859.766966,None,None,1,1,0.37041,,,,,,,,,,,,,,,,,,,10,22,1,2024-12-18_12h08.22.655,uWM_experiment,2022.2.3,59.99109732
,,,,,,,,,,,,,,,,,,,,3,0,3,0,,,,,0,0,0,0,,,,,,,,,,,,,,,,,,,,,,,,,,,,,,,,,,,,,,,,,,,,,,,,,,,,,,,,,,,,,,,,,,,,,,,,,,,,,,,,,,,,,,,,,,,,,,,,,,,,,,,,,,,,1860.166976,1860.166976,space,3.8905046,None,None,,,,,,,,,,,,,10,22,1,2024-12-18_12h08.22.655,uWM_experiment,2022.2.3,59.99109732
,,,,,,,,,,,,,,,,,,,,3,0,3,0,,,,,1,0,1,0,,,,,,,,,,,,,,,,,,,,,,,,,,,,,,,,,,,,,,,,,,,,,,,,,,,,,,,,,,,,,,,,,,,,,,,,,,,,,,,,,,,,,,,,,,,,,,,,,,,,,,,,,,,,,,,,,,,,,,,,,,,,,,10,22,1,2024-12-18_12h08.22.655,uWM_experiment,2022.2.3,59.99109732
,,,,,,,,,,,,,,,,,,,,3,0,3,0,,,,,2,0,2,0,,,,,,,,,,,,,,,,,,,,,,,,,,,,,,,,,,,,,,,,,,,,,,,,,,,,,,,,,,,,,,,,,,,,,,,,,,,,,,,,,,,,,,,,,,,,,,,,,,,,,,,,,,,,,,,,,,,,,,,,,,,,,,10,22,1,2024-12-18_12h08.22.655,uWM_experiment,2022.2.3,59.99109732
,,,,,,,,,,,,,,,,,,,,4,0,4,0,0,0,0,0,,,,,,,,,,,,,,,,,,,,,,,,,,,,,,,,,,,,,,,,,,,,,,,,,,,,,,,,,,,,,,,,,,,,,,0.060751641,,,,,,,,,,,,,,,,,,,,1864.083803,1864.783832,1865.083842,1865.783866,1866.083888,1866.783911,1866.783911,1867.100603,left,1,160,-30,130,1,1871.550776,1871.550776,1871.550776,None,None,1,1,0.4107683,,,,,,,None,,,,,,,,,,,,10,22,1,2024-12-18_12h08.22.655,uWM_experiment,2022.2.3,59.99109732
,,,,,,,,,,,,,,,,,,,,4,0,4,0,1,0,1,0,,,,,,,,,,,,,,,,,,,,,,,,,,,,,,,,,,,,,,,,,,,,,,,,,,,,,,,,,,,,,,,,,,,,,,0.070751641,,,,,,,,,,,,,,,,,,,,,,,,,,,,left,1,160,-30,130,1,1878.801055,1878.801055,1878.801055,None,None,1,1,0.328221,,,,,,,,,,,,,,,,,,,10,22,1,2024-12-18_12h08.22.655,uWM_experiment,2022.2.3,59.99109732
,,,,,,,,,,,,,,,,,,,,4,0,4,0,2,0,2,0,,,,,,,,,,,,,,,,,,,,,,,,,,,,,,,,,,,,,,,,,,,,,,,,,,,,,,,,,,,,,,,,,,,,,,0.080751641,,,,,,,,,,,,,,,,,,,,,,,,,,,,right,0,10,-30,-20,1,1889.934839,1889.934839,1889.934839,None,None,1,1,0.6023401,,,,,,,,,,,,,,,,,,,10,22,1,2024-12-18_12h08.22.655,uWM_experiment,2022.2.3,59.99109732
,,,,,,,,,,,,,,,,,,,,4,0,4,0,3,0,3,0,,,,,,,,,,,,,,,,,,,,,,,,,,,,,,,,,,,,,,,,,,,,,,,,,,,,,,,,,,,,,,,,,,,,,,0.090751641,,,,,,,,,,,,,,,,,,,,,,,,,,,,right,0,10,-30,-20,1,1902.501971,1902.501971,1902.501971,None,None,2,0,0.523281,,,,,,,,,,,,,,,,,,,10,22,1,2024-12-18_12h08.22.655,uWM_experiment,2022.2.3,59.99109732
,,,,,,,,,,,,,,,,,,,,4,0,4,0,4,0,4,0,,,,,,,,,,,,,,,,,,,,,,,,,,,,,,,,,,,,,,,,,,,,,,,,,,,,,,,,,,,,,,,,,,,,,,0.080751641,,,,,,,,,,,,,,,,,,,,,,,,,,,,left,1,40,-30,10,1,1912.235721,1912.235721,1912.235721,None,None,2,0,2.7013105,,,,,,,,,,,,,,,,,,,10,22,1,2024-12-18_12h08.22.655,uWM_experiment,2022.2.3,59.99109732
,,,,,,,,,,,,,,,,,,,,4,0,4,0,5,0,5,0,,,,,,,,,,,,,,,,,,,,,,,,,,,,,,,,,,,,,,,,,,,,,,,,,,,,,,,,,,,,,,,,,,,,,,0.1,,,,,,,,,,,,,,,,,,,,,,,,,,,,left,1,40,-30,10,2,1923.086119,1923.086119,1923.086119,None,None,3,0,2.4508849,,,,,,,,,,,,,,,,,,,10,22,1,2024-12-18_12h08.22.655,uWM_experiment,2022.2.3,59.99109732
,,,,,,,,,,,,,,,,,,,,4,0,4,0,6,0,6,0,,,,,,,,,,,,,,,,,,,,,,,,,,,,,,,,,,,,,,,,,,,,,,,,,,,,,,,,,,,,,,,,,,,,,,0.070751641,,,,,,,,,,,,,,,,,,,,,,,,,,,,right,1,40,30,70,1,1931.419768,1931.419768,1931.419768,None,None,3,0,0.8692444,,,,,,,,,,,,,,,,,,,10,22,1,2024-12-18_12h08.22.655,uWM_experiment,2022.2.3,59.99109732
,,,,,,,,,,,,,,,,,,,,4,0,4,0,7,0,7,0,,,,,,,,,,,,,,,,,,,,,,,,,,,,,,,,,,,,,,,,,,,,,,,,,,,,,,,,,,,,,,,,,,,,,,0.060751641,,,,,,,,,,,,,,,,,,,,,,,,,,,,left,1,40,-30,10,1,1938.270037,1938.270037,1938.270037,None,None,3,0,0.9630228,,,,,,,,,,,,,,,,,,,10,22,1,2024-12-18_12h08.22.655,uWM_experiment,2022.2.3,59.99109732
,,,,,,,,,,,,,,,,,,,,4,0,4,0,8,0,8,0,,,,,,,,,,,,,,,,,,,,,,,,,,,,,,,,,,,,,,,,,,,,,,,,,,,,,,,,,,,,,,,,,,,,,,0.050751641,,,,,,,,,,,,,,,,,,,,,,,,,,,,left,0,10,30,40,1,1945.120297,1945.120297,1945.120297,None,None,3,0,0.5446444,,,,,,,,,,,,,,,,,,,10,22,1,2024-12-18_12h08.22.655,uWM_experiment,2022.2.3,59.99109732
,,,,,,,,,,,,,,,,,,,,4,0,4,0,9,0,9,0,,,,,,,,,,,,,,,,,,,,,,,,,,,,,,,,,,,,,,,,,,,,,,,,,,,,,,,,,,,,,,,,,,,,,,0.040751641,,,,,,,,,,,,,,,,,,,,,,,,,,,,right,0,70,-30,40,1,1951.603876,1951.603876,1951.603876,None,None,1,1,0.4210018,,,,,,,,,,,,,,,,,,,10,22,1,2024-12-18_12h08.22.655,uWM_experiment,2022.2.3,59.99109732
,,,,,,,,,,,,,,,,,,,,4,0,4,0,10,0,10,0,,,,,,,,,,,,,,,,,,,,,,,,,,,,,,,,,,,,,,,,,,,,,,,,,,,,,,,,,,,,,,,,,,,,,,0.1,,,,,,,,,,,,,,,,,,,,,,,,,,,,right,1,70,30,100,2,1960.087581,1960.087581,1960.087581,None,None,4,0,0.529294,,,,,,,,,,,,,,,,,,,10,22,1,2024-12-18_12h08.22.655,uWM_experiment,2022.2.3,59.99109732
,,,,,,,,,,,,,,,,,,,,4,0,4,0,11,0,11,0,,,,,,,,,,,,,,,,,,,,,,,,,,,,,,,,,,,,,,,,,,,,,,,,,,,,,,,,,,,,,,,,,,,,,,0.050751641,,,,,,,,,,,,,,,,,,,,,,,,,,,,right,0,100,-30,70,1,1967.854543,1967.854543,1967.854543,None,None,2,0,0.9463993,,,,,,,,,,,,,,,,,,,10,22,1,2024-12-18_12h08.22.655,uWM_experiment,2022.2.3,59.99109732
,,,,,,,,,,,,,,,,,,,,4,0,4,0,12,0,12,0,,,,,,,,,,,,,,,,,,,,,,,,,,,,,,,,,,,,,,,,,,,,,,,,,,,,,,,,,,,,,,,,,,,,,,0.040751641,,,,,,,,,,,,,,,,,,,,,,,,,,,,right,0,40,-30,10,1,1975.054798,1975.054798,1975.054798,None,None,1,1,0.433956,,,,,,,,,,,,,,,,,,,10,22,1,2024-12-18_12h08.22.655,uWM_experiment,2022.2.3,59.99109732
,,,,,,,,,,,,,,,,,,,,4,0,4,0,13,0,13,0,,,,,,,,,,,,,,,,,,,,,,,,,,,,,,,,,,,,,,,,,,,,,,,,,,,,,,,,,,,,,,,,,,,,,,0.050751641,,,,,,,,,,,,,,,,,,,,,,,,,,,,right,1,160,30,190,1,1981.70505,1981.70505,1981.70505,None,None,1,1,0.4157333,,,,,,,,,,,,,,,,,,,10,22,1,2024-12-18_12h08.22.655,uWM_experiment,2022.2.3,59.99109732
,,,,,,,,,,,,,,,,,,,,4,0,4,0,14,0,14,0,,,,,,,,,,,,,,,,,,,,,,,,,,,,,,,,,,,,,,,,,,,,,,,,,,,,,,,,,,,,,,,,,,,,,,0.060751641,,,,,,,,,,,,,,,,,,,,,,,,,,,,right,0,40,-30,10,1,1988.371978,1988.371978,1988.371978,None,None,1,1,0.3407841,,,,,,,,,,,,,,,,,,,10,22,1,2024-12-18_12h08.22.655,uWM_experiment,2022.2.3,59.99109732
,,,,,,,,,,,,,,,,,,,,4,0,4,0,15,0,15,0,,,,,,,,,,,,,,,,,,,,,,,,,,,,,,,,,,,,,,,,,,,,,,,,,,,,,,,,,,,,,,,,,,,,,,0,,,,,,,,,,,,,,,,,,,,,,,,,,,,right,0,100,-30,70,0,1994.755574,1994.755574,1994.755574,None,None,1,1,1.5971278,,,,,,,,,,,,,,,,,,,10,22,1,2024-12-18_12h08.22.655,uWM_experiment,2022.2.3,59.99109732
,,,,,,,,,,,,,,,,,,,,4,0,4,0,16,0,16,0,,,,,,,,,,,,,,,,,,,,,,,,,,,,,,,,,,,,,,,,,,,,,,,,,,,,,,,,,,,,,,,,,,,,,,0,,,,,,,,,,,,,,,,,,,,,,,,,,,,left,0,100,30,130,0,2003.5559,2003.5559,2003.5559,None,None,1,1,0.2927955,,,,,,,,,,,,,,,,,,,10,22,1,2024-12-18_12h08.22.655,uWM_experiment,2022.2.3,59.99109732
,,,,,,,,,,,,,,,,,,,,4,0,4,0,17,0,17,0,,,,,,,,,,,,,,,,,,,,,,,,,,,,,,,,,,,,,,,,,,,,,,,,,,,,,,,,,,,,,,,,,,,,,,0.070751641,,,,,,,,,,,,,,,,,,,,,,,,,,,,right,0,70,-30,40,1,2010.672886,2010.672886,2010.672886,None,None,1,1,1.2238341,,,,,,,,,,,,,,,,,,,10,22,1,2024-12-18_12h08.22.655,uWM_experiment,2022.2.3,59.99109732
,,,,,,,,,,,,,,,,,,,,4,0,4,0,18,0,18,0,,,,,,,,,,,,,,,,,,,,,,,,,,,,,,,,,,,,,,,,,,,,,,,,,,,,,,,,,,,,,,,,,,,,,,0,,,,,,,,,,,,,,,,,,,,,,,,,,,,left,0,70,30,100,0,2018.939856,2018.939856,2018.939856,None,None,1,1,0.2686652,,,,,,,,,,,,,,,,,,,10,22,1,2024-12-18_12h08.22.655,uWM_experiment,2022.2.3,59.99109732
,,,,,,,,,,,,,,,,,,,,4,0,4,0,19,0,19,0,,,,,,,,,,,,,,,,,,,,,,,,,,,,,,,,,,,,,,,,,,,,,,,,,,,,,,,,,,,,,,,,,,,,,,0,,,,,,,,,,,,,,,,,,,,,,,,,,,,left,1,160,-30,130,0,2027.523543,2027.523543,2027.523543,None,None,1,1,0.3571063,,,,,,,,,,,,,,,,,,,10,22,1,2024-12-18_12h08.22.655,uWM_experiment,2022.2.3,59.99109732
,,,,,,,,,,,,,,,,,,,,4,0,4,0,20,0,20,0,,,,,,,,,,,,,,,,,,,,,,,,,,,,,,,,,,,,,,,,,,,,,,,,,,,,,,,,,,,,,,,,,,,,,,0.080751641,,,,,,,,,,,,,,,,,,,,,,,,,,,,left,0,130,30,160,1,2036.807225,2036.807225,2036.807225,None,None,1,1,0.4252727,,,,,,,,,,,,,,,,,,,10,22,1,2024-12-18_12h08.22.655,uWM_experiment,2022.2.3,59.99109732
,,,,,,,,,,,,,,,,,,,,4,0,4,0,21,0,21,0,,,,,,,,,,,,,,,,,,,,,,,,,,,,,,,,,,,,,,,,,,,,,,,,,,,,,,,,,,,,,,,,,,,,,,0.090751641,,,,,,,,,,,,,,,,,,,,,,,,,,,,left,0,100,30,130,1,2042.957477,2042.957477,2042.957477,None,None,1,1,0.4189652,,,,,,,,,,,,,,,,,,,10,22,1,2024-12-18_12h08.22.655,uWM_experiment,2022.2.3,59.99109732
,,,,,,,,,,,,,,,,,,,,4,0,4,0,22,0,22,0,,,,,,,,,,,,,,,,,,,,,,,,,,,,,,,,,,,,,,,,,,,,,,,,,,,,,,,,,,,,,,,,,,,,,,0.100751641,,,,,,,,,,,,,,,,,,,,,,,,,,,,left,1,10,-30,-20,1,2050.191078,2050.191078,2050.191078,None,None,1,1,0.361402,,,,,,,,,,,,,,,,,,,10,22,1,2024-12-18_12h08.22.655,uWM_experiment,2022.2.3,59.99109732
,,,,,,,,,,,,,,,,,,,,4,0,4,0,23,0,23,0,,,,,,,,,,,,,,,,,,,,,,,,,,,,,,,,,,,,,,,,,,,,,,,,,,,,,,,,,,,,,,,,,,,,,,0.110751641,,,,,,,,,,,,,,,,,,,,,,,,,,,,left,1,130,-30,100,1,2057.674708,2057.674708,2057.674708,None,None,2,0,0.5657744,,,,,,,,,,,,,,,,,,,10,22,1,2024-12-18_12h08.22.655,uWM_experiment,2022.2.3,59.99109732
,,,,,,,,,,,,,,,,,,,,4,0,4,0,,,,,0,0,0,0,,,,,,,,,,,,,,,,,,,,,,,,,,,,,,,,,,,,,,,,,,,,,,,,,,,,,,,,,,,,,,,,,,,,,,,,,,,,,,,,,,,,,,,,,,,,,,,,,,,,,,,,,,,,2058.258042,2058.258042,space,75.7499909,None,None,,,,,,,,,,,,,10,22,1,2024-12-18_12h08.22.655,uWM_experiment,2022.2.3,59.99109732
,,,,,,,,,,,,,,,,,,,,4,0,4,0,,,,,1,0,1,0,,,,,,,,,,,,,,,,,,,,,,,,,,,,,,,,,,,,,,,,,,,,,,,,,,,,,,,,,,,,,,,,,,,,,,,,,,,,,,,,,,,,,,,,,,,,,,,,,,,,,,,,,,,,,,,,,,,,,,,,,,,,,,10,22,1,2024-12-18_12h08.22.655,uWM_experiment,2022.2.3,59.99109732
,,,,,,,,,,,,,,,,,,,,4,0,4,0,,,,,2,0,2,0,,,,,,,,,,,,,,,,,,,,,,,,,,,,,,,,,,,,,,,,,,,,,,,,,,,,,,,,,,,,,,,,,,,,,,,,,,,,,,,,,,,,,,,,,,,,,,,,,,,,,,,,,,,,,,,,,,,,,,,,,,,,,,10,22,1,2024-12-18_12h08.22.655,uWM_experiment,2022.2.3,59.99109732
,,,,,,,,,,,,,,,,,,,,5,0,5,0,0,0,0,0,,,,,,,,,,,,,,,,,,,,,,,,,,,,,,,,,,,,,,,,,,,,,,,,,,,,,,,,,,,,,,,,,,,,,,0.100751641,,,,,,,,,,,,,,,,,,,,2134.027689,2134.727697,2135.027717,2135.72775,2136.027745,2136.727771,2136.727771,2137.044466,left,1,130,-30,100,1,2142.027992,2142.027992,2142.027992,None,None,2,0,2.4678973,,,,,,,None,,,,,,,,,,,,10,22,1,2024-12-18_12h08.22.655,uWM_experiment,2022.2.3,59.99109732
,,,,,,,,,,,,,,,,,,,,5,0,5,0,1,0,1,0,,,,,,,,,,,,,,,,,,,,,,,,,,,,,,,,,,,,,,,,,,,,,,,,,,,,,,,,,,,,,,,,,,,,,,0.090751641,,,,,,,,,,,,,,,,,,,,,,,,,,,,left,1,70,-30,40,1,2151.328407,2151.328407,2151.328407,None,None,2,0,1.8314935,,,,,,,,,,,,,,,,,,,10,22,1,2024-12-18_12h08.22.655,uWM_experiment,2022.2.3,59.99109732
,,,,,,,,,,,,,,,,,,,,5,0,5,0,2,0,2,0,,,,,,,,,,,,,,,,,,,,,,,,,,,,,,,,,,,,,,,,,,,,,,,,,,,,,,,,,,,,,,,,,,,,,,0,,,,,,,,,,,,,,,,,,,,,,,,,,,,left,0,100,30,130,0,2158.961991,2158.961991,2158.961991,None,None,1,1,0.3739486,,,,,,,,,,,,,,,,,,,10,22,1,2024-12-18_12h08.22.655,uWM_experiment,2022.2.3,59.99109732
,,,,,,,,,,,,,,,,,,,,5,0,5,0,3,0,3,0,,,,,,,,,,,,,,,,,,,,,,,,,,,,,,,,,,,,,,,,,,,,,,,,,,,,,,,,,,,,,,,,,,,,,,0,,,,,,,,,,,,,,,,,,,,,,,,,,,,right,1,10,30,40,0,2166.112292,2166.112292,2166.112292,None,None,1,1,0.7115459,,,,,,,,,,,,,,,,,,,10,22,1,2024-12-18_12h08.22.655,uWM_experiment,2022.2.3,59.99109732
,,,,,,,,,,,,,,,,,,,,5,0,5,0,4,0,4,0,,,,,,,,,,,,,,,,,,,,,,,,,,,,,,,,,,,,,,,,,,,,,,,,,,,,,,,,,,,,,,,,,,,,,,0,,,,,,,,,,,,,,,,,,,,,,,,,,,,left,0,130,30,160,0,2173.479262,2173.479262,2173.479262,None,None,1,1,0.4806194,,,,,,,,,,,,,,,,,,,10,22,1,2024-12-18_12h08.22.655,uWM_experiment,2022.2.3,59.99109732
,,,,,,,,,,,,,,,,,,,,5,0,5,0,5,0,5,0,,,,,,,,,,,,,,,,,,,,,,,,,,,,,,,,,,,,,,,,,,,,,,,,,,,,,,,,,,,,,,,,,,,,,,0.080751641,,,,,,,,,,,,,,,,,,,,,,,,,,,,right,1,40,30,70,1,2179.779468,2179.779468,2179.779468,None,None,1,1,0.5002891,,,,,,,,,,,,,,,,,,,10,22,1,2024-12-18_12h08.22.655,uWM_experiment,2022.2.3,59.99109732
,,,,,,,,,,,,,,,,,,,,5,0,5,0,6,0,6,0,,,,,,,,,,,,,,,,,,,,,,,,,,,,,,,,,,,,,,,,,,,,,,,,,,,,,,,,,,,,,,,,,,,,,,0.090751641,,,,,,,,,,,,,,,,,,,,,,,,,,,,left,0,100,30,130,1,2187.129775,2187.129775,2187.129775,None,None,1,1,0.5099628,,,,,,,,,,,,,,,,,,,10,22,1,2024-12-18_12h08.22.655,uWM_experiment,2022.2.3,59.99109732
,,,,,,,,,,,,,,,,,,,,5,0,5,0,7,0,7,0,,,,,,,,,,,,,,,,,,,,,,,,,,,,,,,,,,,,,,,,,,,,,,,,,,,,,,,,,,,,,,,,,,,,,,0.100751641,,,,,,,,,,,,,,,,,,,,,,,,,,,,left,1,70,-30,40,1,2193.380018,2193.380018,2193.380018,None,None,2,0,0.4836577,,,,,,,,,,,,,,,,,,,10,22,1,2024-12-18_12h08.22.655,uWM_experiment,2022.2.3,59.99109732
,,,,,,,,,,,,,,,,,,,,5,0,5,0,8,0,8,0,,,,,,,,,,,,,,,,,,,,,,,,,,,,,,,,,,,,,,,,,,,,,,,,,,,,,,,,,,,,,,,,,,,,,,0.090751641,,,,,,,,,,,,,,,,,,,,,,,,,,,,right,0,100,-30,70,1,2201.146967,2201.146967,2201.146967,None,None,2,0,0.7168231,,,,,,,,,,,,,,,,,,,10,22,1,2024-12-18_12h08.22.655,uWM_experiment,2022.2.3,59.99109732
,,,,,,,,,,,,,,,,,,,,5,0,5,0,9,0,9,0,,,,,,,,,,,,,,,,,,,,,,,,,,,,,,,,,,,,,,,,,,,,,,,,,,,,,,,,,,,,,,,,,,,,,,0.080751641,,,,,,,,,,,,,,,,,,,,,,,,,,,,left,1,130,-30,100,1,2208.480578,2208.480578,2208.480578,None,None,3,0,1.3431441,,,,,,,,,,,,,,,,,,,10,22,1,2024-12-18_12h08.22.655,uWM_experiment,2022.2.3,59.99109732
,,,,,,,,,,,,,,,,,,,,5,0,5,0,10,0,10,0,,,,,,,,,,,,,,,,,,,,,,,,,,,,,,,,,,,,,,,,,,,,,,,,,,,,,,,,,,,,,,,,,,,,,,0.1,,,,,,,,,,,,,,,,,,,,,,,,,,,,right,1,160,30,190,2,2217.264255,2217.264255,2217.264255,None,None,4,0,0.9672537,,,,,,,,,,,,,,,,,,,10,22,1,2024-12-18_12h08.22.655,uWM_experiment,2022.2.3,59.99109732
,,,,,,,,,,,,,,,,,,,,5,0,5,0,11,0,11,0,,,,,,,,,,,,,,,,,,,,,,,,,,,,,,,,,,,,,,,,,,,,,,,,,,,,,,,,,,,,,,,,,,,,,,0.070751641,,,,,,,,,,,,,,,,,,,,,,,,,,,,right,1,10,30,40,1,2223.981175,2223.981175,2223.981175,None,None,3,0,1.3943809,,,,,,,,,,,,,,,,,,,10,22,1,2024-12-18_12h08.22.655,uWM_experiment,2022.2.3,59.99109732
,,,,,,,,,,,,,,,,,,,,5,0,5,0,12,0,12,0,,,,,,,,,,,,,,,,,,,,,,,,,,,,,,,,,,,,,,,,,,,,,,,,,,,,,,,,,,,,,,,,,,,,,,0.060751641,,,,,,,,,,,,,,,,,,,,,,,,,,,,left,0,130,30,160,1,2232.598194,2232.598194,2232.598194,None,None,3,0,0.8174176,,,,,,,,,,,,,,,,,,,10,22,1,2024-12-18_12h08.22.655,uWM_experiment,2022.2.3,59.99109732
,,,,,,,,,,,,,,,,,,,,5,0,5,0,13,0,13,0,,,,,,,,,,,,,,,,,,,,,,,,,,,,,,,,,,,,,,,,,,,,,,,,,,,,,,,,,,,,,,,,,,,,,,0.050751641,,,,,,,,,,,,,,,,,,,,,,,,,,,,left,1,40,-30,10,1,2240.398489,2240.398489,2240.398489,None,None,3,0,0.7849763,,,,,,,,,,,,,,,,,,,10,22,1,2024-12-18_12h08.22.655,uWM_experiment,2022.2.3,59.99109732
,,,,,,,,,,,,,,,,,,,,5,0,5,0,14,0,14,0,,,,,,,,,,,,,,,,,,,,,,,,,,,,,,,,,,,,,,,,,,,,,,,,,,,,,,,,,,,,,,,,,,,,,,0.040751641,,,,,,,,,,,,,,,,,,,,,,,,,,,,left,0,130,30,160,1,2248.598802,2248.598802,2248.598802,None,None,2,0,1.3365639,,,,,,,,,,,,,,,,,,,10,22,1,2024-12-18_12h08.22.655,uWM_experiment,2022.2.3,59.99109732
,,,,,,,,,,,,,,,,,,,,5,0,5,0,15,0,15,0,,,,,,,,,,,,,,,,,,,,,,,,,,,,,,,,,,,,,,,,,,,,,,,,,,,,,,,,,,,,,,,,,,,,,,0.030751641,,,,,,,,,,,,,,,,,,,,,,,,,,,,right,1,40,30,70,1,2256.665889,2256.665889,2256.665889,None,None,1,1,0.7334818,,,,,,,,,,,,,,,,,,,10,22,1,2024-12-18_12h08.22.655,uWM_experiment,2022.2.3,59.99109732
,,,,,,,,,,,,,,,,,,,,5,0,5,0,16,0,16,0,,,,,,,,,,,,,,,,,,,,,,,,,,,,,,,,,,,,,,,,,,,,,,,,,,,,,,,,,,,,,,,,,,,,,,0.040751641,,,,,,,,,,,,,,,,,,,,,,,,,,,,left,1,10,-30,-20,1,2263.616099,2263.616099,2263.616099,None,None,1,1,0.3351722,,,,,,,,,,,,,,,,,,,10,22,1,2024-12-18_12h08.22.655,uWM_experiment,2022.2.3,59.99109732
,,,,,,,,,,,,,,,,,,,,5,0,5,0,17,0,17,0,,,,,,,,,,,,,,,,,,,,,,,,,,,,,,,,,,,,,,,,,,,,,,,,,,,,,,,,,,,,,,,,,,,,,,0.050751641,,,,,,,,,,,,,,,,,,,,,,,,,,,,right,1,100,30,130,1,2270.699676,2270.699676,2270.699676,None,None,2,0,1.4757648,,,,,,,,,,,,,,,,,,,10,22,1,2024-12-18_12h08.22.655,uWM_experiment,2022.2.3,59.99109732
,,,,,,,,,,,,,,,,,,,,5,0,5,0,18,0,18,0,,,,,,,,,,,,,,,,,,,,,,,,,,,,,,,,,,,,,,,,,,,,,,,,,,,,,,,,,,,,,,,,,,,,,,0,,,,,,,,,,,,,,,,,,,,,,,,,,,,right,0,40,-30,10,0,2281.050085,2281.050085,2281.050085,None,None,1,1,0.4531248,,,,,,,,,,,,,,,,,,,10,22,1,2024-12-18_12h08.22.655,uWM_experiment,2022.2.3,59.99109732
,,,,,,,,,,,,,,,,,,,,5,0,5,0,19,0,19,0,,,,,,,,,,,,,,,,,,,,,,,,,,,,,,,,,,,,,,,,,,,,,,,,,,,,,,,,,,,,,,,,,,,,,,0.040751641,,,,,,,,,,,,,,,,,,,,,,,,,,,,left,1,70,-30,40,1,2289.167131,2289.167131,2289.167131,None,None,2,0,0.8721061,,,,,,,,,,,,,,,,,,,10,22,1,2024-12-18_12h08.22.655,uWM_experiment,2022.2.3,59.99109732
,,,,,,,,,,,,,,,,,,,,5,0,5,0,20,0,20,0,,,,,,,,,,,,,,,,,,,,,,,,,,,,,,,,,,,,,,,,,,,,,,,,,,,,,,,,,,,,,,,,,,,,,,0.030751641,,,,,,,,,,,,,,,,,,,,,,,,,,,,left,0,130,30,160,1,2296.384003,2296.384003,2296.384003,None,None,1,1,0.2952013,,,,,,,,,,,,,,,,,,,10,22,1,2024-12-18_12h08.22.655,uWM_experiment,2022.2.3,59.99109732
,,,,,,,,,,,,,,,,,,,,5,0,5,0,21,0,21,0,,,,,,,,,,,,,,,,,,,,,,,,,,,,,,,,,,,,,,,,,,,,,,,,,,,,,,,,,,,,,,,,,,,,,,0.040751641,,,,,,,,,,,,,,,,,,,,,,,,,,,,right,0,100,-30,70,1,2307.267789,2307.267789,2307.267789,None,None,1,1,0.2833661,,,,,,,,,,,,,,,,,,,10,22,1,2024-12-18_12h08.22.655,uWM_experiment,2022.2.3,59.99109732
,,,,,,,,,,,,,,,,,,,,5,0,5,0,22,0,22,0,,,,,,,,,,,,,,,,,,,,,,,,,,,,,,,,,,,,,,,,,,,,,,,,,,,,,,,,,,,,,,,,,,,,,,0,,,,,,,,,,,,,,,,,,,,,,,,,,,,left,0,130,30,160,0,2317.6682,2317.6682,2317.6682,None,None,1,1,0.9069711,,,,,,,,,,,,,,,,,,,10,22,1,2024-12-18_12h08.22.655,uWM_experiment,2022.2.3,59.99109732
,,,,,,,,,,,,,,,,,,,,5,0,5,0,23,0,23,0,,,,,,,,,,,,,,,,,,,,,,,,,,,,,,,,,,,,,,,,,,,,,,,,,,,,,,,,,,,,,,,,,,,,,,0.050751641,,,,,,,,,,,,,,,,,,,,,,,,,,,,right,0,40,-30,10,1,2326.951919,2326.951919,2326.951919,None,None,1,1,0.4232235,,,,,,,,,,,,,,,,,,,10,22,1,2024-12-18_12h08.22.655,uWM_experiment,2022.2.3,59.99109732
,,,,,,,,,,,,,,,,,,,,5,0,5,0,,,,,0,0,0,0,,,,,,,,,,,,,,,,,,,,,,,,,,,,,,,,,,,,,,,,,,,,,,,,,,,,,,,,,,,,,,,,,,,,,,,,,,,,,,,,,,,,,,,,,,,,,,,,,,,,,,,,,,,,2327.401882,2327.401882,space,71.3728563,space,None,,2398.804684,2398.804684,10.234073,,,,,,,,,10,22,1,2024-12-18_12h08.22.655,uWM_experiment,2022.2.3,59.99109732
,,,,,,,,,,,,,,,,,,,,5,0,5,0,,,,,1,0,1,0,,,,,,,,,,,,,,,,,,,,,,,,,,,,,,,,,,,,,,,,,,,,,,,,,,,,,,,,,,,,,,,,,,,,,,,,,,,,,,,,,,,,,,,,,,,,,,,,,,,,,,,,,,,,,,,,,,,,,,,,,,,,,,10,22,1,2024-12-18_12h08.22.655,uWM_experiment,2022.2.3,59.99109732
,,,,,,,,,,,,,,,,,,,,5,0,5,0,,,,,2,0,2,0,,,,,,,,,,,,,,,,,,,,,,,,,,,,,,,,,,,,,,,,,,,,,,,,,,,,,,,,,,,,,,,,,,,,,,,,,,,,,,,,,,,,,,,,,,,,,,,,,,,,,,,,,,,,,,,,,,,,,,,,,,,,,,10,22,1,2024-12-18_12h08.22.655,uWM_experiment,2022.2.3,59.99109732
,,,,,,,,,,,,,,,,,,,,6,0,6,0,0,0,0,0,,,,,,,,,,,,,,,,,,,,,,,,,,,,,,,,,,,,,,,,,,,,,,,,,,,,,,,,,,,,,,,,,,,,,,0.060751641,,,,,,,,,,,,,,,,,,,,2409.071746,2409.771776,2410.071782,2410.771808,2411.071815,2411.771847,2411.771847,2412.088536,left,1,130,-30,100,1,2417.572098,2417.572098,2417.572098,None,None,2,0,0.4665878,,,,,,,None,,,,,,,,,,,,10,22,1,2024-12-18_12h08.22.655,uWM_experiment,2022.2.3,59.99109732
,,,,,,,,,,,,,,,,,,,,6,0,6,0,1,0,1,0,,,,,,,,,,,,,,,,,,,,,,,,,,,,,,,,,,,,,,,,,,,,,,,,,,,,,,,,,,,,,,,,,,,,,,0.050751641,,,,,,,,,,,,,,,,,,,,,,,,,,,,left,1,10,-30,-20,1,2426.405768,2426.405768,2426.405768,None,None,1,1,0.7928308,,,,,,,,,,,,,,,,,,,10,22,1,2024-12-18_12h08.22.655,uWM_experiment,2022.2.3,59.99109732
,,,,,,,,,,,,,,,,,,,,6,0,6,0,2,0,2,0,,,,,,,,,,,,,,,,,,,,,,,,,,,,,,,,,,,,,,,,,,,,,,,,,,,,,,,,,,,,,,,,,,,,,,0.060751641,,,,,,,,,,,,,,,,,,,,,,,,,,,,right,1,130,30,160,1,2433.4727,2433.4727,2433.4727,None,None,2,0,0.6697252,,,,,,,,,,,,,,,,,,,10,22,1,2024-12-18_12h08.22.655,uWM_experiment,2022.2.3,59.99109732
,,,,,,,,,,,,,,,,,,,,6,0,6,0,3,0,3,0,,,,,,,,,,,,,,,,,,,,,,,,,,,,,,,,,,,,,,,,,,,,,,,,,,,,,,,,,,,,,,,,,,,,,,0.050751641,,,,,,,,,,,,,,,,,,,,,,,,,,,,right,1,40,30,70,1,2439.739619,2439.739619,2439.739619,None,None,1,1,0.3707961,,,,,,,,,,,,,,,,,,,10,22,1,2024-12-18_12h08.22.655,uWM_experiment,2022.2.3,59.99109732
,,,,,,,,,,,,,,,,,,,,6,0,6,0,4,0,4,0,,,,,,,,,,,,,,,,,,,,,,,,,,,,,,,,,,,,,,,,,,,,,,,,,,,,,,,,,,,,,,,,,,,,,,0.060751641,,,,,,,,,,,,,,,,,,,,,,,,,,,,left,1,70,-30,40,1,2445.956536,2445.956536,2445.956536,None,None,2,0,0.8418734,,,,,,,,,,,,,,,,,,,10,22,1,2024-12-18_12h08.22.655,uWM_experiment,2022.2.3,59.99109732
,,,,,,,,,,,,,,,,,,,,6,0,6,0,5,0,5,0,,,,,,,,,,,,,,,,,,,,,,,,,,,,,,,,,,,,,,,,,,,,,,,,,,,,,,,,,,,,,,,,,,,,,,0.050751641,,,,,,,,,,,,,,,,,,,,,,,,,,,,left,1,10,-30,-20,1,2453.973526,2453.973526,2453.973526,None,None,2,0,0.9528274,,,,,,,,,,,,,,,,,,,10,22,1,2024-12-18_12h08.22.655,uWM_experiment,2022.2.3,59.99109732
,,,,,,,,,,,,,,,,,,,,6,0,6,0,6,0,6,0,,,,,,,,,,,,,,,,,,,,,,,,,,,,,,,,,,,,,,,,,,,,,,,,,,,,,,,,,,,,,,,,,,,,,,0.040751641,,,,,,,,,,,,,,,,,,,,,,,,,,,,left,1,40,-30,10,1,2461.4738,2461.4738,2461.4738,None,None,2,0,0.4204555,,,,,,,,,,,,,,,,,,,10,22,1,2024-12-18_12h08.22.655,uWM_experiment,2022.2.3,59.99109732
,,,,,,,,,,,,,,,,,,,,6,0,6,0,7,0,7,0,,,,,,,,,,,,,,,,,,,,,,,,,,,,,,,,,,,,,,,,,,,,,,,,,,,,,,,,,,,,,,,,,,,,,,0.030751641,,,,,,,,,,,,,,,,,,,,,,,,,,,,right,0,40,-30,10,1,2468.040718,2468.040718,2468.040718,None,None,1,1,0.3576356,,,,,,,,,,,,,,,,,,,10,22,1,2024-12-18_12h08.22.655,uWM_experiment,2022.2.3,59.99109732
,,,,,,,,,,,,,,,,,,,,6,0,6,0,8,0,8,0,,,,,,,,,,,,,,,,,,,,,,,,,,,,,,,,,,,,,,,,,,,,,,,,,,,,,,,,,,,,,,,,,,,,,,0.040751641,,,,,,,,,,,,,,,,,,,,,,,,,,,,right,0,70,-30,40,1,2475.474348,2475.474348,2475.474348,None,None,1,1,0.3960108,,,,,,,,,,,,,,,,,,,10,22,1,2024-12-18_12h08.22.655,uWM_experiment,2022.2.3,59.99109732
,,,,,,,,,,,,,,,,,,,,6,0,6,0,9,0,9,0,,,,,,,,,,,,,,,,,,,,,,,,,,,,,,,,,,,,,,,,,,,,,,,,,,,,,,,,,,,,,,,,,,,,,,0.050751641,,,,,,,,,,,,,,,,,,,,,,,,,,,,right,1,70,30,100,1,2483.491343,2483.491343,2483.491343,None,None,2,0,2.0508134,,,,,,,,,,,,,,,,,,,10,22,1,2024-12-18_12h08.22.655,uWM_experiment,2022.2.3,59.99109732
,,,,,,,,,,,,,,,,,,,,6,0,6,0,10,0,10,0,,,,,,,,,,,,,,,,,,,,,,,,,,,,,,,,,,,,,,,,,,,,,,,,,,,,,,,,,,,,,,,,,,,,,,0.040751641,,,,,,,,,,,,,,,,,,,,,,,,,,,,right,0,100,-30,70,1,2491.29164,2491.29164,2491.29164,None,None,1,1,0.2905159,,,,,,,,,,,,,,,,,,,10,22,1,2024-12-18_12h08.22.655,uWM_experiment,2022.2.3,59.99109732
,,,,,,,,,,,,,,,,,,,,6,0,6,0,11,0,11,0,,,,,,,,,,,,,,,,,,,,,,,,,,,,,,,,,,,,,,,,,,,,,,,,,,,,,,,,,,,,,,,,,,,,,,0.050751641,,,,,,,,,,,,,,,,,,,,,,,,,,,,right,0,100,-30,70,1,2498.058577,2498.058577,2498.058577,None,None,1,1,0.3315565,,,,,,,,,,,,,,,,,,,10,22,1,2024-12-18_12h08.22.655,uWM_experiment,2022.2.3,59.99109732
,,,,,,,,,,,,,,,,,,,,6,0,6,0,12,0,12,0,,,,,,,,,,,,,,,,,,,,,,,,,,,,,,,,,,,,,,,,,,,,,,,,,,,,,,,,,,,,,,,,,,,,,,0.060751641,,,,,,,,,,,,,,,,,,,,,,,,,,,,right,1,70,30,100,1,2507.275586,2507.275586,2507.275586,None,None,2,0,1.5946129,,,,,,,,,,,,,,,,,,,10,22,1,2024-12-18_12h08.22.655,uWM_experiment,2022.2.3,59.99109732
,,,,,,,,,,,,,,,,,,,,6,0,6,0,13,0,13,0,,,,,,,,,,,,,,,,,,,,,,,,,,,,,,,,,,,,,,,,,,,,,,,,,,,,,,,,,,,,,,,,,,,,,,0.050751641,,,,,,,,,,,,,,,,,,,,,,,,,,,,left,1,160,-30,130,1,2514.475897,2514.475897,2514.475897,None,None,1,1,0.3302313,,,,,,,,,,,,,,,,,,,10,22,1,2024-12-18_12h08.22.655,uWM_experiment,2022.2.3,59.99109732
,,,,,,,,,,,,,,,,,,,,6,0,6,0,14,0,14,0,,,,,,,,,,,,,,,,,,,,,,,,,,,,,,,,,,,,,,,,,,,,,,,,,,,,,,,,,,,,,,,,,,,,,,0.060751641,,,,,,,,,,,,,,,,,,,,,,,,,,,,left,0,130,30,160,1,2528.043079,2528.043079,2528.043079,None,None,1,1,0.3708465,,,,,,,,,,,,,,,,,,,10,22,1,2024-12-18_12h08.22.655,uWM_experiment,2022.2.3,59.99109732
,,,,,,,,,,,,,,,,,,,,6,0,6,0,15,0,15,0,,,,,,,,,,,,,,,,,,,,,,,,,,,,,,,,,,,,,,,,,,,,,,,,,,,,,,,,,,,,,,,,,,,,,,0.070751641,,,,,,,,,,,,,,,,,,,,,,,,,,,,left,0,130,30,160,1,2534.743344,2534.743344,2534.743344,None,None,1,1,0.2865572,,,,,,,,,,,,,,,,,,,10,22,1,2024-12-18_12h08.22.655,uWM_experiment,2022.2.3,59.99109732
,,,,,,,,,,,,,,,,,,,,6,0,6,0,16,0,16,0,,,,,,,,,,,,,,,,,,,,,,,,,,,,,,,,,,,,,,,,,,,,,,,,,,,,,,,,,,,,,,,,,,,,,,0,,,,,,,,,,,,,,,,,,,,,,,,,,,,right,1,40,30,70,0,2540.626877,2540.626877,2540.626877,None,None,1,1,0.4270391,,,,,,,,,,,,,,,,,,,10,22,1,2024-12-18_12h08.22.655,uWM_experiment,2022.2.3,59.99109732
,,,,,,,,,,,,,,,,,,,,6,0,6,0,17,0,17,0,,,,,,,,,,,,,,,,,,,,,,,,,,,,,,,,,,,,,,,,,,,,,,,,,,,,,,,,,,,,,,,,,,,,,,0.080751641,,,,,,,,,,,,,,,,,,,,,,,,,,,,right,0,100,-30,70,1,2546.52711,2546.52711,2546.52711,None,None,1,1,0.3669521,,,,,,,,,,,,,,,,,,,10,22,1,2024-12-18_12h08.22.655,uWM_experiment,2022.2.3,59.99109732
,,,,,,,,,,,,,,,,,,,,6,0,6,0,18,0,18,0,,,,,,,,,,,,,,,,,,,,,,,,,,,,,,,,,,,,,,,,,,,,,,,,,,,,,,,,,,,,,,,,,,,,,,0,,,,,,,,,,,,,,,,,,,,,,,,,,,,right,1,160,30,190,0,2552.810708,2552.810708,2552.810708,None,None,1,1,0.3471795,,,,,,,,,,,,,,,,,,,10,22,1,2024-12-18_12h08.22.655,uWM_experiment,2022.2.3,59.99109732
,,,,,,,,,,,,,,,,,,,,6,0,6,0,19,0,19,0,,,,,,,,,,,,,,,,,,,,,,,,,,,,,,,,,,,,,,,,,,,,,,,,,,,,,,,,,,,,,,,,,,,,,,0.090751641,,,,,,,,,,,,,,,,,,,,,,,,,,,,right,1,160,30,190,1,2561.394356,2561.394356,2561.394356,None,None,1,1,1.195514,,,,,,,,,,,,,,,,,,,10,22,1,2024-12-18_12h08.22.655,uWM_experiment,2022.2.3,59.99109732
,,,,,,,,,,,,,,,,,,,,6,0,6,0,20,0,20,0,,,,,,,,,,,,,,,,,,,,,,,,,,,,,,,,,,,,,,,,,,,,,,,,,,,,,,,,,,,,,,,,,,,,,,0,,,,,,,,,,,,,,,,,,,,,,,,,,,,right,1,40,30,70,0,2568.327978,2568.327978,2568.327978,None,None,1,1,0.389908,,,,,,,,,,,,,,,,,,,10,22,1,2024-12-18_12h08.22.655,uWM_experiment,2022.2.3,59.99109732
,,,,,,,,,,,,,,,,,,,,6,0,6,0,21,0,21,0,,,,,,,,,,,,,,,,,,,,,,,,,,,,,,,,,,,,,,,,,,,,,,,,,,,,,,,,,,,,,,,,,,,,,,0.100751641,,,,,,,,,,,,,,,,,,,,,,,,,,,,right,1,10,30,40,1,2574.494872,2574.494872,2574.494872,None,None,1,1,0.878876,,,,,,,,,,,,,,,,,,,10,22,1,2024-12-18_12h08.22.655,uWM_experiment,2022.2.3,59.99109732
,,,,,,,,,,,,,,,,,,,,6,0,6,0,22,0,22,0,,,,,,,,,,,,,,,,,,,,,,,,,,,,,,,,,,,,,,,,,,,,,,,,,,,,,,,,,,,,,,,,,,,,,,0.110751641,,,,,,,,,,,,,,,,,,,,,,,,,,,,left,1,10,-30,-20,1,2583.128536,2583.128536,2583.128536,None,None,1,1,0.8691371,,,,,,,,,,,,,,,,,,,10,22,1,2024-12-18_12h08.22.655,uWM_experiment,2022.2.3,59.99109732
,,,,,,,,,,,,,,,,,,,,6,0,6,0,23,0,23,0,,,,,,,,,,,,,,,,,,,,,,,,,,,,,,,,,,,,,,,,,,,,,,,,,,,,,,,,,,,,,,,,,,,,,,0,,,,,,,,,,,,,,,,,,,,,,,,,,,,right,0,70,-30,40,0,2590.612148,2590.612148,2590.612148,None,None,1,1,1.9295396,,,,,,,,,,,,,,,,,,,10,22,1,2024-12-18_12h08.22.655,uWM_experiment,2022.2.3,59.99109732
,,,,,,,,,,,,,,,,,,,,6,0,6,0,,,,,0,0,0,0,,,,,,,,,,,,,,,,,,,,,,,,,,,,,,,,,,,,,,,,,,,,,,,,,,,,,,,,,,,,,,,,,,,,,,,,,,,,,,,,,,,,,,,,,,,,,,,,,,,,,,,,,,,,2592.562216,2592.562216,space,84.9390654,None,space,,,,,2677.532205,2677.532205,18.4250114,,,,,,10,22,1,2024-12-18_12h08.22.655,uWM_experiment,2022.2.3,59.99109732
,,,,,,,,,,,,,,,,,,,,6,0,6,0,,,,,1,0,1,0,,,,,,,,,,,,,,,,,,,,,,,,,,,,,,,,,,,,,,,,,,,,,,,,,,,,,,,,,,,,,,,,,,,,,,,,,,,,,,,,,,,,,,,,,,,,,,,,,,,,,,,,,,,,,,,,,,,,,,,,,,,,,,10,22,1,2024-12-18_12h08.22.655,uWM_experiment,2022.2.3,59.99109732
,,,,,,,,,,,,,,,,,,,,6,0,6,0,,,,,2,0,2,0,,,,,,,,,,,,,,,,,,,,,,,,,,,,,,,,,,,,,,,,,,,,,,,,,,,,,,,,,,,,,,,,,,,,,,,,,,,,,,,,,,,,,,,,,,,,,,,,,,,,,,,,,,,,,,,,,,,,,,,,,,,,,,10,22,1,2024-12-18_12h08.22.655,uWM_experiment,2022.2.3,59.99109732
,,,,,,,,,,,,,,,,,,,,7,0,7,0,0,0,0,0,,,,,,,,,,,,,,,,,,,,,,,,,,,,,,,,,,,,,,,,,,,,,,,,,,,,,,,,,,,,,,,,,,,,,,0,,,,,,,,,,,,,,,,,,,,2711.550245,2712.250247,2712.533602,2713.233612,2713.533612,2714.23365,2714.23365,2714.550334,right,1,10,30,40,0,2719.900558,2719.900558,2719.900558,None,None,1,1,0.4484703,,,,,,,space,,,,,,,2704.633268,2704.633268,6.8838379,,,10,22,1,2024-12-18_12h08.22.655,uWM_experiment,2022.2.3,59.99109732
,,,,,,,,,,,,,,,,,,,,7,0,7,0,1,0,1,0,,,,,,,,,,,,,,,,,,,,,,,,,,,,,,,,,,,,,,,,,,,,,,,,,,,,,,,,,,,,,,,,,,,,,,0.120751641,,,,,,,,,,,,,,,,,,,,,,,,,,,,right,0,100,-30,70,1,2728.134187,2728.134187,2728.134187,None,None,2,0,0.6948332,,,,,,,,,,,,,,,,,,,10,22,1,2024-12-18_12h08.22.655,uWM_experiment,2022.2.3,59.99109732
,,,,,,,,,,,,,,,,,,,,7,0,7,0,2,0,2,0,,,,,,,,,,,,,,,,,,,,,,,,,,,,,,,,,,,,,,,,,,,,,,,,,,,,,,,,,,,,,,,,,,,,,,0.110751641,,,,,,,,,,,,,,,,,,,,,,,,,,,,left,1,70,-30,40,1,2734.584436,2734.584436,2734.584436,None,None,2,0,0.7405005,,,,,,,,,,,,,,,,,,,10,22,1,2024-12-18_12h08.22.655,uWM_experiment,2022.2.3,59.99109732
,,,,,,,,,,,,,,,,,,,,7,0,7,0,3,0,3,0,,,,,,,,,,,,,,,,,,,,,,,,,,,,,,,,,,,,,,,,,,,,,,,,,,,,,,,,,,,,,,,,,,,,,,0,,,,,,,,,,,,,,,,,,,,,,,,,,,,left,0,100,30,130,0,2741.868052,2741.868052,2741.868052,None,None,1,1,0.3769244,,,,,,,,,,,,,,,,,,,10,22,1,2024-12-18_12h08.22.655,uWM_experiment,2022.2.3,59.99109732
,,,,,,,,,,,,,,,,,,,,7,0,7,0,4,0,4,0,,,,,,,,,,,,,,,,,,,,,,,,,,,,,,,,,,,,,,,,,,,,,,,,,,,,,,,,,,,,,,,,,,,,,,0.100751641,,,,,,,,,,,,,,,,,,,,,,,,,,,,right,1,160,30,190,1,2748.06832,2748.06832,2748.06832,None,None,2,0,1.1204901,,,,,,,,,,,,,,,,,,,10,22,1,2024-12-18_12h08.22.655,uWM_experiment,2022.2.3,59.99109732
,,,,,,,,,,,,,,,,,,,,7,0,7,0,5,0,5,0,,,,,,,,,,,,,,,,,,,,,,,,,,,,,,,,,,,,,,,,,,,,,,,,,,,,,,,,,,,,,,,,,,,,,,0.090751641,,,,,,,,,,,,,,,,,,,,,,,,,,,,right,1,130,30,160,1,2755.068601,2755.068601,2755.068601,None,None,2,0,0.6322504,,,,,,,,,,,,,,,,,,,10,22,1,2024-12-18_12h08.22.655,uWM_experiment,2022.2.3,59.99109732
,,,,,,,,,,,,,,,,,,,,7,0,7,0,6,0,6,0,,,,,,,,,,,,,,,,,,,,,,,,,,,,,,,,,,,,,,,,,,,,,,,,,,,,,,,,,,,,,,,,,,,,,,0.080751641,,,,,,,,,,,,,,,,,,,,,,,,,,,,left,1,70,-30,40,1,2761.568833,2761.568833,2761.568833,None,None,2,0,0.4359156,,,,,,,,,,,,,,,,,,,10,22,1,2024-12-18_12h08.22.655,uWM_experiment,2022.2.3,59.99109732
,,,,,,,,,,,,,,,,,,,,7,0,7,0,7,0,7,0,,,,,,,,,,,,,,,,,,,,,,,,,,,,,,,,,,,,,,,,,,,,,,,,,,,,,,,,,,,,,,,,,,,,,,0.070751641,,,,,,,,,,,,,,,,,,,,,,,,,,,,left,1,100,-30,70,1,2768.535759,2768.535759,2768.535759,None,None,2,0,0.9330459,,,,,,,,,,,,,,,,,,,10,22,1,2024-12-18_12h08.22.655,uWM_experiment,2022.2.3,59.99109732
,,,,,,,,,,,,,,,,,,,,7,0,7,0,8,0,8,0,,,,,,,,,,,,,,,,,,,,,,,,,,,,,,,,,,,,,,,,,,,,,,,,,,,,,,,,,,,,,,,,,,,,,,0.060751641,,,,,,,,,,,,,,,,,,,,,,,,,,,,right,1,160,30,190,1,2775.819391,2775.819391,2775.819391,None,None,1,1,0.3533166,,,,,,,,,,,,,,,,,,,10,22,1,2024-12-18_12h08.22.655,uWM_experiment,2022.2.3,59.99109732
,,,,,,,,,,,,,,,,,,,,7,0,7,0,9,0,9,0,,,,,,,,,,,,,,,,,,,,,,,,,,,,,,,,,,,,,,,,,,,,,,,,,,,,,,,,,,,,,,,,,,,,,,0.070751641,,,,,,,,,,,,,,,,,,,,,,,,,,,,right,1,40,30,70,1,2782.702963,2782.702963,2782.702963,None,None,2,0,0.5898093,,,,,,,,,,,,,,,,,,,10,22,1,2024-12-18_12h08.22.655,uWM_experiment,2022.2.3,59.99109732
,,,,,,,,,,,,,,,,,,,,7,0,7,0,10,0,10,0,,,,,,,,,,,,,,,,,,,,,,,,,,,,,,,,,,,,,,,,,,,,,,,,,,,,,,,,,,,,,,,,,,,,,,0.060751641,,,,,,,,,,,,,,,,,,,,,,,,,,,,right,1,100,30,130,1,2789.303253,2789.303253,2789.303253,None,None,2,0,0.3574812,,,,,,,,,,,,,,,,,,,10,22,1,2024-12-18_12h08.22.655,uWM_experiment,2022.2.3,59.99109732
,,,,,,,,,,,,,,,,,,,,7,0,7,0,11,0,11,0,,,,,,,,,,,,,,,,,,,,,,,,,,,,,,,,,,,,,,,,,,,,,,,,,,,,,,,,,,,,,,,,,,,,,,0.050751641,,,,,,,,,,,,,,,,,,,,,,,,,,,,right,1,160,30,190,1,2796.070204,2796.070204,2796.070204,None,None,2,0,0.4544005,,,,,,,,,,,,,,,,,,,10,22,1,2024-12-18_12h08.22.655,uWM_experiment,2022.2.3,59.99109732
,,,,,,,,,,,,,,,,,,,,7,0,7,0,12,0,12,0,,,,,,,,,,,,,,,,,,,,,,,,,,,,,,,,,,,,,,,,,,,,,,,,,,,,,,,,,,,,,,,,,,,,,,0,,,,,,,,,,,,,,,,,,,,,,,,,,,,right,0,40,-30,10,0,2803.403807,2803.403807,2803.403807,None,None,1,1,0.3367108,,,,,,,,,,,,,,,,,,,10,22,1,2024-12-18_12h08.22.655,uWM_experiment,2022.2.3,59.99109732
,,,,,,,,,,,,,,,,,,,,7,0,7,0,13,0,13,0,,,,,,,,,,,,,,,,,,,,,,,,,,,,,,,,,,,,,,,,,,,,,,,,,,,,,,,,,,,,,,,,,,,,,,0.040751641,,,,,,,,,,,,,,,,,,,,,,,,,,,,left,1,10,-30,-20,1,2809.854061,2809.854061,2809.854061,None,None,1,1,0.2864616,,,,,,,,,,,,,,,,,,,10,22,1,2024-12-18_12h08.22.655,uWM_experiment,2022.2.3,59.99109732
,,,,,,,,,,,,,,,,,,,,7,0,7,0,14,0,14,0,,,,,,,,,,,,,,,,,,,,,,,,,,,,,,,,,,,,,,,,,,,,,,,,,,,,,,,,,,,,,,,,,,,,,,0.050751641,,,,,,,,,,,,,,,,,,,,,,,,,,,,left,1,100,-30,70,1,2818.937755,2818.937755,2818.937755,None,None,2,0,1.3867424,,,,,,,,,,,,,,,,,,,10,22,1,2024-12-18_12h08.22.655,uWM_experiment,2022.2.3,59.99109732
,,,,,,,,,,,,,,,,,,,,7,0,7,0,15,0,15,0,,,,,,,,,,,,,,,,,,,,,,,,,,,,,,,,,,,,,,,,,,,,,,,,,,,,,,,,,,,,,,,,,,,,,,0,,,,,,,,,,,,,,,,,,,,,,,,,,,,left,0,130,30,160,0,2825.987997,2825.987997,2825.987997,None,None,1,1,0.2884621,,,,,,,,,,,,,,,,,,,10,22,1,2024-12-18_12h08.22.655,uWM_experiment,2022.2.3,59.99109732
,,,,,,,,,,,,,,,,,,,,7,0,7,0,16,0,16,0,,,,,,,,,,,,,,,,,,,,,,,,,,,,,,,,,,,,,,,,,,,,,,,,,,,,,,,,,,,,,,,,,,,,,,0.040751641,,,,,,,,,,,,,,,,,,,,,,,,,,,,left,0,100,30,130,1,2831.788225,2831.788225,2831.788225,None,None,1,1,0.3361615,,,,,,,,,,,,,,,,,,,10,22,1,2024-12-18_12h08.22.655,uWM_experiment,2022.2.3,59.99109732
,,,,,,,,,,,,,,,,,,,,7,0,7,0,17,0,17,0,,,,,,,,,,,,,,,,,,,,,,,,,,,,,,,,,,,,,,,,,,,,,,,,,,,,,,,,,,,,,,,,,,,,,,0.050751641,,,,,,,,,,,,,,,,,,,,,,,,,,,,right,0,70,-30,40,1,2844.005376,2844.005376,2844.005376,None,None,1,1,0.4309929,,,,,,,,,,,,,,,,,,,10,22,1,2024-12-18_12h08.22.655,uWM_experiment,2022.2.3,59.99109732
,,,,,,,,,,,,,,,,,,,,7,0,7,0,18,0,18,0,,,,,,,,,,,,,,,,,,,,,,,,,,,,,,,,,,,,,,,,,,,,,,,,,,,,,,,,,,,,,,,,,,,,,,0,,,,,,,,,,,,,,,,,,,,,,,,,,,,right,0,40,-30,10,0,2856.372565,2856.372565,2856.372565,None,None,1,1,0.2637456,,,,,,,,,,,,,,,,,,,10,22,1,2024-12-18_12h08.22.655,uWM_experiment,2022.2.3,59.99109732
,,,,,,,,,,,,,,,,,,,,7,0,7,0,19,0,19,0,,,,,,,,,,,,,,,,,,,,,,,,,,,,,,,,,,,,,,,,,,,,,,,,,,,,,,,,,,,,,,,,,,,,,,0.060751641,,,,,,,,,,,,,,,,,,,,,,,,,,,,left,1,130,-30,100,1,2862.406122,2862.406122,2862.406122,None,None,1,1,0.262089,,,,,,,,,,,,,,,,,,,10,22,1,2024-12-18_12h08.22.655,uWM_experiment,2022.2.3,59.99109732
,,,,,,,,,,,,,,,,,,,,7,0,7,0,20,0,20,0,,,,,,,,,,,,,,,,,,,,,,,,,,,,,,,,,,,,,,,,,,,,,,,,,,,,,,,,,,,,,,,,,,,,,,0.070751641,,,,,,,,,,,,,,,,,,,,,,,,,,,,left,1,10,-30,-20,1,2868.689675,2868.689675,2868.689675,None,None,1,1,1.5626819,,,,,,,,,,,,,,,,,,,10,22,1,2024-12-18_12h08.22.655,uWM_experiment,2022.2.3,59.99109732
,,,,,,,,,,,,,,,,,,,,7,0,7,0,21,0,21,0,,,,,,,,,,,,,,,,,,,,,,,,,,,,,,,,,,,,,,,,,,,,,,,,,,,,,,,,,,,,,,,,,,,,,,0,,,,,,,,,,,,,,,,,,,,,,,,,,,,right,1,40,30,70,0,2875.839952,2875.839952,2875.839952,None,None,1,1,0.2682737,,,,,,,,,,,,,,,,,,,10,22,1,2024-12-18_12h08.22.655,uWM_experiment,2022.2.3,59.99109732
,,,,,,,,,,,,,,,,,,,,7,0,7,0,22,0,22,0,,,,,,,,,,,,,,,,,,,,,,,,,,,,,,,,,,,,,,,,,,,,,,,,,,,,,,,,,,,,,,,,,,,,,,0.080751641,,,,,,,,,,,,,,,,,,,,,,,,,,,,right,0,40,-30,10,1,2882.423546,2882.423546,2882.423546,None,None,1,1,0.5726541,,,,,,,,,,,,,,,,,,,10,22,1,2024-12-18_12h08.22.655,uWM_experiment,2022.2.3,59.99109732
,,,,,,,,,,,,,,,,,,,,7,0,7,0,23,0,23,0,,,,,,,,,,,,,,,,,,,,,,,,,,,,,,,,,,,,,,,,,,,,,,,,,,,,,,,,,,,,,,,,,,,,,,0,,,,,,,,,,,,,,,,,,,,,,,,,,,,right,0,40,-30,10,0,2888.940469,2888.940469,2888.940469,None,None,1,1,0.2876468,,,,,,,,,,,,,,,,,,,10,22,1,2024-12-18_12h08.22.655,uWM_experiment,2022.2.3,59.99109732
,,,,,,,,,,,,,,,,,,,,7,0,7,0,,,,,0,0,0,0,,,,,,,,,,,,,,,,,,,,,,,,,,,,,,,,,,,,,,,,,,,,,,,,,,,,,,,,,,,,,,,,,,,,,,,,,,,,,,,,,,,,,,,,,,,,,,,,,,,,,,,,,,,,2889.257091,2889.257091,space,2.7311643,None,None,,,,,,,,,,,,,10,22,1,2024-12-18_12h08.22.655,uWM_experiment,2022.2.3,59.99109732
,,,,,,,,,,,,,,,,,,,,7,0,7,0,,,,,1,0,1,0,,,,,,,,,,,,,,,,,,,,,,,,,,,,,,,,,,,,,,,,,,,,,,,,,,,,,,,,,,,,,,,,,,,,,,,,,,,,,,,,,,,,,,,,,,,,,,,,,,,,,,,,,,,,,,,,,,,,,,,,,,,,,,10,22,1,2024-12-18_12h08.22.655,uWM_experiment,2022.2.3,59.99109732
,,,,,,,,,,,,,,,,,,,,7,0,7,0,,,,,2,0,2,0,,,,,,,,,,,,,,,,,,,,,,,,,,,,,,,,,,,,,,,,,,,,,,,,,,,,,,,,,,,,,,,,,,,,,,,,,,,,,,,,,,,,,,,,,,,,,,,,,,,,,,,,,,,,,,,,,,,,,,,,,,,,,,10,22,1,2024-12-18_12h08.22.655,uWM_experiment,2022.2.3,59.99109732
,,,,,,,,,,,,,,,,,,,,8,0,8,0,0,0,0,0,,,,,,,,,,,,,,,,,,,,,,,,,,,,,,,,,,,,,,,,,,,,,,,,,,,,,,,,,,,,,,,,,,,,,,0.090751641,,,,,,,,,,,,,,,,,,,,2892.007253,2892.707277,2893.007288,2893.707319,2894.00733,2894.707371,2894.707371,2895.024044,right,0,100,-30,70,1,2899.657566,2899.657566,2899.657566,None,None,1,1,0.2024758,,,,,,,None,,,,,,,,,,,,10,22,1,2024-12-18_12h08.22.655,uWM_experiment,2022.2.3,59.99109732
,,,,,,,,,,,,,,,,,,,,8,0,8,0,1,0,1,0,,,,,,,,,,,,,,,,,,,,,,,,,,,,,,,,,,,,,,,,,,,,,,,,,,,,,,,,,,,,,,,,,,,,,,0,,,,,,,,,,,,,,,,,,,,,,,,,,,,left,0,70,30,100,0,2905.691142,2905.691142,2905.691142,None,None,1,1,0.2889129,,,,,,,,,,,,,,,,,,,10,22,1,2024-12-18_12h08.22.655,uWM_experiment,2022.2.3,59.99109732
,,,,,,,,,,,,,,,,,,,,8,0,8,0,2,0,2,0,,,,,,,,,,,,,,,,,,,,,,,,,,,,,,,,,,,,,,,,,,,,,,,,,,,,,,,,,,,,,,,,,,,,,,0.100751641,,,,,,,,,,,,,,,,,,,,,,,,,,,,left,0,100,30,130,1,2912.341414,2912.341414,2912.341414,None,None,1,1,0.4787039,,,,,,,,,,,,,,,,,,,10,22,1,2024-12-18_12h08.22.655,uWM_experiment,2022.2.3,59.99109732
,,,,,,,,,,,,,,,,,,,,8,0,8,0,3,0,3,0,,,,,,,,,,,,,,,,,,,,,,,,,,,,,,,,,,,,,,,,,,,,,,,,,,,,,,,,,,,,,,,,,,,,,,0.110751641,,,,,,,,,,,,,,,,,,,,,,,,,,,,left,1,130,-30,100,1,2918.808299,2918.808299,2918.808299,None,None,2,0,0.4916766,,,,,,,,,,,,,,,,,,,10,22,1,2024-12-18_12h08.22.655,uWM_experiment,2022.2.3,59.99109732
,,,,,,,,,,,,,,,,,,,,8,0,8,0,4,0,4,0,,,,,,,,,,,,,,,,,,,,,,,,,,,,,,,,,,,,,,,,,,,,,,,,,,,,,,,,,,,,,,,,,,,,,,0.100751641,,,,,,,,,,,,,,,,,,,,,,,,,,,,right,1,10,30,40,1,2924.908537,2924.908537,2924.908537,None,None,2,0,0.7114765,,,,,,,,,,,,,,,,,,,10,22,1,2024-12-18_12h08.22.655,uWM_experiment,2022.2.3,59.99109732
,,,,,,,,,,,,,,,,,,,,8,0,8,0,5,0,5,0,,,,,,,,,,,,,,,,,,,,,,,,,,,,,,,,,,,,,,,,,,,,,,,,,,,,,,,,,,,,,,,,,,,,,,0.090751641,,,,,,,,,,,,,,,,,,,,,,,,,,,,right,0,70,-30,40,1,2931.775475,2931.775475,2931.775475,None,None,1,1,0.2605555,,,,,,,,,,,,,,,,,,,10,22,1,2024-12-18_12h08.22.655,uWM_experiment,2022.2.3,59.99109732
,,,,,,,,,,,,,,,,,,,,8,0,8,0,6,0,6,0,,,,,,,,,,,,,,,,,,,,,,,,,,,,,,,,,,,,,,,,,,,,,,,,,,,,,,,,,,,,,,,,,,,,,,0,,,,,,,,,,,,,,,,,,,,,,,,,,,,right,1,10,30,40,0,2938.525706,2938.525706,2938.525706,None,None,1,1,0.3582008,,,,,,,,,,,,,,,,,,,10,22,1,2024-12-18_12h08.22.655,uWM_experiment,2022.2.3,59.99109732
,,,,,,,,,,,,,,,,,,,,8,0,8,0,7,0,7,0,,,,,,,,,,,,,,,,,,,,,,,,,,,,,,,,,,,,,,,,,,,,,,,,,,,,,,,,,,,,,,,,,,,,,,0.100751641,,,,,,,,,,,,,,,,,,,,,,,,,,,,left,1,130,-30,100,1,2944.542656,2944.542656,2944.542656,None,None,2,0,1.0371768,,,,,,,,,,,,,,,,,,,10,22,1,2024-12-18_12h08.22.655,uWM_experiment,2022.2.3,59.99109732
,,,,,,,,,,,,,,,,,,,,8,0,8,0,8,0,8,0,,,,,,,,,,,,,,,,,,,,,,,,,,,,,,,,,,,,,,,,,,,,,,,,,,,,,,,,,,,,,,,,,,,,,,0.090751641,,,,,,,,,,,,,,,,,,,,,,,,,,,,left,1,10,-30,-20,1,2951.876273,2951.876273,2951.876273,None,None,3,0,1.839623,,,,,,,,,,,,,,,,,,,10,22,1,2024-12-18_12h08.22.655,uWM_experiment,2022.2.3,59.99109732
,,,,,,,,,,,,,,,,,,,,8,0,8,0,9,0,9,0,,,,,,,,,,,,,,,,,,,,,,,,,,,,,,,,,,,,,,,,,,,,,,,,,,,,,,,,,,,,,,,,,,,,,,0.080751641,,,,,,,,,,,,,,,,,,,,,,,,,,,,left,1,130,-30,100,1,2959.909896,2959.909896,2959.909896,None,None,2,0,1.3979899,,,,,,,,,,,,,,,,,,,10,22,1,2024-12-18_12h08.22.655,uWM_experiment,2022.2.3,59.99109732
,,,,,,,,,,,,,,,,,,,,8,0,8,0,10,0,10,0,,,,,,,,,,,,,,,,,,,,,,,,,,,,,,,,,,,,,,,,,,,,,,,,,,,,,,,,,,,,,,,,,,,,,,0.070751641,,,,,,,,,,,,,,,,,,,,,,,,,,,,right,1,10,30,40,1,2966.910185,2966.910185,2966.910185,None,None,2,0,1.4535081,,,,,,,,,,,,,,,,,,,10,22,1,2024-12-18_12h08.22.655,uWM_experiment,2022.2.3,59.99109732
,,,,,,,,,,,,,,,,,,,,8,0,8,0,11,0,11,0,,,,,,,,,,,,,,,,,,,,,,,,,,,,,,,,,,,,,,,,,,,,,,,,,,,,,,,,,,,,,,,,,,,,,,0.060751641,,,,,,,,,,,,,,,,,,,,,,,,,,,,left,1,160,-30,130,1,2974.410449,2974.410449,2974.410449,None,None,2,0,0.7773587,,,,,,,,,,,,,,,,,,,10,22,1,2024-12-18_12h08.22.655,uWM_experiment,2022.2.3,59.99109732
,,,,,,,,,,,,,,,,,,,,8,0,8,0,12,0,12,0,,,,,,,,,,,,,,,,,,,,,,,,,,,,,,,,,,,,,,,,,,,,,,,,,,,,,,,,,,,,,,,,,,,,,,0,,,,,,,,,,,,,,,,,,,,,,,,,,,,left,0,70,30,100,0,2980.744034,2980.744034,2980.744034,None,None,1,1,0.3556765,,,,,,,,,,,,,,,,,,,10,22,1,2024-12-18_12h08.22.655,uWM_experiment,2022.2.3,59.99109732
,,,,,,,,,,,,,,,,,,,,8,0,8,0,13,0,13,0,,,,,,,,,,,,,,,,,,,,,,,,,,,,,,,,,,,,,,,,,,,,,,,,,,,,,,,,,,,,,,,,,,,,,,0.050751641,,,,,,,,,,,,,,,,,,,,,,,,,,,,right,1,10,30,40,1,2986.660958,2986.660958,2986.660958,None,None,2,0,2.1587866,,,,,,,,,,,,,,,,,,,10,22,1,2024-12-18_12h08.22.655,uWM_experiment,2022.2.3,59.99109732
,,,,,,,,,,,,,,,,,,,,8,0,8,0,14,0,14,0,,,,,,,,,,,,,,,,,,,,,,,,,,,,,,,,,,,,,,,,,,,,,,,,,,,,,,,,,,,,,,,,,,,,,,0.040751641,,,,,,,,,,,,,,,,,,,,,,,,,,,,right,1,160,30,190,1,2994.594609,2994.594609,2994.594609,None,None,1,1,0.3049907,,,,,,,,,,,,,,,,,,,10,22,1,2024-12-18_12h08.22.655,uWM_experiment,2022.2.3,59.99109732
,,,,,,,,,,,,,,,,,,,,8,0,8,0,15,0,15,0,,,,,,,,,,,,,,,,,,,,,,,,,,,,,,,,,,,,,,,,,,,,,,,,,,,,,,,,,,,,,,,,,,,,,,0.1,,,,,,,,,,,,,,,,,,,,,,,,,,,,right,1,100,30,130,2,3002.26157,3002.26157,3002.26157,None,None,4,0,0.6940075,,,,,,,,,,,,,,,,,,,10,22,1,2024-12-18_12h08.22.655,uWM_experiment,2022.2.3,59.99109732
,,,,,,,,,,,,,,,,,,,,8,0,8,0,16,0,16,0,,,,,,,,,,,,,,,,,,,,,,,,,,,,,,,,,,,,,,,,,,,,,,,,,,,,,,,,,,,,,,,,,,,,,,0.050751641,,,,,,,,,,,,,,,,,,,,,,,,,,,,right,1,160,30,190,1,3010.145175,3010.145175,3010.145175,None,None,3,0,0.7143837,,,,,,,,,,,,,,,,,,,10,22,1,2024-12-18_12h08.22.655,uWM_experiment,2022.2.3,59.99109732
,,,,,,,,,,,,,,,,,,,,8,0,8,0,17,0,17,0,,,,,,,,,,,,,,,,,,,,,,,,,,,,,,,,,,,,,,,,,,,,,,,,,,,,,,,,,,,,,,,,,,,,,,0.040751641,,,,,,,,,,,,,,,,,,,,,,,,,,,,left,0,100,30,130,1,3016.745456,3016.745456,3016.745456,None,None,1,1,0.2420552,,,,,,,,,,,,,,,,,,,10,22,1,2024-12-18_12h08.22.655,uWM_experiment,2022.2.3,59.99109732
,,,,,,,,,,,,,,,,,,,,8,0,8,0,18,0,18,0,,,,,,,,,,,,,,,,,,,,,,,,,,,,,,,,,,,,,,,,,,,,,,,,,,,,,,,,,,,,,,,,,,,,,,0.050751641,,,,,,,,,,,,,,,,,,,,,,,,,,,,left,0,100,30,130,1,3022.629019,3022.629019,3022.629019,None,None,1,1,0.3506189,,,,,,,,,,,,,,,,,,,10,22,1,2024-12-18_12h08.22.655,uWM_experiment,2022.2.3,59.99109732
,,,,,,,,,,,,,,,,,,,,8,0,8,0,19,0,19,0,,,,,,,,,,,,,,,,,,,,,,,,,,,,,,,,,,,,,,,,,,,,,,,,,,,,,,,,,,,,,,,,,,,,,,0.060751641,,,,,,,,,,,,,,,,,,,,,,,,,,,,right,0,70,-30,40,1,3030.212658,3030.212658,3030.212658,None,None,1,1,0.9027731,,,,,,,,,,,,,,,,,,,10,22,1,2024-12-18_12h08.22.655,uWM_experiment,2022.2.3,59.99109732
,,,,,,,,,,,,,,,,,,,,8,0,8,0,20,0,20,0,,,,,,,,,,,,,,,,,,,,,,,,,,,,,,,,,,,,,,,,,,,,,,,,,,,,,,,,,,,,,,,,,,,,,,0.070751641,,,,,,,,,,,,,,,,,,,,,,,,,,,,right,1,130,30,160,1,3038.446288,3038.446288,3038.446288,None,None,2,0,0.50106,,,,,,,,,,,,,,,,,,,10,22,1,2024-12-18_12h08.22.655,uWM_experiment,2022.2.3,59.99109732
,,,,,,,,,,,,,,,,,,,,8,0,8,0,21,0,21,0,,,,,,,,,,,,,,,,,,,,,,,,,,,,,,,,,,,,,,,,,,,,,,,,,,,,,,,,,,,,,,,,,,,,,,0.060751641,,,,,,,,,,,,,,,,,,,,,,,,,,,,right,0,100,-30,70,1,3045.979938,3045.979938,3045.979938,None,None,1,1,0.5114203,,,,,,,,,,,,,,,,,,,10,22,1,2024-12-18_12h08.22.655,uWM_experiment,2022.2.3,59.99109732
,,,,,,,,,,,,,,,,,,,,8,0,8,0,22,0,22,0,,,,,,,,,,,,,,,,,,,,,,,,,,,,,,,,,,,,,,,,,,,,,,,,,,,,,,,,,,,,,,,,,,,,,,0.070751641,,,,,,,,,,,,,,,,,,,,,,,,,,,,left,1,70,-30,40,1,3056.363663,3056.363663,3056.363663,None,None,2,0,0.6716982,,,,,,,,,,,,,,,,,,,10,22,1,2024-12-18_12h08.22.655,uWM_experiment,2022.2.3,59.99109732
,,,,,,,,,,,,,,,,,,,,8,0,8,0,23,0,23,0,,,,,,,,,,,,,,,,,,,,,,,,,,,,,,,,,,,,,,,,,,,,,,,,,,,,,,,,,,,,,,,,,,,,,,0.060751641,,,,,,,,,,,,,,,,,,,,,,,,,,,,left,1,160,-30,130,1,3062.613904,3062.613904,3062.613904,None,None,1,1,0.3574105,,,,,,,,,,,,,,,,,,,10,22,1,2024-12-18_12h08.22.655,uWM_experiment,2022.2.3,59.99109732
,,,,,,,,,,,,,,,,,,,,8,0,8,0,,,,,0,0,0,0,,,,,,,,,,,,,,,,,,,,,,,,,,,,,,,,,,,,,,,,,,,,,,,,,,,,,,,,,,,,,,,,,,,,,,,,,,,,,,,,,,,,,,,,,,,,,,,,,,,,,,,,,,,,3062.997238,3062.997238,space,64.4457011,space,None,,3127.466433,3127.466433,5.2164945,,,,,,,,,10,22,1,2024-12-18_12h08.22.655,uWM_experiment,2022.2.3,59.99109732
,,,,,,,,,,,,,,,,,,,,8,0,8,0,,,,,1,0,1,0,,,,,,,,,,,,,,,,,,,,,,,,,,,,,,,,,,,,,,,,,,,,,,,,,,,,,,,,,,,,,,,,,,,,,,,,,,,,,,,,,,,,,,,,,,,,,,,,,,,,,,,,,,,,,,,,,,,,,,,,,,,,,,10,22,1,2024-12-18_12h08.22.655,uWM_experiment,2022.2.3,59.99109732
,,,,,,,,,,,,,,,,,,,,8,0,8,0,,,,,2,0,2,0,,,,,,,,,,,,,,,,,,,,,,,,,,,,,,,,,,,,,,,,,,,,,,,,,,,,,,,,,,,,,,,,,,,,,,,,,,,,,,,,,,,,,,,,,,,,,,,,,,,,,,,,,,,,,,,,,,,,,,,,,,,,,,10,22,1,2024-12-18_12h08.22.655,uWM_experiment,2022.2.3,59.99109732
,,,,,,,,,,,,,,,,,,,,9,0,9,0,0,0,0,0,,,,,,,,,,,,,,,,,,,,,,,,,,,,,,,,,,,,,,,,,,,,,,,,,,,,,,,,,,,,,,,,,,,,,,0.070751641,,,,,,,,,,,,,,,,,,,,3132.699964,3133.400003,3133.69998,3134.400026,3134.700049,3135.400071,3135.400071,3135.716754,left,1,10,-30,-20,1,3140.333597,3140.333597,3140.333597,None,None,1,1,0.357362,,,,,,,None,,,,,,,,,,,,10,22,1,2024-12-18_12h08.22.655,uWM_experiment,2022.2.3,59.99109732
,,,,,,,,,,,,,,,,,,,,9,0,9,0,1,0,1,0,,,,,,,,,,,,,,,,,,,,,,,,,,,,,,,,,,,,,,,,,,,,,,,,,,,,,,,,,,,,,,,,,,,,,,0,,,,,,,,,,,,,,,,,,,,,,,,,,,,left,0,70,30,100,0,3146.167159,3146.167159,3146.167159,None,None,1,1,1.0997007,,,,,,,,,,,,,,,,,,,10,22,1,2024-12-18_12h08.22.655,uWM_experiment,2022.2.3,59.99109732
,,,,,,,,,,,,,,,,,,,,9,0,9,0,2,0,2,0,,,,,,,,,,,,,,,,,,,,,,,,,,,,,,,,,,,,,,,,,,,,,,,,,,,,,,,,,,,,,,,,,,,,,,0.080751641,,,,,,,,,,,,,,,,,,,,,,,,,,,,left,1,160,-30,130,1,3152.817415,3152.817415,3152.817415,None,None,1,1,0.3054287,,,,,,,,,,,,,,,,,,,10,22,1,2024-12-18_12h08.22.655,uWM_experiment,2022.2.3,59.99109732
,,,,,,,,,,,,,,,,,,,,9,0,9,0,3,0,3,0,,,,,,,,,,,,,,,,,,,,,,,,,,,,,,,,,,,,,,,,,,,,,,,,,,,,,,,,,,,,,,,,,,,,,,0,,,,,,,,,,,,,,,,,,,,,,,,,,,,left,0,100,30,130,0,3158.667667,3158.667667,3158.667667,None,None,1,1,0.3751299,,,,,,,,,,,,,,,,,,,10,22,1,2024-12-18_12h08.22.655,uWM_experiment,2022.2.3,59.99109732
,,,,,,,,,,,,,,,,,,,,9,0,9,0,4,0,4,0,,,,,,,,,,,,,,,,,,,,,,,,,,,,,,,,,,,,,,,,,,,,,,,,,,,,,,,,,,,,,,,,,,,,,,0,,,,,,,,,,,,,,,,,,,,,,,,,,,,right,0,100,-30,70,0,3167.534657,3167.534657,3167.534657,None,None,1,1,0.3640734,,,,,,,,,,,,,,,,,,,10,22,1,2024-12-18_12h08.22.655,uWM_experiment,2022.2.3,59.99109732
,,,,,,,,,,,,,,,,,,,,9,0,9,0,5,0,5,0,,,,,,,,,,,,,,,,,,,,,,,,,,,,,,,,,,,,,,,,,,,,,,,,,,,,,,,,,,,,,,,,,,,,,,0,,,,,,,,,,,,,,,,,,,,,,,,,,,,right,0,40,-30,10,0,3176.335016,3176.335016,3176.335016,None,None,1,1,1.0356367,,,,,,,,,,,,,,,,,,,10,22,1,2024-12-18_12h08.22.655,uWM_experiment,2022.2.3,59.99109732
,,,,,,,,,,,,,,,,,,,,9,0,9,0,6,0,6,0,,,,,,,,,,,,,,,,,,,,,,,,,,,,,,,,,,,,,,,,,,,,,,,,,,,,,,,,,,,,,,,,,,,,,,0,,,,,,,,,,,,,,,,,,,,,,,,,,,,right,1,160,30,190,0,3183.435302,3183.435302,3183.435302,None,None,1,1,0.4073795,,,,,,,,,,,,,,,,,,,10,22,1,2024-12-18_12h08.22.655,uWM_experiment,2022.2.3,59.99109732
,,,,,,,,,,,,,,,,,,,,9,0,9,0,7,0,7,0,,,,,,,,,,,,,,,,,,,,,,,,,,,,,,,,,,,,,,,,,,,,,,,,,,,,,,,,,,,,,,,,,,,,,,0.090751641,,,,,,,,,,,,,,,,,,,,,,,,,,,,right,1,160,30,190,1,3190.852242,3190.852242,3190.852242,None,None,1,1,0.3824949,,,,,,,,,,,,,,,,,,,10,22,1,2024-12-18_12h08.22.655,uWM_experiment,2022.2.3,59.99109732
,,,,,,,,,,,,,,,,,,,,9,0,9,0,8,0,8,0,,,,,,,,,,,,,,,,,,,,,,,,,,,,,,,,,,,,,,,,,,,,,,,,,,,,,,,,,,,,,,,,,,,,,,0.100751641,,,,,,,,,,,,,,,,,,,,,,,,,,,,left,1,130,-30,100,1,3196.80247,3196.80247,3196.80247,None,None,1,1,0.3840527,,,,,,,,,,,,,,,,,,,10,22,1,2024-12-18_12h08.22.655,uWM_experiment,2022.2.3,59.99109732
,,,,,,,,,,,,,,,,,,,,9,0,9,0,9,0,9,0,,,,,,,,,,,,,,,,,,,,,,,,,,,,,,,,,,,,,,,,,,,,,,,,,,,,,,,,,,,,,,,,,,,,,,0.110751641,,,,,,,,,,,,,,,,,,,,,,,,,,,,left,1,160,-30,130,1,3203.236063,3203.236063,3203.236063,None,None,2,0,0.5104851,,,,,,,,,,,,,,,,,,,10,22,1,2024-12-18_12h08.22.655,uWM_experiment,2022.2.3,59.99109732
,,,,,,,,,,,,,,,,,,,,9,0,9,0,10,0,10,0,,,,,,,,,,,,,,,,,,,,,,,,,,,,,,,,,,,,,,,,,,,,,,,,,,,,,,,,,,,,,,,,,,,,,,0.100751641,,,,,,,,,,,,,,,,,,,,,,,,,,,,right,0,70,-30,40,1,3211.019689,3211.019689,3211.019689,None,None,2,0,1.0228132,,,,,,,,,,,,,,,,,,,10,22,1,2024-12-18_12h08.22.655,uWM_experiment,2022.2.3,59.99109732
,,,,,,,,,,,,,,,,,,,,9,0,9,0,11,0,11,0,,,,,,,,,,,,,,,,,,,,,,,,,,,,,,,,,,,,,,,,,,,,,,,,,,,,,,,,,,,,,,,,,,,,,,0.090751641,,,,,,,,,,,,,,,,,,,,,,,,,,,,right,1,160,30,190,1,3218.21999,3218.21999,3218.21999,None,None,2,0,1.7745873,,,,,,,,,,,,,,,,,,,10,22,1,2024-12-18_12h08.22.655,uWM_experiment,2022.2.3,59.99109732
,,,,,,,,,,,,,,,,,,,,9,0,9,0,12,0,12,0,,,,,,,,,,,,,,,,,,,,,,,,,,,,,,,,,,,,,,,,,,,,,,,,,,,,,,,,,,,,,,,,,,,,,,0,,,,,,,,,,,,,,,,,,,,,,,,,,,,left,1,10,-30,-20,0,3225.47025,3225.47025,3225.47025,None,None,1,1,0.3161834,,,,,,,,,,,,,,,,,,,10,22,1,2024-12-18_12h08.22.655,uWM_experiment,2022.2.3,59.99109732
,,,,,,,,,,,,,,,,,,,,9,0,9,0,13,0,13,0,,,,,,,,,,,,,,,,,,,,,,,,,,,,,,,,,,,,,,,,,,,,,,,,,,,,,,,,,,,,,,,,,,,,,,0.080751641,,,,,,,,,,,,,,,,,,,,,,,,,,,,left,1,40,-30,10,1,3231.920514,3231.920514,3231.920514,None,None,3,0,1.7620234,,,,,,,,,,,,,,,,,,,10,22,1,2024-12-18_12h08.22.655,uWM_experiment,2022.2.3,59.99109732
,,,,,,,,,,,,,,,,,,,,9,0,9,0,14,0,14,0,,,,,,,,,,,,,,,,,,,,,,,,,,,,,,,,,,,,,,,,,,,,,,,,,,,,,,,,,,,,,,,,,,,,,,0.070751641,,,,,,,,,,,,,,,,,,,,,,,,,,,,left,1,130,-30,100,1,3241.237543,3241.237543,3241.237543,None,None,2,0,1.2687854,,,,,,,,,,,,,,,,,,,10,22,1,2024-12-18_12h08.22.655,uWM_experiment,2022.2.3,59.99109732
,,,,,,,,,,,,,,,,,,,,9,0,9,0,15,0,15,0,,,,,,,,,,,,,,,,,,,,,,,,,,,,,,,,,,,,,,,,,,,,,,,,,,,,,,,,,,,,,,,,,,,,,,0,,,,,,,,,,,,,,,,,,,,,,,,,,,,right,0,40,-30,10,0,3248.004461,3248.004461,3248.004461,None,None,1,1,0.4218404,,,,,,,,,,,,,,,,,,,10,22,1,2024-12-18_12h08.22.655,uWM_experiment,2022.2.3,59.99109732
,,,,,,,,,,,,,,,,,,,,9,0,9,0,16,0,16,0,,,,,,,,,,,,,,,,,,,,,,,,,,,,,,,,,,,,,,,,,,,,,,,,,,,,,,,,,,,,,,,,,,,,,,0.060751641,,,,,,,,,,,,,,,,,,,,,,,,,,,,left,0,100,30,130,1,3254.838092,3254.838092,3254.838092,None,None,2,0,1.1322302,,,,,,,,,,,,,,,,,,,10,22,1,2024-12-18_12h08.22.655,uWM_experiment,2022.2.3,59.99109732
,,,,,,,,,,,,,,,,,,,,9,0,9,0,17,0,17,0,,,,,,,,,,,,,,,,,,,,,,,,,,,,,,,,,,,,,,,,,,,,,,,,,,,,,,,,,,,,,,,,,,,,,,0.050751641,,,,,,,,,,,,,,,,,,,,,,,,,,,,left,1,40,-30,10,1,3262.971716,3262.971716,3262.971716,None,None,2,0,1.0384973,,,,,,,,,,,,,,,,,,,10,22,1,2024-12-18_12h08.22.655,uWM_experiment,2022.2.3,59.99109732
,,,,,,,,,,,,,,,,,,,,9,0,9,0,18,0,18,0,,,,,,,,,,,,,,,,,,,,,,,,,,,,,,,,,,,,,,,,,,,,,,,,,,,,,,,,,,,,,,,,,,,,,,0.040751641,,,,,,,,,,,,,,,,,,,,,,,,,,,,right,1,40,30,70,1,3270.972046,3270.972046,3270.972046,None,None,1,1,0.3981907,,,,,,,,,,,,,,,,,,,10,22,1,2024-12-18_12h08.22.655,uWM_experiment,2022.2.3,59.99109732
,,,,,,,,,,,,,,,,,,,,9,0,9,0,19,0,19,0,,,,,,,,,,,,,,,,,,,,,,,,,,,,,,,,,,,,,,,,,,,,,,,,,,,,,,,,,,,,,,,,,,,,,,0,,,,,,,,,,,,,,,,,,,,,,,,,,,,right,0,70,-30,40,0,3276.85559,3276.85559,3276.85559,None,None,1,1,0.3385362,,,,,,,,,,,,,,,,,,,10,22,1,2024-12-18_12h08.22.655,uWM_experiment,2022.2.3,59.99109732
