PreTrainingPAS4_loop.thisRepN,PreTrainingPAS4_loop.thisTrialN,PreTrainingPAS4_loop.thisN,PreTrainingPAS4_loop.thisIndex,PreTrainingPAS1_loop.thisRepN,PreTrainingPAS1_loop.thisTrialN,PreTrainingPAS1_loop.thisN,PreTrainingPAS1_loop.thisIndex,RepeatCV_loop.thisRepN,RepeatCV_loop.thisTrialN,RepeatCV_loop.thisN,RepeatCV_loop.thisIndex,TrainingCV_loop.thisRepN,TrainingCV_loop.thisTrialN,TrainingCV_loop.thisN,TrainingCV_loop.thisIndex,TrainingCAL_loop.thisRepN,TrainingCAL_loop.thisTrialN,TrainingCAL_loop.thisN,TrainingCAL_loop.thisIndex,blocks_loop.thisRepN,blocks_loop.thisTrialN,blocks_loop.thisN,blocks_loop.thisIndex,trials_loop.thisRepN,trials_loop.thisTrialN,trials_loop.thisN,trials_loop.thisIndex,TrainingPAS1_loop.thisRepN,TrainingPAS1_loop.thisTrialN,TrainingPAS1_loop.thisN,TrainingPAS1_loop.thisIndex,spacebarWelcome0.started,spacebarWelcome0.keys,spacebarWelcome0.rt,spacebarWelcome1.started,gaborWelcome1.started,maskWelcome1.started,textMaskWelcome1.started,spacebarWelcome1.keys,spacebarWelcome1.rt,spacebarWelcome2.started,spacebarWelcome2.keys,spacebarWelcome2.rt,textInst_PreTrainingPAS4.started,spacebarPreTrainingPAS4.started,spacebarPreTrainingPAS4.keys,spacebarPreTrainingPAS4.rt,textPreTrainingPAS1.started,spacebarPreTrainingPAS1.started,spacebarPreTrainingPAS1.keys,spacebarPreTrainingPAS1.rt,textQUEST0.started,spacebarQUEST0.started,spacebarQUEST0.keys,spacebarQUEST0.rt,spacebar0.started,spacebar0.keys,spacebar0.rt,spacebar1.started,spacebar1.keys,spacebar1.rt,textInstructions2.started,spacebar2.started,Gabor1Inst2.started,Gabor2Inst2.started,Gabor3Inst2.started,Gabor4Inst2.started,spacebar2.keys,spacebar2.rt,textInstructionsPAS.started,spacebarInstPAS.started,spacebarInstPAS.keys,spacebarInstPAS.rt,textInstructions3.started,spacebar3.started,spacebar3.keys,spacebar3.rt,WMresp_CV,WMresp_CV_acc,oriMemo_CV,gyre_CV,oriTest_CV,feedbackText.started,feedbackText.stopped,sliderCV.started,PAStextCV.started,PASkeyCV.started,sliderCV.response,sliderCV.rt,PASkeyCV.keys,PASkeyCV.corr,PASkeyCV.rt,TextInstructionsCAL.started,spacebarCAL.started,spacebarCAL.keys,spacebarCAL.rt,contrast,WMresp_CAL,WMresp_CAL_acc,oriMemo_CAL,gyre_CAL,oriTest_CAL,cue_CAL,sliderCAL.started,PAStextCAL.started,PASkeyCAL.started,sliderCAL.response,sliderCAL.rt,PASkeyCAL.keys,PASkeyCAL.corr,PASkeyCAL.rt,propUnseen_CAL,textStart.started,spacebar4.started,spacebar4.keys,spacebar4.rt,three.started,three.stopped,two.started,two.stopped,one.started,one.stopped,blank_countdown.started,blank_countdown.stopped,WMresp,WMresp_acc,oriMemo,gyre,oriTest,cue,slider.started,textPAS_firstGabor.started,PASkey.started,slider.response,slider.rt,PASkey.keys,PASkey.corr,PASkey.rt,spacebarContinue.started,textBreak.started,spacebarContinue.keys,spacebarContinue.rt,spacebar_reminder.keys,spacebar_TrainingPAS1.keys,spacebar_endpractice.keys,spacebar_reminder.started,textReminder.started,spacebar_reminder.rt,textInst_TrainingPAS1.started,spacebar_TrainingPAS1.started,spacebar_TrainingPAS1.rt,textend_practicePAS1.started,spacebar_endpractice.started,spacebar_endpractice.rt,textThanks.started,buttonURL.started,buttonURL.numClicks,buttonURL.timesOn,buttonURL.timesOff,laboratory,participant,session,date,expName,psychopyVersion,frameRate
,,,,,,,,,,,,,,,,,,,,,,,,,,,,,,,,55.7059287,space,707.48727,,,,,,,,,,,,,,,,,,,,,,,,,,,,,,,,,,,,,,,,,,,,,,,,,,,,,,,,,,,,,,,,,,,,,,,,,,,,,,,,,,,,,,,,,,,,,,,,,,,,,,,,,,,,,,,,,,,,,,,,,,,,,,10,22,2,2024-12-26_16h33.59.860,uWM_experiment,2022.2.3,60.00121202
,,,,,,,,,,,,,,,,,,,,,,,,,,,,,,,,,,,763.2377166,763.2377166,763.2377166,763.2377166,space,6.2674448,,,,,,,,,,,,,,,,,,,,,,,,,,,,,,,,,,,,,,,,,,,,,,,,,,,,,,,,,,,,,,,,,,,,,,,,,,,,,,,,,,,,,,,,,,,,,,,,,,,,,,,,,,,,,,,,,,,,,,,,10,22,2,2024-12-26_16h33.59.860,uWM_experiment,2022.2.3,60.00121202
,,,,,,,,,,,,,,,,,,,,,,,,,,,,,,,,,,,,,,,,,769.5379887,space,7.8711242,,,,,,,,,,,,,,,,,,,,,,,,,,,,,,,,,,,,,,,,,,,,,,,,,,,,,,,,,,,,,,,,,,,,,,,,,,,,,,,,,,,,,,,,,,,,,,,,,,,,,,,,,,,,,,,,,,,,,10,22,2,2024-12-26_16h33.59.860,uWM_experiment,2022.2.3,60.00121202
,,,,,,,,,,,,,,,,,,,,,,,,,,,,,,,,,,,,,,,,,,,,777.4383508,777.4383508,space,9.6829104,,,,,,,,,,,,,,,,,,,,,,,,,,,,,,,,,,,,,,,,,,,,,,,,,,,,,,,,,,,,,,,,,,,,,,,,,,,,,,,,,,,,,,,,,,,,,,,,,,,,,,,,,,,,,,,,,10,22,2,2024-12-26_16h33.59.860,uWM_experiment,2022.2.3,60.00121202
0,0,0,0,,,,,,,,,,,,,,,,,,,,,,,,,,,,,,,,,,,,,,,,,,,,,,,,,,,,,,,,,,,,,,,,,,,,,,,,,,,,,,,,,,,,,,,,,,,,,,,,,,,,,,,,,,,,,,,,,,,,,,,,,,,,,,,,,,,,,,,,,,,,,,,,,,,,,,,,,,,,,10,22,2,2024-12-26_16h33.59.860,uWM_experiment,2022.2.3,60.00121202
1,0,1,0,,,,,,,,,,,,,,,,,,,,,,,,,,,,,,,,,,,,,,,,,,,,,,,,,,,,,,,,,,,,,,,,,,,,,,,,,,,,,,,,,,,,,,,,,,,,,,,,,,,,,,,,,,,,,,,,,,,,,,,,,,,,,,,,,,,,,,,,,,,,,,,,,,,,,,,,,,,,,10,22,2,2024-12-26_16h33.59.860,uWM_experiment,2022.2.3,60.00121202
2,0,2,0,,,,,,,,,,,,,,,,,,,,,,,,,,,,,,,,,,,,,,,,,,,,,,,,,,,,,,,,,,,,,,,,,,,,,,,,,,,,,,,,,,,,,,,,,,,,,,,,,,,,,,,,,,,,,,,,,,,,,,,,,,,,,,,,,,,,,,,,,,,,,,,,,,,,,,,,,,,,,10,22,2,2024-12-26_16h33.59.860,uWM_experiment,2022.2.3,60.00121202
,,,,,,,,,,,,,,,,,,,,,,,,,,,,,,,,,,,,,,,,,,,,,,,,795.0391363,795.0391363,space,5.9460417,,,,,,,,,,,,,,,,,,,,,,,,,,,,,,,,,,,,,,,,,,,,,,,,,,,,,,,,,,,,,,,,,,,,,,,,,,,,,,,,,,,,,,,,,,,,,,,,,,,,,,,,,,,,,10,22,2,2024-12-26_16h33.59.860,uWM_experiment,2022.2.3,60.00121202
,,,,0,0,0,0,,,,,,,,,,,,,,,,,,,,,,,,,,,,,,,,,,,,,,,,,,,,,,,,,,,,,,,,,,,,,,,,,,,,,,,,,,,,,,,,,,,,,,,,,,,,,,,,,,,,,,,,,,,,,,,,,,,,,,,,,,,,,,,,,,,,,,,,,,,,,,,,,,,,,,,,,10,22,2,2024-12-26_16h33.59.860,uWM_experiment,2022.2.3,60.00121202
,,,,1,0,1,0,,,,,,,,,,,,,,,,,,,,,,,,,,,,,,,,,,,,,,,,,,,,,,,,,,,,,,,,,,,,,,,,,,,,,,,,,,,,,,,,,,,,,,,,,,,,,,,,,,,,,,,,,,,,,,,,,,,,,,,,,,,,,,,,,,,,,,,,,,,,,,,,,,,,,,,,,10,22,2,2024-12-26_16h33.59.860,uWM_experiment,2022.2.3,60.00121202
,,,,2,0,2,0,,,,,,,,,,,,,,,,,,,,,,,,,,,,,,,,,,,,,,,,,,,,,,,,,,,,,,,,,,,,,,,,,,,,,,,,,,,,,,,,,,,,,,,,,,,,,,,,,,,,,,,,,,,,,,,,,,,,,,,,,,,,,,,,,,,,,,,,,,,,,,,,,,,,,,,,,10,22,2,2024-12-26_16h33.59.860,uWM_experiment,2022.2.3,60.00121202
,,,,,,,,,,,,,,,,,,,,,,,,,,,,,,,,,,,,,,,,,,,,,,,,,,,,809.7398105,809.7398105,space,3.3974176,,,,,,,,,,,,,,,,,,,,,,,,,,,,,,,,,,,,,,,,,,,,,,,,,,,,,,,,,,,,,,,,,,,,,,,,,,,,,,,,,,,,,,,,,,,,,,,,,,,,,,,,,10,22,2,2024-12-26_16h33.59.860,uWM_experiment,2022.2.3,60.00121202
,,,,,,,,,,,,,,,,,,,,,,,,,,,,,,,,,,,,,,,,,,,,,,,,,,,,,,,,944.5459504,space,4.0714171,,,,,,,,,,,,,,,,,,,,,,,,,,,,,,,,,,,,,,,,,,,,,,,,,,,,,,,,,,,,,,,,,,,,,,,,,,,,,,,,,,,,,,,,,,,,,,,,,,,,,,10,22,2,2024-12-26_16h33.59.860,uWM_experiment,2022.2.3,60.00121202
,,,,,,,,,,,,,,,,,,,,,,,,,,,,,,,,,,,,,,,,,,,,,,,,,,,,,,,,,,,948.6461165,space,12.5073201,,,,,,,,,,,,,,,,,,,,,,,,,,,,,,,,,,,,,,,,,,,,,,,,,,,,,,,,,,,,,,,,,,,,,,,,,,,,,,,,,,,,,,,,,,,,,,,,,,,10,22,2,2024-12-26_16h33.59.860,uWM_experiment,2022.2.3,60.00121202
,,,,,,,,,,,,,,,,,,,,,,,,,,,,,,,,,,,,,,,,,,,,,,,,,,,,,,,,,,,,,,961.1800121,961.1800121,961.1800121,961.1800121,961.1800121,961.1800121,space,9.5814395,,,,,,,,,,,,,,,,,,,,,,,,,,,,,,,,,,,,,,,,,,,,,,,,,,,,,,,,,,,,,,,,,,,,,,,,,,,,,,,,,,,,,,,,,,,10,22,2,2024-12-26_16h33.59.860,uWM_experiment,2022.2.3,60.00121202
,,,,,,,,,,,,,,,,,,,,,,,,,,,,,,,,,,,,,,,,,,,,,,,,,,,,,,,,,,,,,,,,,,,,,,970.7804456,970.7804456,space,1.8848437,,,,,,,,,,,,,,,,,,,,,,,,,,,,,,,,,,,,,,,,,,,,,,,,,,,,,,,,,,,,,,,,,,,,,,,,,,,,,,,,,,,,,,,10,22,2,2024-12-26_16h33.59.860,uWM_experiment,2022.2.3,60.00121202
,,,,,,,,,,,,,,,,,,,,,,,,,,,,,,,,,,,,,,,,,,,,,,,,,,,,,,,,,,,,,,,,,,,,,,,,,,972.6971975,972.6971975,space,3.0482389,,,,,,,,,,,,,,,,,,,,,,,,,,,,,,,,,,,,,,,,,,,,,,,,,,,,,,,,,,,,,,,,,,,,,,,,,,,,,,,,,,,10,22,2,2024-12-26_16h33.59.860,uWM_experiment,2022.2.3,60.00121202
,,,,,,,,0,0,0,0,0,0,0,0,,,,,,,,,,,,,,,,,,,,,,,,,,,,,,,,,,,,,,,,,,,,,,,,,,,,,,,,,,,,,,,right,1,70,30,100,982.3142986,983.3143614,983.3143614,983.3143614,983.3143614,None,None,4,0,3.9590988,,,,,,,,,,,,,,,,,,,,,,,,,,,,,,,,,,,,,,,,,,,,,,,,,,,,,,,,,,,,,,,,,,,,10,22,2,2024-12-26_16h33.59.860,uWM_experiment,2022.2.3,60.00121202
,,,,,,,,0,0,0,0,1,0,1,0,,,,,,,,,,,,,,,,,,,,,,,,,,,,,,,,,,,,,,,,,,,,,,,,,,,,,,,,,,,,,,,left,1,160,-30,130,993.0481112,994.0481656,994.0481656,994.0481656,994.0481656,None,None,4,0,0.3691512,,,,,,,,,,,,,,,,,,,,,,,,,,,,,,,,,,,,,,,,,,,,,,,,,,,,,,,,,,,,,,,,,,,,10,22,2,2024-12-26_16h33.59.860,uWM_experiment,2022.2.3,60.00121202
,,,,,,,,0,0,0,0,2,0,2,0,,,,,,,,,,,,,,,,,,,,,,,,,,,,,,,,,,,,,,,,,,,,,,,,,,,,,,,,,,,,,,,right,0,100,-30,70,1000.915144,1001.915198,1001.915198,1001.915198,1001.915198,None,None,4,0,1.0782154,,,,,,,,,,,,,,,,,,,,,,,,,,,,,,,,,,,,,,,,,,,,,,,,,,,,,,,,,,,,,,,,,,,,10,22,2,2024-12-26_16h33.59.860,uWM_experiment,2022.2.3,60.00121202
,,,,,,,,0,0,0,0,3,0,3,0,,,,,,,,,,,,,,,,,,,,,,,,,,,,,,,,,,,,,,,,,,,,,,,,,,,,,,,,,,,,,,,left,1,10,-30,-20,1009.232219,1010.232238,1010.232238,1010.232238,1010.232238,None,None,4,0,0.2811661,,,,,,,,,,,,,,,,,,,,,,,,,,,,,,,,,,,,,,,,,,,,,,,,,,,,,,,,,,,,,,,,,,,,10,22,2,2024-12-26_16h33.59.860,uWM_experiment,2022.2.3,60.00121202
,,,,,,,,0,0,0,0,4,0,4,0,,,,,,,,,,,,,,,,,,,,,,,,,,,,,,,,,,,,,,,,,,,,,,,,,,,,,,,,,,,,,,,right,1,160,30,190,1017.099216,,1018.099263,1018.099263,1018.099263,None,None,4,0,0.2220965,,,,,,,,,,,,,,,,,,,,,,,,,,,,,,,,,,,,,,,,,,,,,,,,,,,,,,,,,,,,,,,,,,,,10,22,2,2024-12-26_16h33.59.860,uWM_experiment,2022.2.3,60.00121202
,,,,,,,,0,0,0,0,5,0,5,0,,,,,,,,,,,,,,,,,,,,,,,,,,,,,,,,,,,,,,,,,,,,,,,,,,,,,,,,,,,,,,,right,1,40,30,70,1024.116199,1025.116245,1025.116245,1025.116245,1025.116245,None,None,4,0,0.3012026,,,,,,,,,,,,,,,,,,,,,,,,,,,,,,,,,,,,,,,,,,,,,,,,,,,,,,,,,,,,,,,,,,,,10,22,2,2024-12-26_16h33.59.860,uWM_experiment,2022.2.3,60.00121202
,,,,,,,,0,0,0,0,,,,,,,,,,,,,,,,,,,,,,,,,,,,,,,,,,,,,,,,,,,,,,,,,,,,,,,,,,,,,,,,,,,,,,,,,,,,,,,,,,,,,,,,,,,,,,,,,,,,,,,,,,,,,,,,,,,,,,,,,,,,,,,,,,,,,,,,,,,,,,,,,,,,,10,22,2,2024-12-26_16h33.59.860,uWM_experiment,2022.2.3,60.00121202
,,,,,,,,,,,,,,,,,,,,,,,,,,,,,,,,,,,,,,,,,,,,,,,,,,,,,,,,,,,,,,,,,,,,,,,,,,,,,,,,,,,,,,,,,,,,,1031.249863,1031.249863,space,3.0316052,,,,,,,,,,,,,,,,,,,,,,,,,,,,,,,,,,,,,,,,,,,,,,,,,,,,,,,,,,,,,,,,10,22,2,2024-12-26_16h33.59.860,uWM_experiment,2022.2.3,60.00121202
,,,,,,,,,,,,,,,,0,0,0,0,,,,,,,,,,,,,,,,,,,,,,,,,,,,,,,,,,,,,,,,,,,,,,,,,,,,,,,,,,,,,,,,,,,,,,,,,,,,,,0.084258697,right,1,160,30,190,1,1042.6337,1042.6337,1042.6337,None,None,2,0,2.2478068,,,,,,,,,,,,,,,,,,,,,,,,,,,,,,,,,,,,,,,,,,,,,,,,,10,22,2,2024-12-26_16h33.59.860,uWM_experiment,2022.2.3,60.00121202
,,,,,,,,,,,,,,,,1,0,1,0,,,,,,,,,,,,,,,,,,,,,,,,,,,,,,,,,,,,,,,,,,,,,,,,,,,,,,,,,,,,,,,,,,,,,,,,,,,,,,0.074258697,right,1,40,30,70,1,1050.550728,1050.550728,1050.550728,None,None,2,0,2.8267446,0,,,,,,,,,,,,,,,,,,,,,,,,,,,,,,,,,,,,,,,,,,,,,,,,10,22,2,2024-12-26_16h33.59.860,uWM_experiment,2022.2.3,60.00121202
,,,,,,,,,,,,,,,,2,0,2,0,,,,,,,,,,,,,,,,,,,,,,,,,,,,,,,,,,,,,,,,,,,,,,,,,,,,,,,,,,,,,,,,,,,,,,,,,,,,,,0.064258697,right,1,130,30,160,1,1059.717791,1059.717791,1059.717791,None,None,3,0,1.867597,0,,,,,,,,,,,,,,,,,,,,,,,,,,,,,,,,,,,,,,,,,,,,,,,,10,22,2,2024-12-26_16h33.59.860,uWM_experiment,2022.2.3,60.00121202
,,,,,,,,,,,,,,,,3,0,3,0,,,,,,,,,,,,,,,,,,,,,,,,,,,,,,,,,,,,,,,,,,,,,,,,,,,,,,,,,,,,,,,,,,,,,,,,,,,,,,0.1,left,1,70,-30,40,2,1067.71816,1067.71816,1067.71816,None,None,4,0,0.6113145,0,,,,,,,,,,,,,,,,,,,,,,,,,,,,,,,,,,,,,,,,,,,,,,,,10,22,2,2024-12-26_16h33.59.860,uWM_experiment,2022.2.3,60.00121202
,,,,,,,,,,,,,,,,4,0,4,0,,,,,,,,,,,,,,,,,,,,,,,,,,,,,,,,,,,,,,,,,,,,,,,,,,,,,,,,,,,,,,,,,,,,,,,,,,,,,,0.1,left,1,10,-30,-20,2,1075.051837,1075.051837,1075.051837,None,None,4,0,0.8376309,0,,,,,,,,,,,,,,,,,,,,,,,,,,,,,,,,,,,,,,,,,,,,,,,,10,22,2,2024-12-26_16h33.59.860,uWM_experiment,2022.2.3,60.00121202
,,,,,,,,,,,,,,,,5,0,5,0,,,,,,,,,,,,,,,,,,,,,,,,,,,,,,,,,,,,,,,,,,,,,,,,,,,,,,,,,,,,,,,,,,,,,,,,,,,,,,0.1,left,1,100,-30,70,2,1083.385571,1083.385571,1083.385571,None,None,4,0,0.9440244,0,,,,,,,,,,,,,,,,,,,,,,,,,,,,,,,,,,,,,,,,,,,,,,,,10,22,2,2024-12-26_16h33.59.860,uWM_experiment,2022.2.3,60.00121202
,,,,,,,,,,,,,,,,,,,,,,,,,,,,,,,,,,,,,,,,,,,,,,,,,,,,,,,,,,,,,,,,,,,,,,,,,,,,,,,,,,,,,,,,,,,,,,,,,,,,,,,,,,,,,,,,,1084.352247,1085.335612,space,4.5539389,,,,,,,,,,,,,,,,,,,,,,,,,,,,,,,,,,,,,,,,,,,,10,22,2,2024-12-26_16h33.59.860,uWM_experiment,2022.2.3,60.00121202
,,,,,,,,,,,,,,,,,,,,0,0,0,0,0,0,0,0,,,,,,,,,,,,,,,,,,,,,,,,,,,,,,,,,,,,,,,,,,,,,,,,,,,,,,,,,,,,,,,,,,,,,,0.064258697,,,,,,,,,,,,,,,,,,,,1089.919188,1090.619207,1090.902548,1091.602584,1091.902615,1092.602622,1092.602622,1092.952674,right,1,160,30,190,1,1097.552861,1097.552861,1097.552861,None,None,2,0,0.8167666,,,,,,,,,,,,,,,,,,,,,,10,22,2,2024-12-26_16h33.59.860,uWM_experiment,2022.2.3,60.00121202
,,,,,,,,,,,,,,,,,,,,0,0,0,0,1,0,1,0,,,,,,,,,,,,,,,,,,,,,,,,,,,,,,,,,,,,,,,,,,,,,,,,,,,,,,,,,,,,,,,,,,,,,,0,,,,,,,,,,,,,,,,,,,,,,,,,,,,left,1,160,-30,130,0,1104.119859,1104.119859,1104.119859,None,None,2,0,1.6496738,,,,,,,,,,,,,,,,,,,,,,10,22,2,2024-12-26_16h33.59.860,uWM_experiment,2022.2.3,60.00121202
,,,,,,,,,,,,,,,,,,,,0,0,0,0,2,0,2,0,,,,,,,,,,,,,,,,,,,,,,,,,,,,,,,,,,,,,,,,,,,,,,,,,,,,,,,,,,,,,,,,,,,,,,0.054258697,,,,,,,,,,,,,,,,,,,,,,,,,,,,right,0,100,-30,70,1,1111.953492,1111.953492,1111.953492,None,None,2,0,0.5760435,,,,,,,,,,,,,,,,,,,,,,10,22,2,2024-12-26_16h33.59.860,uWM_experiment,2022.2.3,60.00121202
,,,,,,,,,,,,,,,,,,,,0,0,0,0,3,0,3,0,,,,,,,,,,,,,,,,,,,,,,,,,,,,,,,,,,,,,,,,,,,,,,,,,,,,,,,,,,,,,,,,,,,,,,0.044258697,,,,,,,,,,,,,,,,,,,,,,,,,,,,left,1,160,-30,130,1,1118.737156,1118.737156,1118.737156,None,None,2,0,0.7043037,,,,,,,,,,,,,,,,,,,,,,10,22,2,2024-12-26_16h33.59.860,uWM_experiment,2022.2.3,60.00121202
,,,,,,,,,,,,,,,,,,,,0,0,0,0,4,0,4,0,,,,,,,,,,,,,,,,,,,,,,,,,,,,,,,,,,,,,,,,,,,,,,,,,,,,,,,,,,,,,,,,,,,,,,0.034258697,,,,,,,,,,,,,,,,,,,,,,,,,,,,right,0,100,-30,70,1,1125.40458,1125.40458,1125.40458,None,None,2,0,0.9090075,,,,,,,,,,,,,,,,,,,,,,10,22,2,2024-12-26_16h33.59.860,uWM_experiment,2022.2.3,60.00121202
,,,,,,,,,,,,,,,,,,,,0,0,0,0,5,0,5,0,,,,,,,,,,,,,,,,,,,,,,,,,,,,,,,,,,,,,,,,,,,,,,,,,,,,,,,,,,,,,,,,,,,,,,0.024258697,,,,,,,,,,,,,,,,,,,,,,,,,,,,right,0,100,-30,70,1,1132.987824,1132.987824,1132.987824,None,None,2,0,1.5016417,,,,,,,,,,,,,,,,,,,,,,10,22,2,2024-12-26_16h33.59.860,uWM_experiment,2022.2.3,60.00121202
,,,,,,,,,,,,,,,,,,,,0,0,0,0,6,0,6,0,,,,,,,,,,,,,,,,,,,,,,,,,,,,,,,,,,,,,,,,,,,,,,,,,,,,,,,,,,,,,,,,,,,,,,0,,,,,,,,,,,,,,,,,,,,,,,,,,,,right,1,10,30,40,0,1140.404824,1140.404824,1140.404824,None,None,2,0,0.6447134,,,,,,,,,,,,,,,,,,,,,,10,22,2,2024-12-26_16h33.59.860,uWM_experiment,2022.2.3,60.00121202
,,,,,,,,,,,,,,,,,,,,0,0,0,0,7,0,7,0,,,,,,,,,,,,,,,,,,,,,,,,,,,,,,,,,,,,,,,,,,,,,,,,,,,,,,,,,,,,,,,,,,,,,,0,,,,,,,,,,,,,,,,,,,,,,,,,,,,right,0,70,-30,40,0,1146.721744,1146.721744,1146.721744,None,None,2,0,0.5839045,,,,,,,,,,,,,,,,,,,,,,10,22,2,2024-12-26_16h33.59.860,uWM_experiment,2022.2.3,60.00121202
,,,,,,,,,,,,,,,,,,,,0,0,0,0,8,0,8,0,,,,,,,,,,,,,,,,,,,,,,,,,,,,,,,,,,,,,,,,,,,,,,,,,,,,,,,,,,,,,,,,,,,,,,0.014258697,,,,,,,,,,,,,,,,,,,,,,,,,,,,right,0,40,-30,10,1,1153.638749,1153.638749,1153.638749,None,None,2,0,0.9228864,,,,,,,,,,,,,,,,,,,,,,10,22,2,2024-12-26_16h33.59.860,uWM_experiment,2022.2.3,60.00121202
,,,,,,,,,,,,,,,,,,,,0,0,0,0,9,0,9,0,,,,,,,,,,,,,,,,,,,,,,,,,,,,,,,,,,,,,,,,,,,,,,,,,,,,,,,,,,,,,,,,,,,,,,0.005,,,,,,,,,,,,,,,,,,,,,,,,,,,,left,0,130,30,160,1,1160.172364,1160.172364,1160.172364,None,None,1,1,0.5092407,,,,,,,,,,,,,,,,,,,,,,10,22,2,2024-12-26_16h33.59.860,uWM_experiment,2022.2.3,60.00121202
,,,,,,,,,,,,,,,,,,,,0,0,0,0,10,0,10,0,,,,,,,,,,,,,,,,,,,,,,,,,,,,,,,,,,,,,,,,,,,,,,,,,,,,,,,,,,,,,,,,,,,,,,0,,,,,,,,,,,,,,,,,,,,,,,,,,,,left,0,130,30,160,0,1166.322651,1166.322651,1166.322651,None,None,1,1,0.6229909,,,,,,,,,,,,,,,,,,,,,,10,22,2,2024-12-26_16h33.59.860,uWM_experiment,2022.2.3,60.00121202
,,,,,,,,,,,,,,,,,,,,0,0,0,0,11,0,11,0,,,,,,,,,,,,,,,,,,,,,,,,,,,,,,,,,,,,,,,,,,,,,,,,,,,,,,,,,,,,,,,,,,,,,,0,,,,,,,,,,,,,,,,,,,,,,,,,,,,left,1,160,-30,130,0,1173.056258,1173.056258,1173.056258,None,None,1,1,0.6333546,,,,,,,,,,,,,,,,,,,,,,10,22,2,2024-12-26_16h33.59.860,uWM_experiment,2022.2.3,60.00121202
,,,,,,,,,,,,,,,,,,,,0,0,0,0,12,0,12,0,,,,,,,,,,,,,,,,,,,,,,,,,,,,,,,,,,,,,,,,,,,,,,,,,,,,,,,,,,,,,,,,,,,,,,0.015,,,,,,,,,,,,,,,,,,,,,,,,,,,,right,1,160,30,190,1,1179.573246,1179.573246,1179.573246,None,None,1,1,0.7883374,,,,,,,,,,,,,,,,,,,,,,10,22,2,2024-12-26_16h33.59.860,uWM_experiment,2022.2.3,60.00121202
,,,,,,,,,,,,,,,,,,,,0,0,0,0,13,0,13,0,,,,,,,,,,,,,,,,,,,,,,,,,,,,,,,,,,,,,,,,,,,,,,,,,,,,,,,,,,,,,,,,,,,,,,0,,,,,,,,,,,,,,,,,,,,,,,,,,,,right,1,10,30,40,0,1186.140207,1186.140207,1186.140207,None,None,1,1,0.9734111,,,,,,,,,,,,,,,,,,,,,,10,22,2,2024-12-26_16h33.59.860,uWM_experiment,2022.2.3,60.00121202
,,,,,,,,,,,,,,,,,,,,0,0,0,0,14,0,14,0,,,,,,,,,,,,,,,,,,,,,,,,,,,,,,,,,,,,,,,,,,,,,,,,,,,,,,,,,,,,,,,,,,,,,,0,,,,,,,,,,,,,,,,,,,,,,,,,,,,left,1,10,-30,-20,0,1192.673847,1192.673847,1192.673847,None,None,1,1,0.6877001,,,,,,,,,,,,,,,,,,,,,,10,22,2,2024-12-26_16h33.59.860,uWM_experiment,2022.2.3,60.00121202
,,,,,,,,,,,,,,,,,,,,0,0,0,0,15,0,15,0,,,,,,,,,,,,,,,,,,,,,,,,,,,,,,,,,,,,,,,,,,,,,,,,,,,,,,,,,,,,,,,,,,,,,,0.1,,,,,,,,,,,,,,,,,,,,,,,,,,,,left,1,70,-30,40,2,1200.740854,1200.740854,1200.740854,None,None,4,0,1.0526758,,,,,,,,,,,,,,,,,,,,,,10,22,2,2024-12-26_16h33.59.860,uWM_experiment,2022.2.3,60.00121202
,,,,,,,,,,,,,,,,,,,,0,0,0,0,16,0,16,0,,,,,,,,,,,,,,,,,,,,,,,,,,,,,,,,,,,,,,,,,,,,,,,,,,,,,,,,,,,,,,,,,,,,,,0.025,,,,,,,,,,,,,,,,,,,,,,,,,,,,left,1,160,-30,130,1,1207.474496,1207.474496,1207.474496,None,None,1,1,0.2951994,,,,,,,,,,,,,,,,,,,,,,10,22,2,2024-12-26_16h33.59.860,uWM_experiment,2022.2.3,60.00121202
,,,,,,,,,,,,,,,,,,,,0,0,0,0,17,0,17,0,,,,,,,,,,,,,,,,,,,,,,,,,,,,,,,,,,,,,,,,,,,,,,,,,,,,,,,,,,,,,,,,,,,,,,0.035,,,,,,,,,,,,,,,,,,,,,,,,,,,,right,1,160,30,190,1,1213.358104,1213.358104,1213.358104,None,None,2,0,0.5154846,,,,,,,,,,,,,,,,,,,,,,10,22,2,2024-12-26_16h33.59.860,uWM_experiment,2022.2.3,60.00121202
,,,,,,,,,,,,,,,,,,,,0,0,0,0,18,0,18,0,,,,,,,,,,,,,,,,,,,,,,,,,,,,,,,,,,,,,,,,,,,,,,,,,,,,,,,,,,,,,,,,,,,,,,0.025,,,,,,,,,,,,,,,,,,,,,,,,,,,,left,1,160,-30,130,1,1219.391706,1219.391706,1219.391706,None,None,1,1,0.3459743,,,,,,,,,,,,,,,,,,,,,,10,22,2,2024-12-26_16h33.59.860,uWM_experiment,2022.2.3,60.00121202
,,,,,,,,,,,,,,,,,,,,0,0,0,0,19,0,19,0,,,,,,,,,,,,,,,,,,,,,,,,,,,,,,,,,,,,,,,,,,,,,,,,,,,,,,,,,,,,,,,,,,,,,,0,,,,,,,,,,,,,,,,,,,,,,,,,,,,right,0,70,-30,40,0,1225.258621,1225.258621,1225.258621,None,None,1,1,0.6950394,,,,,,,,,,,,,,,,,,,,,,10,22,2,2024-12-26_16h33.59.860,uWM_experiment,2022.2.3,60.00121202
,,,,,,,,,,,,,,,,,,,,0,0,0,0,20,0,20,0,,,,,,,,,,,,,,,,,,,,,,,,,,,,,,,,,,,,,,,,,,,,,,,,,,,,,,,,,,,,,,,,,,,,,,0.1,,,,,,,,,,,,,,,,,,,,,,,,,,,,right,1,70,30,100,2,1232.54232,1232.54232,1232.54232,None,None,4,0,0.5313993,,,,,,,,,,,,,,,,,,,,,,10,22,2,2024-12-26_16h33.59.860,uWM_experiment,2022.2.3,60.00121202
,,,,,,,,,,,,,,,,,,,,0,0,0,0,21,0,21,0,,,,,,,,,,,,,,,,,,,,,,,,,,,,,,,,,,,,,,,,,,,,,,,,,,,,,,,,,,,,,,,,,,,,,,0.035,,,,,,,,,,,,,,,,,,,,,,,,,,,,left,1,40,-30,10,1,1241.292689,1241.292689,1241.292689,None,None,2,0,0.5490593,,,,,,,,,,,,,,,,,,,,,,10,22,2,2024-12-26_16h33.59.860,uWM_experiment,2022.2.3,60.00121202
,,,,,,,,,,,,,,,,,,,,0,0,0,0,22,0,22,0,,,,,,,,,,,,,,,,,,,,,,,,,,,,,,,,,,,,,,,,,,,,,,,,,,,,,,,,,,,,,,,,,,,,,,0.025,,,,,,,,,,,,,,,,,,,,,,,,,,,,right,1,10,30,40,1,1248.576338,1248.576338,1248.576338,None,None,2,0,1.0733736,,,,,,,,,,,,,,,,,,,,,,10,22,2,2024-12-26_16h33.59.860,uWM_experiment,2022.2.3,60.00121202
,,,,,,,,,,,,,,,,,,,,0,0,0,0,23,0,23,0,,,,,,,,,,,,,,,,,,,,,,,,,,,,,,,,,,,,,,,,,,,,,,,,,,,,,,,,,,,,,,,,,,,,,,0.015,,,,,,,,,,,,,,,,,,,,,,,,,,,,right,1,10,30,40,1,1255.893371,1255.893371,1255.893371,None,None,1,1,0.316391,,,,,,,,,,,,,,,,,,,,,,10,22,2,2024-12-26_16h33.59.860,uWM_experiment,2022.2.3,60.00121202
,,,,,,,,,,,,,,,,,,,,0,0,0,0,,,,,0,0,0,0,,,,,,,,,,,,,,,,,,,,,,,,,,,,,,,,,,,,,,,,,,,,,,,,,,,,,,,,,,,,,,,,,,,,,,,,,,,,,,,,,,,,,,,,,,,,,,,,,,,,,,,,,,,,1256.226675,1256.226675,space,40.4710389,None,None,,,,,,,,,,,,,,,,10,22,2,2024-12-26_16h33.59.860,uWM_experiment,2022.2.3,60.00121202
,,,,,,,,,,,,,,,,,,,,0,0,0,0,,,,,1,0,1,0,,,,,,,,,,,,,,,,,,,,,,,,,,,,,,,,,,,,,,,,,,,,,,,,,,,,,,,,,,,,,,,,,,,,,,,,,,,,,,,,,,,,,,,,,,,,,,,,,,,,,,,,,,,,,,,,,,,,,,,,,,,,,,,,,10,22,2,2024-12-26_16h33.59.860,uWM_experiment,2022.2.3,60.00121202
,,,,,,,,,,,,,,,,,,,,0,0,0,0,,,,,2,0,2,0,,,,,,,,,,,,,,,,,,,,,,,,,,,,,,,,,,,,,,,,,,,,,,,,,,,,,,,,,,,,,,,,,,,,,,,,,,,,,,,,,,,,,,,,,,,,,,,,,,,,,,,,,,,,,,,,,,,,,,,,,,,,,,,,,10,22,2,2024-12-26_16h33.59.860,uWM_experiment,2022.2.3,60.00121202
,,,,,,,,,,,,,,,,,,,,1,0,1,0,0,0,0,0,,,,,,,,,,,,,,,,,,,,,,,,,,,,,,,,,,,,,,,,,,,,,,,,,,,,,,,,,,,,,,,,,,,,,,0.025,,,,,,,,,,,,,,,,,,,,1296.728527,1297.428562,1297.728562,1298.428603,1298.728611,1299.428636,1299.428636,1299.745334,right,0,40,-30,10,1,1304.462228,1304.462228,1304.462228,None,None,1,1,0.7874974,,,,,,,None,,,,,,,,,,,,,,,10,22,2,2024-12-26_16h33.59.860,uWM_experiment,2022.2.3,60.00121202
,,,,,,,,,,,,,,,,,,,,1,0,1,0,1,0,1,0,,,,,,,,,,,,,,,,,,,,,,,,,,,,,,,,,,,,,,,,,,,,,,,,,,,,,,,,,,,,,,,,,,,,,,0.035,,,,,,,,,,,,,,,,,,,,,,,,,,,,left,0,100,30,130,1,1310.762519,1310.762519,1310.762519,None,None,1,1,0.3511299,,,,,,,,,,,,,,,,,,,,,,10,22,2,2024-12-26_16h33.59.860,uWM_experiment,2022.2.3,60.00121202
,,,,,,,,,,,,,,,,,,,,1,0,1,0,2,0,2,0,,,,,,,,,,,,,,,,,,,,,,,,,,,,,,,,,,,,,,,,,,,,,,,,,,,,,,,,,,,,,,,,,,,,,,0.045,,,,,,,,,,,,,,,,,,,,,,,,,,,,left,1,10,-30,-20,1,1316.89612,1316.89612,1316.89612,None,None,1,1,0.3136652,,,,,,,,,,,,,,,,,,,,,,10,22,2,2024-12-26_16h33.59.860,uWM_experiment,2022.2.3,60.00121202
,,,,,,,,,,,,,,,,,,,,1,0,1,0,3,0,3,0,,,,,,,,,,,,,,,,,,,,,,,,,,,,,,,,,,,,,,,,,,,,,,,,,,,,,,,,,,,,,,,,,,,,,,0.055,,,,,,,,,,,,,,,,,,,,,,,,,,,,left,0,130,30,160,1,1322.729754,1322.729754,1322.729754,None,None,1,1,0.3600485,,,,,,,,,,,,,,,,,,,,,,10,22,2,2024-12-26_16h33.59.860,uWM_experiment,2022.2.3,60.00121202
,,,,,,,,,,,,,,,,,,,,1,0,1,0,4,0,4,0,,,,,,,,,,,,,,,,,,,,,,,,,,,,,,,,,,,,,,,,,,,,,,,,,,,,,,,,,,,,,,,,,,,,,,0.065,,,,,,,,,,,,,,,,,,,,,,,,,,,,left,0,130,30,160,1,1329.746675,1329.746675,1329.746675,None,None,2,0,0.4390831,,,,,,,,,,,,,,,,,,,,,,10,22,2,2024-12-26_16h33.59.860,uWM_experiment,2022.2.3,60.00121202
,,,,,,,,,,,,,,,,,,,,1,0,1,0,5,0,5,0,,,,,,,,,,,,,,,,,,,,,,,,,,,,,,,,,,,,,,,,,,,,,,,,,,,,,,,,,,,,,,,,,,,,,,0.055,,,,,,,,,,,,,,,,,,,,,,,,,,,,right,1,10,30,40,1,1335.880341,1335.880341,1335.880341,None,None,2,0,0.3053904,,,,,,,,,,,,,,,,,,,,,,10,22,2,2024-12-26_16h33.59.860,uWM_experiment,2022.2.3,60.00121202
,,,,,,,,,,,,,,,,,,,,1,0,1,0,6,0,6,0,,,,,,,,,,,,,,,,,,,,,,,,,,,,,,,,,,,,,,,,,,,,,,,,,,,,,,,,,,,,,,,,,,,,,,0.045,,,,,,,,,,,,,,,,,,,,,,,,,,,,left,1,160,-30,130,1,1342.363941,1342.363941,1342.363941,None,None,2,0,0.3978957,,,,,,,,,,,,,,,,,,,,,,10,22,2,2024-12-26_16h33.59.860,uWM_experiment,2022.2.3,60.00121202
,,,,,,,,,,,,,,,,,,,,1,0,1,0,7,0,7,0,,,,,,,,,,,,,,,,,,,,,,,,,,,,,,,,,,,,,,,,,,,,,,,,,,,,,,,,,,,,,,,,,,,,,,0.035,,,,,,,,,,,,,,,,,,,,,,,,,,,,right,0,100,-30,70,1,1348.36419,1348.36419,1348.36419,None,None,2,0,0.5815908,,,,,,,,,,,,,,,,,,,,,,10,22,2,2024-12-26_16h33.59.860,uWM_experiment,2022.2.3,60.00121202
,,,,,,,,,,,,,,,,,,,,1,0,1,0,8,0,8,0,,,,,,,,,,,,,,,,,,,,,,,,,,,,,,,,,,,,,,,,,,,,,,,,,,,,,,,,,,,,,,,,,,,,,,0.025,,,,,,,,,,,,,,,,,,,,,,,,,,,,left,1,160,-30,130,1,1354.564494,1354.564494,1354.564494,None,None,2,0,0.6773541,,,,,,,,,,,,,,,,,,,,,,10,22,2,2024-12-26_16h33.59.860,uWM_experiment,2022.2.3,60.00121202
,,,,,,,,,,,,,,,,,,,,1,0,1,0,9,0,9,0,,,,,,,,,,,,,,,,,,,,,,,,,,,,,,,,,,,,,,,,,,,,,,,,,,,,,,,,,,,,,,,,,,,,,,0.015,,,,,,,,,,,,,,,,,,,,,,,,,,,,right,0,70,-30,40,1,1361.098103,1361.098103,1361.098103,None,None,2,0,0.4157293,,,,,,,,,,,,,,,,,,,,,,10,22,2,2024-12-26_16h33.59.860,uWM_experiment,2022.2.3,60.00121202
,,,,,,,,,,,,,,,,,,,,1,0,1,0,10,0,10,0,,,,,,,,,,,,,,,,,,,,,,,,,,,,,,,,,,,,,,,,,,,,,,,,,,,,,,,,,,,,,,,,,,,,,,0.005,,,,,,,,,,,,,,,,,,,,,,,,,,,,left,1,160,-30,130,1,1367.148379,1367.148379,1367.148379,None,None,2,0,1.3975093,,,,,,,,,,,,,,,,,,,,,,10,22,2,2024-12-26_16h33.59.860,uWM_experiment,2022.2.3,60.00121202
,,,,,,,,,,,,,,,,,,,,1,0,1,0,11,0,11,0,,,,,,,,,,,,,,,,,,,,,,,,,,,,,,,,,,,,,,,,,,,,,,,,,,,,,,,,,,,,,,,,,,,,,,0,,,,,,,,,,,,,,,,,,,,,,,,,,,,left,1,10,-30,-20,0,1374.415368,1374.415368,1374.415368,None,None,2,0,0.4905232,,,,,,,,,,,,,,,,,,,,,,10,22,2,2024-12-26_16h33.59.860,uWM_experiment,2022.2.3,60.00121202
,,,,,,,,,,,,,,,,,,,,1,0,1,0,12,0,12,0,,,,,,,,,,,,,,,,,,,,,,,,,,,,,,,,,,,,,,,,,,,,,,,,,,,,,,,,,,,,,,,,,,,,,,0.005,,,,,,,,,,,,,,,,,,,,,,,,,,,,left,0,130,30,160,1,1380.432295,1380.432295,1380.432295,None,None,2,0,0.4577507,,,,,,,,,,,,,,,,,,,,,,10,22,2,2024-12-26_16h33.59.860,uWM_experiment,2022.2.3,60.00121202
,,,,,,,,,,,,,,,,,,,,1,0,1,0,13,0,13,0,,,,,,,,,,,,,,,,,,,,,,,,,,,,,,,,,,,,,,,,,,,,,,,,,,,,,,,,,,,,,,,,,,,,,,0.005,,,,,,,,,,,,,,,,,,,,,,,,,,,,right,1,10,30,40,1,1386.532602,1386.532602,1386.532602,None,None,2,0,0.3893289,,,,,,,,,,,,,,,,,,,,,,10,22,2,2024-12-26_16h33.59.860,uWM_experiment,2022.2.3,60.00121202
,,,,,,,,,,,,,,,,,,,,1,0,1,0,14,0,14,0,,,,,,,,,,,,,,,,,,,,,,,,,,,,,,,,,,,,,,,,,,,,,,,,,,,,,,,,,,,,,,,,,,,,,,0.005,,,,,,,,,,,,,,,,,,,,,,,,,,,,left,0,130,30,160,1,1392.449549,1392.449549,1392.449549,None,None,2,0,0.8803098,,,,,,,,,,,,,,,,,,,,,,10,22,2,2024-12-26_16h33.59.860,uWM_experiment,2022.2.3,60.00121202
,,,,,,,,,,,,,,,,,,,,1,0,1,0,15,0,15,0,,,,,,,,,,,,,,,,,,,,,,,,,,,,,,,,,,,,,,,,,,,,,,,,,,,,,,,,,,,,,,,,,,,,,,0.005,,,,,,,,,,,,,,,,,,,,,,,,,,,,right,1,160,30,190,1,1398.883154,1398.883154,1398.883154,None,None,2,0,0.4386387,,,,,,,,,,,,,,,,,,,,,,10,22,2,2024-12-26_16h33.59.860,uWM_experiment,2022.2.3,60.00121202
,,,,,,,,,,,,,,,,,,,,1,0,1,0,16,0,16,0,,,,,,,,,,,,,,,,,,,,,,,,,,,,,,,,,,,,,,,,,,,,,,,,,,,,,,,,,,,,,,,,,,,,,,0.005,,,,,,,,,,,,,,,,,,,,,,,,,,,,right,0,100,-30,70,1,1404.800085,1404.800085,1404.800085,None,None,2,0,0.4418495,,,,,,,,,,,,,,,,,,,,,,10,22,2,2024-12-26_16h33.59.860,uWM_experiment,2022.2.3,60.00121202
,,,,,,,,,,,,,,,,,,,,1,0,1,0,17,0,17,0,,,,,,,,,,,,,,,,,,,,,,,,,,,,,,,,,,,,,,,,,,,,,,,,,,,,,,,,,,,,,,,,,,,,,,0.1,,,,,,,,,,,,,,,,,,,,,,,,,,,,left,1,160,-30,130,2,1411.083703,1411.083703,1411.083703,None,None,4,0,0.4221164,,,,,,,,,,,,,,,,,,,,,,10,22,2,2024-12-26_16h33.59.860,uWM_experiment,2022.2.3,60.00121202
,,,,,,,,,,,,,,,,,,,,1,0,1,0,18,0,18,0,,,,,,,,,,,,,,,,,,,,,,,,,,,,,,,,,,,,,,,,,,,,,,,,,,,,,,,,,,,,,,,,,,,,,,0.005,,,,,,,,,,,,,,,,,,,,,,,,,,,,right,1,10,30,40,1,1416.98396,1416.98396,1416.98396,None,None,1,1,0.2899594,,,,,,,,,,,,,,,,,,,,,,10,22,2,2024-12-26_16h33.59.860,uWM_experiment,2022.2.3,60.00121202
,,,,,,,,,,,,,,,,,,,,1,0,1,0,19,0,19,0,,,,,,,,,,,,,,,,,,,,,,,,,,,,,,,,,,,,,,,,,,,,,,,,,,,,,,,,,,,,,,,,,,,,,,0.015,,,,,,,,,,,,,,,,,,,,,,,,,,,,left,0,70,30,100,1,1424.267652,1424.267652,1424.267652,None,None,1,1,0.5021883,,,,,,,,,,,,,,,,,,,,,,10,22,2,2024-12-26_16h33.59.860,uWM_experiment,2022.2.3,60.00121202
,,,,,,,,,,,,,,,,,,,,1,0,1,0,20,0,20,0,,,,,,,,,,,,,,,,,,,,,,,,,,,,,,,,,,,,,,,,,,,,,,,,,,,,,,,,,,,,,,,,,,,,,,0.025,,,,,,,,,,,,,,,,,,,,,,,,,,,,right,1,10,30,40,1,1430.484558,1430.484558,1430.484558,None,None,1,1,0.4692782,,,,,,,,,,,,,,,,,,,,,,10,22,2,2024-12-26_16h33.59.860,uWM_experiment,2022.2.3,60.00121202
,,,,,,,,,,,,,,,,,,,,1,0,1,0,21,0,21,0,,,,,,,,,,,,,,,,,,,,,,,,,,,,,,,,,,,,,,,,,,,,,,,,,,,,,,,,,,,,,,,,,,,,,,0.035,,,,,,,,,,,,,,,,,,,,,,,,,,,,left,0,70,30,100,1,1437.118215,1437.118215,1437.118215,None,None,1,1,0.4516589,,,,,,,,,,,,,,,,,,,,,,10,22,2,2024-12-26_16h33.59.860,uWM_experiment,2022.2.3,60.00121202
,,,,,,,,,,,,,,,,,,,,1,0,1,0,22,0,22,0,,,,,,,,,,,,,,,,,,,,,,,,,,,,,,,,,,,,,,,,,,,,,,,,,,,,,,,,,,,,,,,,,,,,,,0,,,,,,,,,,,,,,,,,,,,,,,,,,,,right,0,40,-30,10,0,1443.418476,1443.418476,1443.418476,None,None,1,1,0.4713463,,,,,,,,,,,,,,,,,,,,,,10,22,2,2024-12-26_16h33.59.860,uWM_experiment,2022.2.3,60.00121202
,,,,,,,,,,,,,,,,,,,,1,0,1,0,23,0,23,0,,,,,,,,,,,,,,,,,,,,,,,,,,,,,,,,,,,,,,,,,,,,,,,,,,,,,,,,,,,,,,,,,,,,,,0,,,,,,,,,,,,,,,,,,,,,,,,,,,,right,0,70,-30,40,0,1449.518785,1449.518785,1449.518785,None,None,1,1,0.4751992,,,,,,,,,,,,,,,,,,,,,,10,22,2,2024-12-26_16h33.59.860,uWM_experiment,2022.2.3,60.00121202
,,,,,,,,,,,,,,,,,,,,1,0,1,0,,,,,0,0,0,0,,,,,,,,,,,,,,,,,,,,,,,,,,,,,,,,,,,,,,,,,,,,,,,,,,,,,,,,,,,,,,,,,,,,,,,,,,,,,,,,,,,,,,,,,,,,,,,,,,,,,,,,,,,,1450.018784,1450.018784,space,1.991198,None,None,,,,,,,,,,,,,,,,10,22,2,2024-12-26_16h33.59.860,uWM_experiment,2022.2.3,60.00121202
,,,,,,,,,,,,,,,,,,,,1,0,1,0,,,,,1,0,1,0,,,,,,,,,,,,,,,,,,,,,,,,,,,,,,,,,,,,,,,,,,,,,,,,,,,,,,,,,,,,,,,,,,,,,,,,,,,,,,,,,,,,,,,,,,,,,,,,,,,,,,,,,,,,,,,,,,,,,,,,,,,,,,,,,10,22,2,2024-12-26_16h33.59.860,uWM_experiment,2022.2.3,60.00121202
,,,,,,,,,,,,,,,,,,,,1,0,1,0,,,,,2,0,2,0,,,,,,,,,,,,,,,,,,,,,,,,,,,,,,,,,,,,,,,,,,,,,,,,,,,,,,,,,,,,,,,,,,,,,,,,,,,,,,,,,,,,,,,,,,,,,,,,,,,,,,,,,,,,,,,,,,,,,,,,,,,,,,,,,10,22,2,2024-12-26_16h33.59.860,uWM_experiment,2022.2.3,60.00121202
,,,,,,,,,,,,,,,,,,,,2,0,2,0,0,0,0,0,,,,,,,,,,,,,,,,,,,,,,,,,,,,,,,,,,,,,,,,,,,,,,,,,,,,,,,,,,,,,,,,,,,,,,0.045,,,,,,,,,,,,,,,,,,,,1452.035545,1452.735573,1453.035588,1453.735617,1454.035635,1454.735693,1454.735693,1455.052338,right,1,40,30,70,1,1459.769243,1459.769243,1459.769243,None,None,1,1,1.112764,,,,,,,None,,,,,,,,,,,,,,,10,22,2,2024-12-26_16h33.59.860,uWM_experiment,2022.2.3,60.00121202
,,,,,,,,,,,,,,,,,,,,2,0,2,0,1,0,1,0,,,,,,,,,,,,,,,,,,,,,,,,,,,,,,,,,,,,,,,,,,,,,,,,,,,,,,,,,,,,,,,,,,,,,,0,,,,,,,,,,,,,,,,,,,,,,,,,,,,left,0,130,30,160,0,1466.869532,1466.869532,1466.869532,None,None,1,1,0.8124793,,,,,,,,,,,,,,,,,,,,,,10,22,2,2024-12-26_16h33.59.860,uWM_experiment,2022.2.3,60.00121202
,,,,,,,,,,,,,,,,,,,,2,0,2,0,2,0,2,0,,,,,,,,,,,,,,,,,,,,,,,,,,,,,,,,,,,,,,,,,,,,,,,,,,,,,,,,,,,,,,,,,,,,,,0.055,,,,,,,,,,,,,,,,,,,,,,,,,,,,left,1,10,-30,-20,1,1473.286519,1473.286519,1473.286519,None,None,1,1,0.4673896,,,,,,,,,,,,,,,,,,,,,,10,22,2,2024-12-26_16h33.59.860,uWM_experiment,2022.2.3,60.00121202
,,,,,,,,,,,,,,,,,,,,2,0,2,0,3,0,3,0,,,,,,,,,,,,,,,,,,,,,,,,,,,,,,,,,,,,,,,,,,,,,,,,,,,,,,,,,,,,,,,,,,,,,,0.065,,,,,,,,,,,,,,,,,,,,,,,,,,,,left,1,130,-30,100,1,1479.386768,1479.386768,1479.386768,None,None,1,1,0.3112581,,,,,,,,,,,,,,,,,,,,,,10,22,2,2024-12-26_16h33.59.860,uWM_experiment,2022.2.3,60.00121202
,,,,,,,,,,,,,,,,,,,,2,0,2,0,4,0,4,0,,,,,,,,,,,,,,,,,,,,,,,,,,,,,,,,,,,,,,,,,,,,,,,,,,,,,,,,,,,,,,,,,,,,,,0.075,,,,,,,,,,,,,,,,,,,,,,,,,,,,left,0,70,30,100,1,1485.303715,1485.303715,1485.303715,None,None,1,1,0.3861612,,,,,,,,,,,,,,,,,,,,,,10,22,2,2024-12-26_16h33.59.860,uWM_experiment,2022.2.3,60.00121202
,,,,,,,,,,,,,,,,,,,,2,0,2,0,5,0,5,0,,,,,,,,,,,,,,,,,,,,,,,,,,,,,,,,,,,,,,,,,,,,,,,,,,,,,,,,,,,,,,,,,,,,,,0.085,,,,,,,,,,,,,,,,,,,,,,,,,,,,left,1,10,-30,-20,1,1491.570665,1491.570665,1491.570665,None,None,2,0,0.4552129,,,,,,,,,,,,,,,,,,,,,,10,22,2,2024-12-26_16h33.59.860,uWM_experiment,2022.2.3,60.00121202
,,,,,,,,,,,,,,,,,,,,2,0,2,0,6,0,6,0,,,,,,,,,,,,,,,,,,,,,,,,,,,,,,,,,,,,,,,,,,,,,,,,,,,,,,,,,,,,,,,,,,,,,,0.075,,,,,,,,,,,,,,,,,,,,,,,,,,,,left,0,130,30,160,1,1498.404335,1498.404335,1498.404335,None,None,2,0,0.5897438,,,,,,,,,,,,,,,,,,,,,,10,22,2,2024-12-26_16h33.59.860,uWM_experiment,2022.2.3,60.00121202
,,,,,,,,,,,,,,,,,,,,2,0,2,0,7,0,7,0,,,,,,,,,,,,,,,,,,,,,,,,,,,,,,,,,,,,,,,,,,,,,,,,,,,,,,,,,,,,,,,,,,,,,,0.065,,,,,,,,,,,,,,,,,,,,,,,,,,,,right,0,100,-30,70,1,1504.804599,1504.804599,1504.804599,None,None,2,0,0.4213402,,,,,,,,,,,,,,,,,,,,,,10,22,2,2024-12-26_16h33.59.860,uWM_experiment,2022.2.3,60.00121202
,,,,,,,,,,,,,,,,,,,,2,0,2,0,8,0,8,0,,,,,,,,,,,,,,,,,,,,,,,,,,,,,,,,,,,,,,,,,,,,,,,,,,,,,,,,,,,,,,,,,,,,,,0.055,,,,,,,,,,,,,,,,,,,,,,,,,,,,right,0,100,-30,70,1,1510.904867,1510.904867,1510.904867,None,None,2,0,0.737095,,,,,,,,,,,,,,,,,,,,,,10,22,2,2024-12-26_16h33.59.860,uWM_experiment,2022.2.3,60.00121202
,,,,,,,,,,,,,,,,,,,,2,0,2,0,9,0,9,0,,,,,,,,,,,,,,,,,,,,,,,,,,,,,,,,,,,,,,,,,,,,,,,,,,,,,,,,,,,,,,,,,,,,,,0.045,,,,,,,,,,,,,,,,,,,,,,,,,,,,right,1,40,30,70,1,1517.238497,1517.238497,1517.238497,None,None,2,0,0.4515017,,,,,,,,,,,,,,,,,,,,,,10,22,2,2024-12-26_16h33.59.860,uWM_experiment,2022.2.3,60.00121202
,,,,,,,,,,,,,,,,,,,,2,0,2,0,10,0,10,0,,,,,,,,,,,,,,,,,,,,,,,,,,,,,,,,,,,,,,,,,,,,,,,,,,,,,,,,,,,,,,,,,,,,,,0.035,,,,,,,,,,,,,,,,,,,,,,,,,,,,right,1,40,30,70,1,1523.255457,1523.255457,1523.255457,None,None,2,0,0.538586,,,,,,,,,,,,,,,,,,,,,,10,22,2,2024-12-26_16h33.59.860,uWM_experiment,2022.2.3,60.00121202
,,,,,,,,,,,,,,,,,,,,2,0,2,0,11,0,11,0,,,,,,,,,,,,,,,,,,,,,,,,,,,,,,,,,,,,,,,,,,,,,,,,,,,,,,,,,,,,,,,,,,,,,,0,,,,,,,,,,,,,,,,,,,,,,,,,,,,right,1,10,30,40,0,1530.339101,1530.339101,1530.339101,None,None,2,0,0.3749415,,,,,,,,,,,,,,,,,,,,,,10,22,2,2024-12-26_16h33.59.860,uWM_experiment,2022.2.3,60.00121202
,,,,,,,,,,,,,,,,,,,,2,0,2,0,12,0,12,0,,,,,,,,,,,,,,,,,,,,,,,,,,,,,,,,,,,,,,,,,,,,,,,,,,,,,,,,,,,,,,,,,,,,,,0.025,,,,,,,,,,,,,,,,,,,,,,,,,,,,right,1,40,30,70,1,1536.422683,1536.422683,1536.422683,None,None,1,1,0.4032598,,,,,,,,,,,,,,,,,,,,,,10,22,2,2024-12-26_16h33.59.860,uWM_experiment,2022.2.3,60.00121202
,,,,,,,,,,,,,,,,,,,,2,0,2,0,13,0,13,0,,,,,,,,,,,,,,,,,,,,,,,,,,,,,,,,,,,,,,,,,,,,,,,,,,,,,,,,,,,,,,,,,,,,,,0,,,,,,,,,,,,,,,,,,,,,,,,,,,,right,1,40,30,70,0,1542.372982,1542.372982,1542.372982,None,None,1,1,0.4529935,,,,,,,,,,,,,,,,,,,,,,10,22,2,2024-12-26_16h33.59.860,uWM_experiment,2022.2.3,60.00121202
,,,,,,,,,,,,,,,,,,,,2,0,2,0,14,0,14,0,,,,,,,,,,,,,,,,,,,,,,,,,,,,,,,,,,,,,,,,,,,,,,,,,,,,,,,,,,,,,,,,,,,,,,0.035,,,,,,,,,,,,,,,,,,,,,,,,,,,,right,0,40,-30,10,1,1548.773251,1548.773251,1548.773251,None,None,1,1,0.3007297,,,,,,,,,,,,,,,,,,,,,,10,22,2,2024-12-26_16h33.59.860,uWM_experiment,2022.2.3,60.00121202
,,,,,,,,,,,,,,,,,,,,2,0,2,0,15,0,15,0,,,,,,,,,,,,,,,,,,,,,,,,,,,,,,,,,,,,,,,,,,,,,,,,,,,,,,,,,,,,,,,,,,,,,,0,,,,,,,,,,,,,,,,,,,,,,,,,,,,right,1,10,30,40,0,1554.723556,1554.723556,1554.723556,None,None,1,1,0.3744752,,,,,,,,,,,,,,,,,,,,,,10,22,2,2024-12-26_16h33.59.860,uWM_experiment,2022.2.3,60.00121202
,,,,,,,,,,,,,,,,,,,,2,0,2,0,16,0,16,0,,,,,,,,,,,,,,,,,,,,,,,,,,,,,,,,,,,,,,,,,,,,,,,,,,,,,,,,,,,,,,,,,,,,,,0.045,,,,,,,,,,,,,,,,,,,,,,,,,,,,right,0,70,-30,40,1,1560.823794,1560.823794,1560.823794,None,None,1,1,0.3381701,,,,,,,,,,,,,,,,,,,,,,10,22,2,2024-12-26_16h33.59.860,uWM_experiment,2022.2.3,60.00121202
,,,,,,,,,,,,,,,,,,,,2,0,2,0,17,0,17,0,,,,,,,,,,,,,,,,,,,,,,,,,,,,,,,,,,,,,,,,,,,,,,,,,,,,,,,,,,,,,,,,,,,,,,0.055,,,,,,,,,,,,,,,,,,,,,,,,,,,,left,1,40,-30,10,1,1569.15749,1569.15749,1569.15749,None,None,3,0,1.4684872,,,,,,,,,,,,,,,,,,,,,,10,22,2,2024-12-26_16h33.59.860,uWM_experiment,2022.2.3,60.00121202
,,,,,,,,,,,,,,,,,,,,2,0,2,0,18,0,18,0,,,,,,,,,,,,,,,,,,,,,,,,,,,,,,,,,,,,,,,,,,,,,,,,,,,,,,,,,,,,,,,,,,,,,,0.045,,,,,,,,,,,,,,,,,,,,,,,,,,,,left,1,10,-30,-20,1,1577.607913,1577.607913,1577.607913,None,None,2,0,0.7861304,,,,,,,,,,,,,,,,,,,,,,10,22,2,2024-12-26_16h33.59.860,uWM_experiment,2022.2.3,60.00121202
,,,,,,,,,,,,,,,,,,,,2,0,2,0,19,0,19,0,,,,,,,,,,,,,,,,,,,,,,,,,,,,,,,,,,,,,,,,,,,,,,,,,,,,,,,,,,,,,,,,,,,,,,0.035,,,,,,,,,,,,,,,,,,,,,,,,,,,,left,0,130,30,160,1,1585.291567,1585.291567,1585.291567,None,None,2,0,1.9745316,,,,,,,,,,,,,,,,,,,,,,10,22,2,2024-12-26_16h33.59.860,uWM_experiment,2022.2.3,60.00121202
,,,,,,,,,,,,,,,,,,,,2,0,2,0,20,0,20,0,,,,,,,,,,,,,,,,,,,,,,,,,,,,,,,,,,,,,,,,,,,,,,,,,,,,,,,,,,,,,,,,,,,,,,0.025,,,,,,,,,,,,,,,,,,,,,,,,,,,,left,1,160,-30,130,1,1593.791976,1593.791976,1593.791976,None,None,1,1,0.4180856,,,,,,,,,,,,,,,,,,,,,,10,22,2,2024-12-26_16h33.59.860,uWM_experiment,2022.2.3,60.00121202
,,,,,,,,,,,,,,,,,,,,2,0,2,0,21,0,21,0,,,,,,,,,,,,,,,,,,,,,,,,,,,,,,,,,,,,,,,,,,,,,,,,,,,,,,,,,,,,,,,,,,,,,,0.035,,,,,,,,,,,,,,,,,,,,,,,,,,,,left,1,10,-30,-20,1,1599.70889,1599.70889,1599.70889,None,None,1,1,0.7172674,,,,,,,,,,,,,,,,,,,,,,10,22,2,2024-12-26_16h33.59.860,uWM_experiment,2022.2.3,60.00121202
,,,,,,,,,,,,,,,,,,,,2,0,2,0,22,0,22,0,,,,,,,,,,,,,,,,,,,,,,,,,,,,,,,,,,,,,,,,,,,,,,,,,,,,,,,,,,,,,,,,,,,,,,0.045,,,,,,,,,,,,,,,,,,,,,,,,,,,,right,0,40,-30,10,1,1606.475883,1606.475883,1606.475883,None,None,1,1,0.4221243,,,,,,,,,,,,,,,,,,,,,,10,22,2,2024-12-26_16h33.59.860,uWM_experiment,2022.2.3,60.00121202
,,,,,,,,,,,,,,,,,,,,2,0,2,0,23,0,23,0,,,,,,,,,,,,,,,,,,,,,,,,,,,,,,,,,,,,,,,,,,,,,,,,,,,,,,,,,,,,,,,,,,,,,,0,,,,,,,,,,,,,,,,,,,,,,,,,,,,right,1,10,30,40,0,1612.659576,1612.659576,1612.659576,None,None,1,1,0.3504601,,,,,,,,,,,,,,,,,,,,,,10,22,2,2024-12-26_16h33.59.860,uWM_experiment,2022.2.3,60.00121202
,,,,,,,,,,,,,,,,,,,,2,0,2,0,,,,,0,0,0,0,,,,,,,,,,,,,,,,,,,,,,,,,,,,,,,,,,,,,,,,,,,,,,,,,,,,,,,,,,,,,,,,,,,,,,,,,,,,,,,,,,,,,,,,,,,,,,,,,,,,,,,,,,,,1613.042834,1613.042834,space,27.9193407,space,None,,1640.994088,1640.994088,4.8081552,,,,,,,,,,,,10,22,2,2024-12-26_16h33.59.860,uWM_experiment,2022.2.3,60.00121202
,,,,,,,,,,,,,,,,,,,,2,0,2,0,,,,,1,0,1,0,,,,,,,,,,,,,,,,,,,,,,,,,,,,,,,,,,,,,,,,,,,,,,,,,,,,,,,,,,,,,,,,,,,,,,,,,,,,,,,,,,,,,,,,,,,,,,,,,,,,,,,,,,,,,,,,,,,,,,,,,,,,,,,,,10,22,2,2024-12-26_16h33.59.860,uWM_experiment,2022.2.3,60.00121202
,,,,,,,,,,,,,,,,,,,,2,0,2,0,,,,,2,0,2,0,,,,,,,,,,,,,,,,,,,,,,,,,,,,,,,,,,,,,,,,,,,,,,,,,,,,,,,,,,,,,,,,,,,,,,,,,,,,,,,,,,,,,,,,,,,,,,,,,,,,,,,,,,,,,,,,,,,,,,,,,,,,,,,,,10,22,2,2024-12-26_16h33.59.860,uWM_experiment,2022.2.3,60.00121202
,,,,,,,,,,,,,,,,,,,,3,0,3,0,0,0,0,0,,,,,,,,,,,,,,,,,,,,,,,,,,,,,,,,,,,,,,,,,,,,,,,,,,,,,,,,,,,,,,,,,,,,,,0.055,,,,,,,,,,,,,,,,,,,,1645.827636,1646.527667,1646.827679,1647.527713,1647.827726,1648.527754,1648.527754,1648.844459,right,1,160,30,190,1,1653.51131,1653.51131,1653.51131,None,None,1,1,0.4028403,,,,,,,None,,,,,,,,,,,,,,,10,22,2,2024-12-26_16h33.59.860,uWM_experiment,2022.2.3,60.00121202
,,,,,,,,,,,,,,,,,,,,3,0,3,0,1,0,1,0,,,,,,,,,,,,,,,,,,,,,,,,,,,,,,,,,,,,,,,,,,,,,,,,,,,,,,,,,,,,,,,,,,,,,,0.065,,,,,,,,,,,,,,,,,,,,,,,,,,,,left,0,100,30,130,1,1659.494915,1659.494915,1659.494915,None,None,1,1,0.3711729,,,,,,,,,,,,,,,,,,,,,,10,22,2,2024-12-26_16h33.59.860,uWM_experiment,2022.2.3,60.00121202
,,,,,,,,,,,,,,,,,,,,3,0,3,0,2,0,2,0,,,,,,,,,,,,,,,,,,,,,,,,,,,,,,,,,,,,,,,,,,,,,,,,,,,,,,,,,,,,,,,,,,,,,,0,,,,,,,,,,,,,,,,,,,,,,,,,,,,left,1,130,-30,100,0,1665.411866,1665.411866,1665.411866,None,None,1,1,0.3342698,,,,,,,,,,,,,,,,,,,,,,10,22,2,2024-12-26_16h33.59.860,uWM_experiment,2022.2.3,60.00121202
,,,,,,,,,,,,,,,,,,,,3,0,3,0,3,0,3,0,,,,,,,,,,,,,,,,,,,,,,,,,,,,,,,,,,,,,,,,,,,,,,,,,,,,,,,,,,,,,,,,,,,,,,0,,,,,,,,,,,,,,,,,,,,,,,,,,,,left,0,100,30,130,0,1671.362116,1671.362116,1671.362116,None,None,1,1,0.2800678,,,,,,,,,,,,,,,,,,,,,,10,22,2,2024-12-26_16h33.59.860,uWM_experiment,2022.2.3,60.00121202
,,,,,,,,,,,,,,,,,,,,3,0,3,0,4,0,4,0,,,,,,,,,,,,,,,,,,,,,,,,,,,,,,,,,,,,,,,,,,,,,,,,,,,,,,,,,,,,,,,,,,,,,,0,,,,,,,,,,,,,,,,,,,,,,,,,,,,left,0,130,30,160,0,1677.329078,1677.329078,1677.329078,None,None,1,1,0.2971825,,,,,,,,,,,,,,,,,,,,,,10,22,2,2024-12-26_16h33.59.860,uWM_experiment,2022.2.3,60.00121202
,,,,,,,,,,,,,,,,,,,,3,0,3,0,5,0,5,0,,,,,,,,,,,,,,,,,,,,,,,,,,,,,,,,,,,,,,,,,,,,,,,,,,,,,,,,,,,,,,,,,,,,,,0.075,,,,,,,,,,,,,,,,,,,,,,,,,,,,right,0,100,-30,70,1,1683.346004,1683.346004,1683.346004,None,None,1,1,0.3282752,,,,,,,,,,,,,,,,,,,,,,10,22,2,2024-12-26_16h33.59.860,uWM_experiment,2022.2.3,60.00121202
,,,,,,,,,,,,,,,,,,,,3,0,3,0,6,0,6,0,,,,,,,,,,,,,,,,,,,,,,,,,,,,,,,,,,,,,,,,,,,,,,,,,,,,,,,,,,,,,,,,,,,,,,0.085,,,,,,,,,,,,,,,,,,,,,,,,,,,,right,1,10,30,40,1,1689.179671,1689.179671,1689.179671,None,None,1,1,0.350464,,,,,,,,,,,,,,,,,,,,,,10,22,2,2024-12-26_16h33.59.860,uWM_experiment,2022.2.3,60.00121202
,,,,,,,,,,,,,,,,,,,,3,0,3,0,7,0,7,0,,,,,,,,,,,,,,,,,,,,,,,,,,,,,,,,,,,,,,,,,,,,,,,,,,,,,,,,,,,,,,,,,,,,,,0.095,,,,,,,,,,,,,,,,,,,,,,,,,,,,right,1,160,30,190,1,1695.213236,1695.213236,1695.213236,None,None,2,0,3.0528829,,,,,,,,,,,,,,,,,,,,,,10,22,2,2024-12-26_16h33.59.860,uWM_experiment,2022.2.3,60.00121202
,,,,,,,,,,,,,,,,,,,,3,0,3,0,8,0,8,0,,,,,,,,,,,,,,,,,,,,,,,,,,,,,,,,,,,,,,,,,,,,,,,,,,,,,,,,,,,,,,,,,,,,,,0.085,,,,,,,,,,,,,,,,,,,,,,,,,,,,right,1,130,30,160,1,1704.046948,1704.046948,1704.046948,None,None,3,0,0.9953728,,,,,,,,,,,,,,,,,,,,,,10,22,2,2024-12-26_16h33.59.860,uWM_experiment,2022.2.3,60.00121202
,,,,,,,,,,,,,,,,,,,,3,0,3,0,9,0,9,0,,,,,,,,,,,,,,,,,,,,,,,,,,,,,,,,,,,,,,,,,,,,,,,,,,,,,,,,,,,,,,,,,,,,,,0.075,,,,,,,,,,,,,,,,,,,,,,,,,,,,right,1,10,30,40,1,1710.613898,1710.613898,1710.613898,None,None,2,0,0.5564246,,,,,,,,,,,,,,,,,,,,,,10,22,2,2024-12-26_16h33.59.860,uWM_experiment,2022.2.3,60.00121202
,,,,,,,,,,,,,,,,,,,,3,0,3,0,10,0,10,0,,,,,,,,,,,,,,,,,,,,,,,,,,,,,,,,,,,,,,,,,,,,,,,,,,,,,,,,,,,,,,,,,,,,,,0.065,,,,,,,,,,,,,,,,,,,,,,,,,,,,left,1,10,-30,-20,1,1716.947534,1716.947534,1716.947534,None,None,1,1,1.3907401,,,,,,,,,,,,,,,,,,,,,,10,22,2,2024-12-26_16h33.59.860,uWM_experiment,2022.2.3,60.00121202
,,,,,,,,,,,,,,,,,,,,3,0,3,0,11,0,11,0,,,,,,,,,,,,,,,,,,,,,,,,,,,,,,,,,,,,,,,,,,,,,,,,,,,,,,,,,,,,,,,,,,,,,,0.075,,,,,,,,,,,,,,,,,,,,,,,,,,,,left,0,100,30,130,1,1723.897846,1723.897846,1723.897846,None,None,1,1,0.4243581,,,,,,,,,,,,,,,,,,,,,,10,22,2,2024-12-26_16h33.59.860,uWM_experiment,2022.2.3,60.00121202
,,,,,,,,,,,,,,,,,,,,3,0,3,0,12,0,12,0,,,,,,,,,,,,,,,,,,,,,,,,,,,,,,,,,,,,,,,,,,,,,,,,,,,,,,,,,,,,,,,,,,,,,,0.1,,,,,,,,,,,,,,,,,,,,,,,,,,,,left,1,100,-30,70,2,1730.781478,1730.781478,1730.781478,None,None,4,0,0.7168854,,,,,,,,,,,,,,,,,,,,,,10,22,2,2024-12-26_16h33.59.860,uWM_experiment,2022.2.3,60.00121202
,,,,,,,,,,,,,,,,,,,,3,0,3,0,13,0,13,0,,,,,,,,,,,,,,,,,,,,,,,,,,,,,,,,,,,,,,,,,,,,,,,,,,,,,,,,,,,,,,,,,,,,,,0.085,,,,,,,,,,,,,,,,,,,,,,,,,,,,right,1,40,30,70,1,1737.948466,1737.948466,1737.948466,None,None,1,1,0.4059179,,,,,,,,,,,,,,,,,,,,,,10,22,2,2024-12-26_16h33.59.860,uWM_experiment,2022.2.3,60.00121202
,,,,,,,,,,,,,,,,,,,,3,0,3,0,14,0,14,0,,,,,,,,,,,,,,,,,,,,,,,,,,,,,,,,,,,,,,,,,,,,,,,,,,,,,,,,,,,,,,,,,,,,,,0.095,,,,,,,,,,,,,,,,,,,,,,,,,,,,right,0,100,-30,70,1,1746.315499,1746.315499,1746.315499,None,None,1,1,2.7268143,,,,,,,,,,,,,,,,,,,,,,10,22,2,2024-12-26_16h33.59.860,uWM_experiment,2022.2.3,60.00121202
,,,,,,,,,,,,,,,,,,,,3,0,3,0,15,0,15,0,,,,,,,,,,,,,,,,,,,,,,,,,,,,,,,,,,,,,,,,,,,,,,,,,,,,,,,,,,,,,,,,,,,,,,0.105,,,,,,,,,,,,,,,,,,,,,,,,,,,,right,1,100,30,130,1,1756.182616,1756.182616,1756.182616,None,None,3,0,0.9796922,,,,,,,,,,,,,,,,,,,,,,10,22,2,2024-12-26_16h33.59.860,uWM_experiment,2022.2.3,60.00121202
,,,,,,,,,,,,,,,,,,,,3,0,3,0,16,0,16,0,,,,,,,,,,,,,,,,,,,,,,,,,,,,,,,,,,,,,,,,,,,,,,,,,,,,,,,,,,,,,,,,,,,,,,0.095,,,,,,,,,,,,,,,,,,,,,,,,,,,,left,1,10,-30,-20,1,1763.01626,1763.01626,1763.01626,None,None,1,1,0.4339267,,,,,,,,,,,,,,,,,,,,,,10,22,2,2024-12-26_16h33.59.860,uWM_experiment,2022.2.3,60.00121202
,,,,,,,,,,,,,,,,,,,,3,0,3,0,17,0,17,0,,,,,,,,,,,,,,,,,,,,,,,,,,,,,,,,,,,,,,,,,,,,,,,,,,,,,,,,,,,,,,,,,,,,,,0.105,,,,,,,,,,,,,,,,,,,,,,,,,,,,left,1,70,-30,40,1,1770.649932,1770.649932,1770.649932,None,None,3,0,0.7764316,,,,,,,,,,,,,,,,,,,,,,10,22,2,2024-12-26_16h33.59.860,uWM_experiment,2022.2.3,60.00121202
,,,,,,,,,,,,,,,,,,,,3,0,3,0,18,0,18,0,,,,,,,,,,,,,,,,,,,,,,,,,,,,,,,,,,,,,,,,,,,,,,,,,,,,,,,,,,,,,,,,,,,,,,0.095,,,,,,,,,,,,,,,,,,,,,,,,,,,,right,0,100,-30,70,1,1776.966916,1776.966916,1776.966916,None,None,2,0,0.4274453,,,,,,,,,,,,,,,,,,,,,,10,22,2,2024-12-26_16h33.59.860,uWM_experiment,2022.2.3,60.00121202
,,,,,,,,,,,,,,,,,,,,3,0,3,0,19,0,19,0,,,,,,,,,,,,,,,,,,,,,,,,,,,,,,,,,,,,,,,,,,,,,,,,,,,,,,,,,,,,,,,,,,,,,,0.085,,,,,,,,,,,,,,,,,,,,,,,,,,,,left,0,100,30,130,1,1784.800567,1784.800567,1784.800567,None,None,2,0,0.8257722,,,,,,,,,,,,,,,,,,,,,,10,22,2,2024-12-26_16h33.59.860,uWM_experiment,2022.2.3,60.00121202
,,,,,,,,,,,,,,,,,,,,3,0,3,0,20,0,20,0,,,,,,,,,,,,,,,,,,,,,,,,,,,,,,,,,,,,,,,,,,,,,,,,,,,,,,,,,,,,,,,,,,,,,,0.075,,,,,,,,,,,,,,,,,,,,,,,,,,,,right,1,160,30,190,1,1791.317555,1791.317555,1791.317555,None,None,1,1,2.7167765,,,,,,,,,,,,,,,,,,,,,,10,22,2,2024-12-26_16h33.59.860,uWM_experiment,2022.2.3,60.00121202
,,,,,,,,,,,,,,,,,,,,3,0,3,0,21,0,21,0,,,,,,,,,,,,,,,,,,,,,,,,,,,,,,,,,,,,,,,,,,,,,,,,,,,,,,,,,,,,,,,,,,,,,,0,,,,,,,,,,,,,,,,,,,,,,,,,,,,right,1,10,30,40,0,1799.684594,1799.684594,1799.684594,None,None,1,1,2.3417982,,,,,,,,,,,,,,,,,,,,,,10,22,2,2024-12-26_16h33.59.860,uWM_experiment,2022.2.3,60.00121202
,,,,,,,,,,,,,,,,,,,,3,0,3,0,22,0,22,0,,,,,,,,,,,,,,,,,,,,,,,,,,,,,,,,,,,,,,,,,,,,,,,,,,,,,,,,,,,,,,,,,,,,,,0.085,,,,,,,,,,,,,,,,,,,,,,,,,,,,left,1,130,-30,100,1,1807.551591,1807.551591,1807.551591,None,None,1,1,0.3228062,,,,,,,,,,,,,,,,,,,,,,10,22,2,2024-12-26_16h33.59.860,uWM_experiment,2022.2.3,60.00121202
,,,,,,,,,,,,,,,,,,,,3,0,3,0,23,0,23,0,,,,,,,,,,,,,,,,,,,,,,,,,,,,,,,,,,,,,,,,,,,,,,,,,,,,,,,,,,,,,,,,,,,,,,0,,,,,,,,,,,,,,,,,,,,,,,,,,,,right,1,160,30,190,0,1815.835309,1815.835309,1815.835309,None,None,1,1,0.5510539,,,,,,,,,,,,,,,,,,,,,,10,22,2,2024-12-26_16h33.59.860,uWM_experiment,2022.2.3,60.00121202
,,,,,,,,,,,,,,,,,,,,3,0,3,0,,,,,0,0,0,0,,,,,,,,,,,,,,,,,,,,,,,,,,,,,,,,,,,,,,,,,,,,,,,,,,,,,,,,,,,,,,,,,,,,,,,,,,,,,,,,,,,,,,,,,,,,,,,,,,,,,,,,,,,,1816.41868,1816.41868,space,1.7436708,None,None,,,,,,,,,,,,,,,,10,22,2,2024-12-26_16h33.59.860,uWM_experiment,2022.2.3,60.00121202
,,,,,,,,,,,,,,,,,,,,3,0,3,0,,,,,1,0,1,0,,,,,,,,,,,,,,,,,,,,,,,,,,,,,,,,,,,,,,,,,,,,,,,,,,,,,,,,,,,,,,,,,,,,,,,,,,,,,,,,,,,,,,,,,,,,,,,,,,,,,,,,,,,,,,,,,,,,,,,,,,,,,,,,,10,22,2,2024-12-26_16h33.59.860,uWM_experiment,2022.2.3,60.00121202
,,,,,,,,,,,,,,,,,,,,3,0,3,0,,,,,2,0,2,0,,,,,,,,,,,,,,,,,,,,,,,,,,,,,,,,,,,,,,,,,,,,,,,,,,,,,,,,,,,,,,,,,,,,,,,,,,,,,,,,,,,,,,,,,,,,,,,,,,,,,,,,,,,,,,,,,,,,,,,,,,,,,,,,,10,22,2,2024-12-26_16h33.59.860,uWM_experiment,2022.2.3,60.00121202
,,,,,,,,,,,,,,,,,,,,4,0,4,0,0,0,0,0,,,,,,,,,,,,,,,,,,,,,,,,,,,,,,,,,,,,,,,,,,,,,,,,,,,,,,,,,,,,,,,,,,,,,,0.095,,,,,,,,,,,,,,,,,,,,1818.185427,1818.885456,1819.185468,1819.885488,1820.185514,1820.885539,1820.885539,1821.202235,left,0,100,30,130,1,1825.935761,1825.935761,1825.935761,None,None,1,1,0.338609,,,,,,,None,,,,,,,,,,,,,,,10,22,2,2024-12-26_16h33.59.860,uWM_experiment,2022.2.3,60.00121202
,,,,,,,,,,,,,,,,,,,,4,0,4,0,1,0,1,0,,,,,,,,,,,,,,,,,,,,,,,,,,,,,,,,,,,,,,,,,,,,,,,,,,,,,,,,,,,,,,,,,,,,,,0.105,,,,,,,,,,,,,,,,,,,,,,,,,,,,left,0,70,30,100,1,1831.802693,1831.802693,1831.802693,None,None,1,1,0.3837178,,,,,,,,,,,,,,,,,,,,,,10,22,2,2024-12-26_16h33.59.860,uWM_experiment,2022.2.3,60.00121202
,,,,,,,,,,,,,,,,,,,,4,0,4,0,2,0,2,0,,,,,,,,,,,,,,,,,,,,,,,,,,,,,,,,,,,,,,,,,,,,,,,,,,,,,,,,,,,,,,,,,,,,,,0,,,,,,,,,,,,,,,,,,,,,,,,,,,,left,0,70,30,100,0,1837.986331,1837.986331,1837.986331,None,None,1,1,0.2800445,,,,,,,,,,,,,,,,,,,,,,10,22,2,2024-12-26_16h33.59.860,uWM_experiment,2022.2.3,60.00121202
,,,,,,,,,,,,,,,,,,,,4,0,4,0,3,0,3,0,,,,,,,,,,,,,,,,,,,,,,,,,,,,,,,,,,,,,,,,,,,,,,,,,,,,,,,,,,,,,,,,,,,,,,0.1,,,,,,,,,,,,,,,,,,,,,,,,,,,,left,1,100,-30,70,2,1844.703307,1844.703307,1844.703307,None,None,1,1,0.4271345,,,,,,,,,,,,,,,,,,,,,,10,22,2,2024-12-26_16h33.59.860,uWM_experiment,2022.2.3,60.00121202
,,,,,,,,,,,,,,,,,,,,4,0,4,0,4,0,4,0,,,,,,,,,,,,,,,,,,,,,,,,,,,,,,,,,,,,,,,,,,,,,,,,,,,,,,,,,,,,,,,,,,,,,,0,,,,,,,,,,,,,,,,,,,,,,,,,,,,right,1,160,30,190,0,1852.003609,1852.003609,1852.003609,None,None,2,0,0.7187079,,,,,,,,,,,,,,,,,,,,,,10,22,2,2024-12-26_16h33.59.860,uWM_experiment,2022.2.3,60.00121202
,,,,,,,,,,,,,,,,,,,,4,0,4,0,5,0,5,0,,,,,,,,,,,,,,,,,,,,,,,,,,,,,,,,,,,,,,,,,,,,,,,,,,,,,,,,,,,,,,,,,,,,,,0,,,,,,,,,,,,,,,,,,,,,,,,,,,,right,0,40,-30,10,0,1859.387282,1859.387282,1859.387282,None,None,1,1,0.4150465,,,,,,,,,,,,,,,,,,,,,,10,22,2,2024-12-26_16h33.59.860,uWM_experiment,2022.2.3,60.00121202
,,,,,,,,,,,,,,,,,,,,4,0,4,0,6,0,6,0,,,,,,,,,,,,,,,,,,,,,,,,,,,,,,,,,,,,,,,,,,,,,,,,,,,,,,,,,,,,,,,,,,,,,,0,,,,,,,,,,,,,,,,,,,,,,,,,,,,right,1,10,30,40,0,1865.370895,1865.370895,1865.370895,None,None,1,1,0.2795656,,,,,,,,,,,,,,,,,,,,,,10,22,2,2024-12-26_16h33.59.860,uWM_experiment,2022.2.3,60.00121202
,,,,,,,,,,,,,,,,,,,,4,0,4,0,7,0,7,0,,,,,,,,,,,,,,,,,,,,,,,,,,,,,,,,,,,,,,,,,,,,,,,,,,,,,,,,,,,,,,,,,,,,,,0.115,,,,,,,,,,,,,,,,,,,,,,,,,,,,right,1,130,30,160,1,1874.137959,1874.137959,1874.137959,None,None,3,0,1.1125631,,,,,,,,,,,,,,,,,,,,,,10,22,2,2024-12-26_16h33.59.860,uWM_experiment,2022.2.3,60.00121202
,,,,,,,,,,,,,,,,,,,,4,0,4,0,8,0,8,0,,,,,,,,,,,,,,,,,,,,,,,,,,,,,,,,,,,,,,,,,,,,,,,,,,,,,,,,,,,,,,,,,,,,,,0,,,,,,,,,,,,,,,,,,,,,,,,,,,,left,1,130,-30,100,0,1880.83828,1880.83828,1880.83828,None,None,1,1,0.3481686,,,,,,,,,,,,,,,,,,,,,,10,22,2,2024-12-26_16h33.59.860,uWM_experiment,2022.2.3,60.00121202
,,,,,,,,,,,,,,,,,,,,4,0,4,0,9,0,9,0,,,,,,,,,,,,,,,,,,,,,,,,,,,,,,,,,,,,,,,,,,,,,,,,,,,,,,,,,,,,,,,,,,,,,,0,,,,,,,,,,,,,,,,,,,,,,,,,,,,left,0,70,30,100,0,1886.855193,1886.855193,1886.855193,None,None,1,1,0.315245,,,,,,,,,,,,,,,,,,,,,,10,22,2,2024-12-26_16h33.59.860,uWM_experiment,2022.2.3,60.00121202
,,,,,,,,,,,,,,,,,,,,4,0,4,0,10,0,10,0,,,,,,,,,,,,,,,,,,,,,,,,,,,,,,,,,,,,,,,,,,,,,,,,,,,,,,,,,,,,,,,,,,,,,,0,,,,,,,,,,,,,,,,,,,,,,,,,,,,left,1,10,-30,-20,0,1892.888819,1892.888819,1892.888819,None,None,1,1,0.2577094,,,,,,,,,,,,,,,,,,,,,,10,22,2,2024-12-26_16h33.59.860,uWM_experiment,2022.2.3,60.00121202
,,,,,,,,,,,,,,,,,,,,4,0,4,0,11,0,11,0,,,,,,,,,,,,,,,,,,,,,,,,,,,,,,,,,,,,,,,,,,,,,,,,,,,,,,,,,,,,,,,,,,,,,,0.1,,,,,,,,,,,,,,,,,,,,,,,,,,,,left,1,100,-30,70,2,1899.472412,1899.472412,1899.472412,None,None,4,0,0.5219869,,,,,,,,,,,,,,,,,,,,,,10,22,2,2024-12-26_16h33.59.860,uWM_experiment,2022.2.3,60.00121202
,,,,,,,,,,,,,,,,,,,,4,0,4,0,12,0,12,0,,,,,,,,,,,,,,,,,,,,,,,,,,,,,,,,,,,,,,,,,,,,,,,,,,,,,,,,,,,,,,,,,,,,,,0.105,,,,,,,,,,,,,,,,,,,,,,,,,,,,right,0,100,-30,70,1,1906.906107,1906.906107,1906.906107,None,None,2,0,1.0565275,,,,,,,,,,,,,,,,,,,,,,10,22,2,2024-12-26_16h33.59.860,uWM_experiment,2022.2.3,60.00121202
,,,,,,,,,,,,,,,,,,,,4,0,4,0,13,0,13,0,,,,,,,,,,,,,,,,,,,,,,,,,,,,,,,,,,,,,,,,,,,,,,,,,,,,,,,,,,,,,,,,,,,,,,0,,,,,,,,,,,,,,,,,,,,,,,,,,,,right,0,40,-30,10,0,1914.539782,1914.539782,1914.539782,None,None,2,0,0.5746708,,,,,,,,,,,,,,,,,,,,,,10,22,2,2024-12-26_16h33.59.860,uWM_experiment,2022.2.3,60.00121202
,,,,,,,,,,,,,,,,,,,,4,0,4,0,14,0,14,0,,,,,,,,,,,,,,,,,,,,,,,,,,,,,,,,,,,,,,,,,,,,,,,,,,,,,,,,,,,,,,,,,,,,,,0.095,,,,,,,,,,,,,,,,,,,,,,,,,,,,left,0,100,30,130,1,1921.440138,1921.440138,1921.440138,None,None,1,1,0.4263421,,,,,,,,,,,,,,,,,,,,,,10,22,2,2024-12-26_16h33.59.860,uWM_experiment,2022.2.3,60.00121202
,,,,,,,,,,,,,,,,,,,,4,0,4,0,15,0,15,0,,,,,,,,,,,,,,,,,,,,,,,,,,,,,,,,,,,,,,,,,,,,,,,,,,,,,,,,,,,,,,,,,,,,,,0.105,,,,,,,,,,,,,,,,,,,,,,,,,,,,left,1,10,-30,-20,1,1927.90707,1927.90707,1927.90707,None,None,1,1,0.4395311,,,,,,,,,,,,,,,,,,,,,,10,22,2,2024-12-26_16h33.59.860,uWM_experiment,2022.2.3,60.00121202
,,,,,,,,,,,,,,,,,,,,4,0,4,0,16,0,16,0,,,,,,,,,,,,,,,,,,,,,,,,,,,,,,,,,,,,,,,,,,,,,,,,,,,,,,,,,,,,,,,,,,,,,,0.115,,,,,,,,,,,,,,,,,,,,,,,,,,,,left,0,130,30,160,1,1934.574038,1934.574038,1934.574038,None,None,2,0,0.3645188,,,,,,,,,,,,,,,,,,,,,,10,22,2,2024-12-26_16h33.59.860,uWM_experiment,2022.2.3,60.00121202
,,,,,,,,,,,,,,,,,,,,4,0,4,0,17,0,17,0,,,,,,,,,,,,,,,,,,,,,,,,,,,,,,,,,,,,,,,,,,,,,,,,,,,,,,,,,,,,,,,,,,,,,,0.1,,,,,,,,,,,,,,,,,,,,,,,,,,,,right,1,10,30,40,2,1940.757621,1940.757621,1940.757621,None,None,3,0,5.2609244,,,,,,,,,,,,,,,,,,,,,,10,22,2,2024-12-26_16h33.59.860,uWM_experiment,2022.2.3,60.00121202
,,,,,,,,,,,,,,,,,,,,4,0,4,0,18,0,18,0,,,,,,,,,,,,,,,,,,,,,,,,,,,,,,,,,,,,,,,,,,,,,,,,,,,,,,,,,,,,,,,,,,,,,,0.105,,,,,,,,,,,,,,,,,,,,,,,,,,,,left,1,10,-30,-20,1,1952.641502,1952.641502,1952.641502,None,None,3,0,0.5290661,,,,,,,,,,,,,,,,,,,,,,10,22,2,2024-12-26_16h33.59.860,uWM_experiment,2022.2.3,60.00121202
,,,,,,,,,,,,,,,,,,,,4,0,4,0,19,0,19,0,,,,,,,,,,,,,,,,,,,,,,,,,,,,,,,,,,,,,,,,,,,,,,,,,,,,,,,,,,,,,,,,,,,,,,0.095,,,,,,,,,,,,,,,,,,,,,,,,,,,,right,1,40,30,70,1,1958.841779,1958.841779,1958.841779,None,None,3,0,0.6087961,,,,,,,,,,,,,,,,,,,,,,10,22,2,2024-12-26_16h33.59.860,uWM_experiment,2022.2.3,60.00121202
,,,,,,,,,,,,,,,,,,,,4,0,4,0,20,0,20,0,,,,,,,,,,,,,,,,,,,,,,,,,,,,,,,,,,,,,,,,,,,,,,,,,,,,,,,,,,,,,,,,,,,,,,0.085,,,,,,,,,,,,,,,,,,,,,,,,,,,,right,1,10,30,40,1,1965.142065,1965.142065,1965.142065,None,None,2,0,0.476474,,,,,,,,,,,,,,,,,,,,,,10,22,2,2024-12-26_16h33.59.860,uWM_experiment,2022.2.3,60.00121202
,,,,,,,,,,,,,,,,,,,,4,0,4,0,21,0,21,0,,,,,,,,,,,,,,,,,,,,,,,,,,,,,,,,,,,,,,,,,,,,,,,,,,,,,,,,,,,,,,,,,,,,,,0.075,,,,,,,,,,,,,,,,,,,,,,,,,,,,right,1,70,30,100,1,1971.309035,1971.309035,1971.309035,None,None,3,0,0.7014339,,,,,,,,,,,,,,,,,,,,,,10,22,2,2024-12-26_16h33.59.860,uWM_experiment,2022.2.3,60.00121202
,,,,,,,,,,,,,,,,,,,,4,0,4,0,22,0,22,0,,,,,,,,,,,,,,,,,,,,,,,,,,,,,,,,,,,,,,,,,,,,,,,,,,,,,,,,,,,,,,,,,,,,,,0,,,,,,,,,,,,,,,,,,,,,,,,,,,,left,0,100,30,130,0,1977.509298,1977.509298,1977.509298,None,None,1,1,0.3493004,,,,,,,,,,,,,,,,,,,,,,10,22,2,2024-12-26_16h33.59.860,uWM_experiment,2022.2.3,60.00121202
,,,,,,,,,,,,,,,,,,,,4,0,4,0,23,0,23,0,,,,,,,,,,,,,,,,,,,,,,,,,,,,,,,,,,,,,,,,,,,,,,,,,,,,,,,,,,,,,,,,,,,,,,0.065,,,,,,,,,,,,,,,,,,,,,,,,,,,,right,0,40,-30,10,1,1983.97624,1983.97624,1983.97624,None,None,1,1,0.2823134,,,,,,,,,,,,,,,,,,,,,,10,22,2,2024-12-26_16h33.59.860,uWM_experiment,2022.2.3,60.00121202
,,,,,,,,,,,,,,,,,,,,4,0,4,0,,,,,0,0,0,0,,,,,,,,,,,,,,,,,,,,,,,,,,,,,,,,,,,,,,,,,,,,,,,,,,,,,,,,,,,,,,,,,,,,,,,,,,,,,,,,,,,,,,,,,,,,,,,,,,,,,,,,,,,,1984.27625,1984.27625,space,1.3104681,None,None,,,,,,,,,,,,,,,,10,22,2,2024-12-26_16h33.59.860,uWM_experiment,2022.2.3,60.00121202
,,,,,,,,,,,,,,,,,,,,4,0,4,0,,,,,1,0,1,0,,,,,,,,,,,,,,,,,,,,,,,,,,,,,,,,,,,,,,,,,,,,,,,,,,,,,,,,,,,,,,,,,,,,,,,,,,,,,,,,,,,,,,,,,,,,,,,,,,,,,,,,,,,,,,,,,,,,,,,,,,,,,,,,,10,22,2,2024-12-26_16h33.59.860,uWM_experiment,2022.2.3,60.00121202
,,,,,,,,,,,,,,,,,,,,4,0,4,0,,,,,2,0,2,0,,,,,,,,,,,,,,,,,,,,,,,,,,,,,,,,,,,,,,,,,,,,,,,,,,,,,,,,,,,,,,,,,,,,,,,,,,,,,,,,,,,,,,,,,,,,,,,,,,,,,,,,,,,,,,,,,,,,,,,,,,,,,,,,,10,22,2,2024-12-26_16h33.59.860,uWM_experiment,2022.2.3,60.00121202
,,,,,,,,,,,,,,,,,,,,5,0,5,0,0,0,0,0,,,,,,,,,,,,,,,,,,,,,,,,,,,,,,,,,,,,,,,,,,,,,,,,,,,,,,,,,,,,,,,,,,,,,,0,,,,,,,,,,,,,,,,,,,,1985.609664,1986.309674,1986.609698,1987.309739,1987.609744,1988.309793,1988.309793,1988.626474,left,0,130,30,160,0,1993.17669,1993.17669,1993.17669,None,None,1,1,0.353803,,,,,,,None,,,,,,,,,,,,,,,10,22,2,2024-12-26_16h33.59.860,uWM_experiment,2022.2.3,60.00121202
,,,,,,,,,,,,,,,,,,,,5,0,5,0,1,0,1,0,,,,,,,,,,,,,,,,,,,,,,,,,,,,,,,,,,,,,,,,,,,,,,,,,,,,,,,,,,,,,,,,,,,,,,0,,,,,,,,,,,,,,,,,,,,,,,,,,,,right,0,100,-30,70,0,1999.060287,1999.060287,1999.060287,None,None,1,1,0.3022121,,,,,,,,,,,,,,,,,,,,,,10,22,2,2024-12-26_16h33.59.860,uWM_experiment,2022.2.3,60.00121202
,,,,,,,,,,,,,,,,,,,,5,0,5,0,2,0,2,0,,,,,,,,,,,,,,,,,,,,,,,,,,,,,,,,,,,,,,,,,,,,,,,,,,,,,,,,,,,,,,,,,,,,,,0.075,,,,,,,,,,,,,,,,,,,,,,,,,,,,right,1,10,30,40,1,2004.993891,2004.993891,2004.993891,None,None,1,1,0.3767328,,,,,,,,,,,,,,,,,,,,,,10,22,2,2024-12-26_16h33.59.860,uWM_experiment,2022.2.3,60.00121202
,,,,,,,,,,,,,,,,,,,,5,0,5,0,3,0,3,0,,,,,,,,,,,,,,,,,,,,,,,,,,,,,,,,,,,,,,,,,,,,,,,,,,,,,,,,,,,,,,,,,,,,,,0.085,,,,,,,,,,,,,,,,,,,,,,,,,,,,left,0,70,30,100,1,2011.177489,2011.177489,2011.177489,None,None,1,1,0.352989,,,,,,,,,,,,,,,,,,,,,,10,22,2,2024-12-26_16h33.59.860,uWM_experiment,2022.2.3,60.00121202
,,,,,,,,,,,,,,,,,,,,5,0,5,0,4,0,4,0,,,,,,,,,,,,,,,,,,,,,,,,,,,,,,,,,,,,,,,,,,,,,,,,,,,,,,,,,,,,,,,,,,,,,,0.095,,,,,,,,,,,,,,,,,,,,,,,,,,,,right,1,40,30,70,1,2017.244425,2017.244425,2017.244425,None,None,1,1,0.2782086,,,,,,,,,,,,,,,,,,,,,,10,22,2,2024-12-26_16h33.59.860,uWM_experiment,2022.2.3,60.00121202
,,,,,,,,,,,,,,,,,,,,5,0,5,0,5,0,5,0,,,,,,,,,,,,,,,,,,,,,,,,,,,,,,,,,,,,,,,,,,,,,,,,,,,,,,,,,,,,,,,,,,,,,,0.105,,,,,,,,,,,,,,,,,,,,,,,,,,,,right,1,10,30,40,1,2023.478031,2023.478031,2023.478031,None,None,2,0,2.3165049,,,,,,,,,,,,,,,,,,,,,,10,22,2,2024-12-26_16h33.59.860,uWM_experiment,2022.2.3,60.00121202
,,,,,,,,,,,,,,,,,,,,5,0,5,0,6,0,6,0,,,,,,,,,,,,,,,,,,,,,,,,,,,,,,,,,,,,,,,,,,,,,,,,,,,,,,,,,,,,,,,,,,,,,,0.095,,,,,,,,,,,,,,,,,,,,,,,,,,,,left,1,40,-30,10,1,2033.86184,2033.86184,2033.86184,None,None,3,0,1.9887115,,,,,,,,,,,,,,,,,,,,,,10,22,2,2024-12-26_16h33.59.860,uWM_experiment,2022.2.3,60.00121202
,,,,,,,,,,,,,,,,,,,,5,0,5,0,7,0,7,0,,,,,,,,,,,,,,,,,,,,,,,,,,,,,,,,,,,,,,,,,,,,,,,,,,,,,,,,,,,,,,,,,,,,,,0.085,,,,,,,,,,,,,,,,,,,,,,,,,,,,right,1,10,30,40,1,2041.428847,2041.428847,2041.428847,None,None,2,0,1.4297585,,,,,,,,,,,,,,,,,,,,,,10,22,2,2024-12-26_16h33.59.860,uWM_experiment,2022.2.3,60.00121202
,,,,,,,,,,,,,,,,,,,,5,0,5,0,8,0,8,0,,,,,,,,,,,,,,,,,,,,,,,,,,,,,,,,,,,,,,,,,,,,,,,,,,,,,,,,,,,,,,,,,,,,,,0.075,,,,,,,,,,,,,,,,,,,,,,,,,,,,right,1,40,30,70,1,2050.12924,2050.12924,2050.12924,None,None,4,0,4.9532926,,,,,,,,,,,,,,,,,,,,,,10,22,2,2024-12-26_16h33.59.860,uWM_experiment,2022.2.3,60.00121202
,,,,,,,,,,,,,,,,,,,,5,0,5,0,9,0,9,0,,,,,,,,,,,,,,,,,,,,,,,,,,,,,,,,,,,,,,,,,,,,,,,,,,,,,,,,,,,,,,,,,,,,,,0.065,,,,,,,,,,,,,,,,,,,,,,,,,,,,left,0,100,30,130,1,2062.329807,2062.329807,2062.329807,None,None,4,0,1.1367607,,,,,,,,,,,,,,,,,,,,,,10,22,2,2024-12-26_16h33.59.860,uWM_experiment,2022.2.3,60.00121202
,,,,,,,,,,,,,,,,,,,,5,0,5,0,10,0,10,0,,,,,,,,,,,,,,,,,,,,,,,,,,,,,,,,,,,,,,,,,,,,,,,,,,,,,,,,,,,,,,,,,,,,,,0.055,,,,,,,,,,,,,,,,,,,,,,,,,,,,left,0,70,30,100,1,2069.896843,2069.896843,2069.896843,None,None,2,0,0.5857659,,,,,,,,,,,,,,,,,,,,,,10,22,2,2024-12-26_16h33.59.860,uWM_experiment,2022.2.3,60.00121202
,,,,,,,,,,,,,,,,,,,,5,0,5,0,11,0,11,0,,,,,,,,,,,,,,,,,,,,,,,,,,,,,,,,,,,,,,,,,,,,,,,,,,,,,,,,,,,,,,,,,,,,,,0,,,,,,,,,,,,,,,,,,,,,,,,,,,,right,0,100,-30,70,0,2076.013764,2076.013764,2076.013764,None,None,1,1,0.2769121,,,,,,,,,,,,,,,,,,,,,,10,22,2,2024-12-26_16h33.59.860,uWM_experiment,2022.2.3,60.00121202
,,,,,,,,,,,,,,,,,,,,5,0,5,0,12,0,12,0,,,,,,,,,,,,,,,,,,,,,,,,,,,,,,,,,,,,,,,,,,,,,,,,,,,,,,,,,,,,,,,,,,,,,,0.045,,,,,,,,,,,,,,,,,,,,,,,,,,,,right,0,70,-30,40,1,2081.730687,2081.730687,2081.730687,None,None,1,1,0.295899,,,,,,,,,,,,,,,,,,,,,,10,22,2,2024-12-26_16h33.59.860,uWM_experiment,2022.2.3,60.00121202
,,,,,,,,,,,,,,,,,,,,5,0,5,0,13,0,13,0,,,,,,,,,,,,,,,,,,,,,,,,,,,,,,,,,,,,,,,,,,,,,,,,,,,,,,,,,,,,,,,,,,,,,,0.055,,,,,,,,,,,,,,,,,,,,,,,,,,,,left,0,70,30,100,1,2088.197617,2088.197617,2088.197617,None,None,1,1,3.5810567,,,,,,,,,,,,,,,,,,,,,,10,22,2,2024-12-26_16h33.59.860,uWM_experiment,2022.2.3,60.00121202
,,,,,,,,,,,,,,,,,,,,5,0,5,0,14,0,14,0,,,,,,,,,,,,,,,,,,,,,,,,,,,,,,,,,,,,,,,,,,,,,,,,,,,,,,,,,,,,,,,,,,,,,,0.065,,,,,,,,,,,,,,,,,,,,,,,,,,,,left,0,130,30,160,1,2097.414731,2097.414731,2097.414731,None,None,1,1,0.2999855,,,,,,,,,,,,,,,,,,,,,,10,22,2,2024-12-26_16h33.59.860,uWM_experiment,2022.2.3,60.00121202
,,,,,,,,,,,,,,,,,,,,5,0,5,0,15,0,15,0,,,,,,,,,,,,,,,,,,,,,,,,,,,,,,,,,,,,,,,,,,,,,,,,,,,,,,,,,,,,,,,,,,,,,,0.1,,,,,,,,,,,,,,,,,,,,,,,,,,,,right,1,10,30,40,2,2105.865091,2105.865091,2105.865091,None,None,4,0,0.4015258,,,,,,,,,,,,,,,,,,,,,,10,22,2,2024-12-26_16h33.59.860,uWM_experiment,2022.2.3,60.00121202
,,,,,,,,,,,,,,,,,,,,5,0,5,0,16,0,16,0,,,,,,,,,,,,,,,,,,,,,,,,,,,,,,,,,,,,,,,,,,,,,,,,,,,,,,,,,,,,,,,,,,,,,,0.075,,,,,,,,,,,,,,,,,,,,,,,,,,,,right,1,40,30,70,1,2112.332029,2112.332029,2112.332029,None,None,1,1,0.3426938,,,,,,,,,,,,,,,,,,,,,,10,22,2,2024-12-26_16h33.59.860,uWM_experiment,2022.2.3,60.00121202
,,,,,,,,,,,,,,,,,,,,5,0,5,0,17,0,17,0,,,,,,,,,,,,,,,,,,,,,,,,,,,,,,,,,,,,,,,,,,,,,,,,,,,,,,,,,,,,,,,,,,,,,,0.085,,,,,,,,,,,,,,,,,,,,,,,,,,,,right,0,100,-30,70,1,2119.83239,2119.83239,2119.83239,None,None,1,1,0.4424542,,,,,,,,,,,,,,,,,,,,,,10,22,2,2024-12-26_16h33.59.860,uWM_experiment,2022.2.3,60.00121202
,,,,,,,,,,,,,,,,,,,,5,0,5,0,18,0,18,0,,,,,,,,,,,,,,,,,,,,,,,,,,,,,,,,,,,,,,,,,,,,,,,,,,,,,,,,,,,,,,,,,,,,,,0.095,,,,,,,,,,,,,,,,,,,,,,,,,,,,left,1,130,-30,100,1,2125.966008,2125.966008,2125.966008,None,None,1,1,0.7727676,,,,,,,,,,,,,,,,,,,,,,10,22,2,2024-12-26_16h33.59.860,uWM_experiment,2022.2.3,60.00121202
,,,,,,,,,,,,,,,,,,,,5,0,5,0,19,0,19,0,,,,,,,,,,,,,,,,,,,,,,,,,,,,,,,,,,,,,,,,,,,,,,,,,,,,,,,,,,,,,,,,,,,,,,0.105,,,,,,,,,,,,,,,,,,,,,,,,,,,,left,0,130,30,160,1,2132.433042,2132.433042,2132.433042,None,None,1,1,0.2736546,,,,,,,,,,,,,,,,,,,,,,10,22,2,2024-12-26_16h33.59.860,uWM_experiment,2022.2.3,60.00121202
,,,,,,,,,,,,,,,,,,,,5,0,5,0,20,0,20,0,,,,,,,,,,,,,,,,,,,,,,,,,,,,,,,,,,,,,,,,,,,,,,,,,,,,,,,,,,,,,,,,,,,,,,0.115,,,,,,,,,,,,,,,,,,,,,,,,,,,,left,1,10,-30,-20,1,2138.533232,2138.533232,2138.533232,None,None,1,1,0.2854505,,,,,,,,,,,,,,,,,,,,,,10,22,2,2024-12-26_16h33.59.860,uWM_experiment,2022.2.3,60.00121202
,,,,,,,,,,,,,,,,,,,,5,0,5,0,21,0,21,0,,,,,,,,,,,,,,,,,,,,,,,,,,,,,,,,,,,,,,,,,,,,,,,,,,,,,,,,,,,,,,,,,,,,,,0.125,,,,,,,,,,,,,,,,,,,,,,,,,,,,right,0,40,-30,10,1,2144.100154,2144.100154,2144.100154,None,None,1,1,0.9905845,,,,,,,,,,,,,,,,,,,,,,10,22,2,2024-12-26_16h33.59.860,uWM_experiment,2022.2.3,60.00121202
,,,,,,,,,,,,,,,,,,,,5,0,5,0,22,0,22,0,,,,,,,,,,,,,,,,,,,,,,,,,,,,,,,,,,,,,,,,,,,,,,,,,,,,,,,,,,,,,,,,,,,,,,0.1,,,,,,,,,,,,,,,,,,,,,,,,,,,,right,1,130,30,160,2,2152.15051,2152.15051,2152.15051,None,None,4,0,0.3562614,,,,,,,,,,,,,,,,,,,,,,10,22,2,2024-12-26_16h33.59.860,uWM_experiment,2022.2.3,60.00121202
,,,,,,,,,,,,,,,,,,,,5,0,5,0,23,0,23,0,,,,,,,,,,,,,,,,,,,,,,,,,,,,,,,,,,,,,,,,,,,,,,,,,,,,,,,,,,,,,,,,,,,,,,0.135,,,,,,,,,,,,,,,,,,,,,,,,,,,,left,0,100,30,130,1,2158.900823,2158.900823,2158.900823,None,None,2,0,1.4698403,,,,,,,,,,,,,,,,,,,,,,10,22,2,2024-12-26_16h33.59.860,uWM_experiment,2022.2.3,60.00121202
,,,,,,,,,,,,,,,,,,,,5,0,5,0,,,,,0,0,0,0,,,,,,,,,,,,,,,,,,,,,,,,,,,,,,,,,,,,,,,,,,,,,,,,,,,,,,,,,,,,,,,,,,,,,,,,,,,,,,,,,,,,,,,,,,,,,,,,,,,,,,,,,,,,2160.400888,2160.400888,space,22.9539123,space,None,,2183.385254,2183.385254,9.4255126,,,,,,,,,,,,10,22,2,2024-12-26_16h33.59.860,uWM_experiment,2022.2.3,60.00121202
,,,,,,,,,,,,,,,,,,,,5,0,5,0,,,,,1,0,1,0,,,,,,,,,,,,,,,,,,,,,,,,,,,,,,,,,,,,,,,,,,,,,,,,,,,,,,,,,,,,,,,,,,,,,,,,,,,,,,,,,,,,,,,,,,,,,,,,,,,,,,,,,,,,,,,,,,,,,,,,,,,,,,,,,10,22,2,2024-12-26_16h33.59.860,uWM_experiment,2022.2.3,60.00121202
,,,,,,,,,,,,,,,,,,,,5,0,5,0,,,,,2,0,2,0,,,,,,,,,,,,,,,,,,,,,,,,,,,,,,,,,,,,,,,,,,,,,,,,,,,,,,,,,,,,,,,,,,,,,,,,,,,,,,,,,,,,,,,,,,,,,,,,,,,,,,,,,,,,,,,,,,,,,,,,,,,,,,,,,10,22,2,2024-12-26_16h33.59.860,uWM_experiment,2022.2.3,60.00121202
,,,,,,,,,,,,,,,,,,,,6,0,6,0,0,0,0,0,,,,,,,,,,,,,,,,,,,,,,,,,,,,,,,,,,,,,,,,,,,,,,,,,,,,,,,,,,,,,,,,,,,,,,0.1,,,,,,,,,,,,,,,,,,,,2192.835678,2193.53573,2193.835727,2194.535758,2194.835775,2195.535802,2195.535802,2195.852493,right,1,100,30,130,2,2202.252764,2202.252764,2202.252764,None,None,4,0,0.6460137,,,,,,,None,,,,,,,,,,,,,,,10,22,2,2024-12-26_16h33.59.860,uWM_experiment,2022.2.3,60.00121202
,,,,,,,,,,,,,,,,,,,,6,0,6,0,1,0,1,0,,,,,,,,,,,,,,,,,,,,,,,,,,,,,,,,,,,,,,,,,,,,,,,,,,,,,,,,,,,,,,,,,,,,,,0.125,,,,,,,,,,,,,,,,,,,,,,,,,,,,left,0,100,30,130,1,2210.819819,2210.819819,2210.819819,None,None,2,0,1.1188938,,,,,,,,,,,,,,,,,,,,,,10,22,2,2024-12-26_16h33.59.860,uWM_experiment,2022.2.3,60.00121202
,,,,,,,,,,,,,,,,,,,,6,0,6,0,2,0,2,0,,,,,,,,,,,,,,,,,,,,,,,,,,,,,,,,,,,,,,,,,,,,,,,,,,,,,,,,,,,,,,,,,,,,,,0.115,,,,,,,,,,,,,,,,,,,,,,,,,,,,left,1,130,-30,100,1,2219.003533,2219.003533,2219.003533,None,None,3,0,0.8233247,,,,,,,,,,,,,,,,,,,,,,10,22,2,2024-12-26_16h33.59.860,uWM_experiment,2022.2.3,60.00121202
,,,,,,,,,,,,,,,,,,,,6,0,6,0,3,0,3,0,,,,,,,,,,,,,,,,,,,,,,,,,,,,,,,,,,,,,,,,,,,,,,,,,,,,,,,,,,,,,,,,,,,,,,0.105,,,,,,,,,,,,,,,,,,,,,,,,,,,,right,1,130,30,160,1,2225.687181,2225.687181,2225.687181,None,None,3,0,0.4675734,,,,,,,,,,,,,,,,,,,,,,10,22,2,2024-12-26_16h33.59.860,uWM_experiment,2022.2.3,60.00121202
,,,,,,,,,,,,,,,,,,,,6,0,6,0,4,0,4,0,,,,,,,,,,,,,,,,,,,,,,,,,,,,,,,,,,,,,,,,,,,,,,,,,,,,,,,,,,,,,,,,,,,,,,0.095,,,,,,,,,,,,,,,,,,,,,,,,,,,,left,0,70,30,100,1,2234.754229,2234.754229,2234.754229,None,None,1,1,0.8086118,,,,,,,,,,,,,,,,,,,,,,10,22,2,2024-12-26_16h33.59.860,uWM_experiment,2022.2.3,60.00121202
,,,,,,,,,,,,,,,,,,,,6,0,6,0,5,0,5,0,,,,,,,,,,,,,,,,,,,,,,,,,,,,,,,,,,,,,,,,,,,,,,,,,,,,,,,,,,,,,,,,,,,,,,0,,,,,,,,,,,,,,,,,,,,,,,,,,,,right,0,40,-30,10,0,2242.087903,2242.087903,2242.087903,None,None,1,1,0.682934,,,,,,,,,,,,,,,,,,,,,,10,22,2,2024-12-26_16h33.59.860,uWM_experiment,2022.2.3,60.00121202
,,,,,,,,,,,,,,,,,,,,6,0,6,0,6,0,6,0,,,,,,,,,,,,,,,,,,,,,,,,,,,,,,,,,,,,,,,,,,,,,,,,,,,,,,,,,,,,,,,,,,,,,,0.105,,,,,,,,,,,,,,,,,,,,,,,,,,,,left,1,130,-30,100,1,2248.371576,2248.371576,2248.371576,None,None,1,1,0.3672156,,,,,,,,,,,,,,,,,,,,,,10,22,2,2024-12-26_16h33.59.860,uWM_experiment,2022.2.3,60.00121202
,,,,,,,,,,,,,,,,,,,,6,0,6,0,7,0,7,0,,,,,,,,,,,,,,,,,,,,,,,,,,,,,,,,,,,,,,,,,,,,,,,,,,,,,,,,,,,,,,,,,,,,,,0.115,,,,,,,,,,,,,,,,,,,,,,,,,,,,left,1,70,-30,40,1,2255.255172,2255.255172,2255.255172,None,None,3,0,0.4035837,,,,,,,,,,,,,,,,,,,,,,10,22,2,2024-12-26_16h33.59.860,uWM_experiment,2022.2.3,60.00121202
,,,,,,,,,,,,,,,,,,,,6,0,6,0,8,0,8,0,,,,,,,,,,,,,,,,,,,,,,,,,,,,,,,,,,,,,,,,,,,,,,,,,,,,,,,,,,,,,,,,,,,,,,0,,,,,,,,,,,,,,,,,,,,,,,,,,,,left,1,160,-30,130,0,2261.105461,2261.105461,2261.105461,None,None,1,1,0.3533368,,,,,,,,,,,,,,,,,,,,,,10,22,2,2024-12-26_16h33.59.860,uWM_experiment,2022.2.3,60.00121202
,,,,,,,,,,,,,,,,,,,,6,0,6,0,9,0,9,0,,,,,,,,,,,,,,,,,,,,,,,,,,,,,,,,,,,,,,,,,,,,,,,,,,,,,,,,,,,,,,,,,,,,,,0.105,,,,,,,,,,,,,,,,,,,,,,,,,,,,left,1,160,-30,130,1,2267.372406,2267.372406,2267.372406,None,None,2,0,0.6863734,,,,,,,,,,,,,,,,,,,,,,10,22,2,2024-12-26_16h33.59.860,uWM_experiment,2022.2.3,60.00121202
,,,,,,,,,,,,,,,,,,,,6,0,6,0,10,0,10,0,,,,,,,,,,,,,,,,,,,,,,,,,,,,,,,,,,,,,,,,,,,,,,,,,,,,,,,,,,,,,,,,,,,,,,0.095,,,,,,,,,,,,,,,,,,,,,,,,,,,,left,0,70,30,100,1,2275.056092,2275.056092,2275.056092,None,None,1,1,0.3387121,,,,,,,,,,,,,,,,,,,,,,10,22,2,2024-12-26_16h33.59.860,uWM_experiment,2022.2.3,60.00121202
,,,,,,,,,,,,,,,,,,,,6,0,6,0,11,0,11,0,,,,,,,,,,,,,,,,,,,,,,,,,,,,,,,,,,,,,,,,,,,,,,,,,,,,,,,,,,,,,,,,,,,,,,0.105,,,,,,,,,,,,,,,,,,,,,,,,,,,,left,1,40,-30,10,1,2282.073049,2282.073049,2282.073049,None,None,3,0,1.817764,,,,,,,,,,,,,,,,,,,,,,10,22,2,2024-12-26_16h33.59.860,uWM_experiment,2022.2.3,60.00121202
,,,,,,,,,,,,,,,,,,,,6,0,6,0,12,0,12,0,,,,,,,,,,,,,,,,,,,,,,,,,,,,,,,,,,,,,,,,,,,,,,,,,,,,,,,,,,,,,,,,,,,,,,0.095,,,,,,,,,,,,,,,,,,,,,,,,,,,,right,1,160,30,190,1,2289.973438,2289.973438,2289.973438,None,None,2,0,0.5254943,,,,,,,,,,,,,,,,,,,,,,10,22,2,2024-12-26_16h33.59.860,uWM_experiment,2022.2.3,60.00121202
,,,,,,,,,,,,,,,,,,,,6,0,6,0,13,0,13,0,,,,,,,,,,,,,,,,,,,,,,,,,,,,,,,,,,,,,,,,,,,,,,,,,,,,,,,,,,,,,,,,,,,,,,0.085,,,,,,,,,,,,,,,,,,,,,,,,,,,,right,1,40,30,70,1,2296.407057,2296.407057,2296.407057,None,None,2,0,0.4197829,,,,,,,,,,,,,,,,,,,,,,10,22,2,2024-12-26_16h33.59.860,uWM_experiment,2022.2.3,60.00121202
,,,,,,,,,,,,,,,,,,,,6,0,6,0,14,0,14,0,,,,,,,,,,,,,,,,,,,,,,,,,,,,,,,,,,,,,,,,,,,,,,,,,,,,,,,,,,,,,,,,,,,,,,0.075,,,,,,,,,,,,,,,,,,,,,,,,,,,,left,1,130,-30,100,1,2302.673985,2302.673985,2302.673985,None,None,1,1,0.3528658,,,,,,,,,,,,,,,,,,,,,,10,22,2,2024-12-26_16h33.59.860,uWM_experiment,2022.2.3,60.00121202
,,,,,,,,,,,,,,,,,,,,6,0,6,0,15,0,15,0,,,,,,,,,,,,,,,,,,,,,,,,,,,,,,,,,,,,,,,,,,,,,,,,,,,,,,,,,,,,,,,,,,,,,,0.085,,,,,,,,,,,,,,,,,,,,,,,,,,,,left,1,160,-30,130,1,2308.757574,2308.757574,2308.757574,None,None,1,1,0.3172609,,,,,,,,,,,,,,,,,,,,,,10,22,2,2024-12-26_16h33.59.860,uWM_experiment,2022.2.3,60.00121202
,,,,,,,,,,,,,,,,,,,,6,0,6,0,16,0,16,0,,,,,,,,,,,,,,,,,,,,,,,,,,,,,,,,,,,,,,,,,,,,,,,,,,,,,,,,,,,,,,,,,,,,,,0.095,,,,,,,,,,,,,,,,,,,,,,,,,,,,right,1,160,30,190,1,2314.924548,2314.924548,2314.924548,None,None,1,1,0.3504057,,,,,,,,,,,,,,,,,,,,,,10,22,2,2024-12-26_16h33.59.860,uWM_experiment,2022.2.3,60.00121202
,,,,,,,,,,,,,,,,,,,,6,0,6,0,17,0,17,0,,,,,,,,,,,,,,,,,,,,,,,,,,,,,,,,,,,,,,,,,,,,,,,,,,,,,,,,,,,,,,,,,,,,,,0,,,,,,,,,,,,,,,,,,,,,,,,,,,,right,1,10,30,40,0,2320.924805,2320.924805,2320.924805,None,None,1,1,0.3181072,,,,,,,,,,,,,,,,,,,,,,10,22,2,2024-12-26_16h33.59.860,uWM_experiment,2022.2.3,60.00121202
,,,,,,,,,,,,,,,,,,,,6,0,6,0,18,0,18,0,,,,,,,,,,,,,,,,,,,,,,,,,,,,,,,,,,,,,,,,,,,,,,,,,,,,,,,,,,,,,,,,,,,,,,0.105,,,,,,,,,,,,,,,,,,,,,,,,,,,,left,1,130,-30,100,1,2327.241752,2327.241752,2327.241752,None,None,1,1,0.2492215,,,,,,,,,,,,,,,,,,,,,,10,22,2,2024-12-26_16h33.59.860,uWM_experiment,2022.2.3,60.00121202
,,,,,,,,,,,,,,,,,,,,6,0,6,0,19,0,19,0,,,,,,,,,,,,,,,,,,,,,,,,,,,,,,,,,,,,,,,,,,,,,,,,,,,,,,,,,,,,,,,,,,,,,,0.115,,,,,,,,,,,,,,,,,,,,,,,,,,,,left,1,130,-30,100,1,2334.558735,2334.558735,2334.558735,None,None,1,1,0.2282691,,,,,,,,,,,,,,,,,,,,,,10,22,2,2024-12-26_16h33.59.860,uWM_experiment,2022.2.3,60.00121202
,,,,,,,,,,,,,,,,,,,,6,0,6,0,20,0,20,0,,,,,,,,,,,,,,,,,,,,,,,,,,,,,,,,,,,,,,,,,,,,,,,,,,,,,,,,,,,,,,,,,,,,,,0,,,,,,,,,,,,,,,,,,,,,,,,,,,,right,1,10,30,40,0,2341.175717,2341.175717,2341.175717,None,None,1,1,0.3871495,,,,,,,,,,,,,,,,,,,,,,10,22,2,2024-12-26_16h33.59.860,uWM_experiment,2022.2.3,60.00121202
,,,,,,,,,,,,,,,,,,,,6,0,6,0,21,0,21,0,,,,,,,,,,,,,,,,,,,,,,,,,,,,,,,,,,,,,,,,,,,,,,,,,,,,,,,,,,,,,,,,,,,,,,0.125,,,,,,,,,,,,,,,,,,,,,,,,,,,,left,0,130,30,160,1,2347.976048,2347.976048,2347.976048,None,None,1,1,0.2507923,,,,,,,,,,,,,,,,,,,,,,10,22,2,2024-12-26_16h33.59.860,uWM_experiment,2022.2.3,60.00121202
,,,,,,,,,,,,,,,,,,,,6,0,6,0,22,0,22,0,,,,,,,,,,,,,,,,,,,,,,,,,,,,,,,,,,,,,,,,,,,,,,,,,,,,,,,,,,,,,,,,,,,,,,0.135,,,,,,,,,,,,,,,,,,,,,,,,,,,,right,0,70,-30,40,1,2354.826336,2354.826336,2354.826336,None,None,1,1,0.3045427,,,,,,,,,,,,,,,,,,,,,,10,22,2,2024-12-26_16h33.59.860,uWM_experiment,2022.2.3,60.00121202
,,,,,,,,,,,,,,,,,,,,6,0,6,0,23,0,23,0,,,,,,,,,,,,,,,,,,,,,,,,,,,,,,,,,,,,,,,,,,,,,,,,,,,,,,,,,,,,,,,,,,,,,,0.145,,,,,,,,,,,,,,,,,,,,,,,,,,,,right,1,40,30,70,1,2361.510016,2361.510016,2361.510016,None,None,2,0,0.7249854,,,,,,,,,,,,,,,,,,,,,,10,22,2,2024-12-26_16h33.59.860,uWM_experiment,2022.2.3,60.00121202
,,,,,,,,,,,,,,,,,,,,6,0,6,0,,,,,0,0,0,0,,,,,,,,,,,,,,,,,,,,,,,,,,,,,,,,,,,,,,,,,,,,,,,,,,,,,,,,,,,,,,,,,,,,,,,,,,,,,,,,,,,,,,,,,,,,,,,,,,,,,,,,,,,,2362.259988,2362.259988,space,1.3989743,None,space,,,,,2363.676728,2363.676728,15.1823008,,,,,,,,,10,22,2,2024-12-26_16h33.59.860,uWM_experiment,2022.2.3,60.00121202
,,,,,,,,,,,,,,,,,,,,6,0,6,0,,,,,1,0,1,0,,,,,,,,,,,,,,,,,,,,,,,,,,,,,,,,,,,,,,,,,,,,,,,,,,,,,,,,,,,,,,,,,,,,,,,,,,,,,,,,,,,,,,,,,,,,,,,,,,,,,,,,,,,,,,,,,,,,,,,,,,,,,,,,,10,22,2,2024-12-26_16h33.59.860,uWM_experiment,2022.2.3,60.00121202
,,,,,,,,,,,,,,,,,,,,6,0,6,0,,,,,2,0,2,0,,,,,,,,,,,,,,,,,,,,,,,,,,,,,,,,,,,,,,,,,,,,,,,,,,,,,,,,,,,,,,,,,,,,,,,,,,,,,,,,,,,,,,,,,,,,,,,,,,,,,,,,,,,,,,,,,,,,,,,,,,,,,,,,,10,22,2,2024-12-26_16h33.59.860,uWM_experiment,2022.2.3,60.00121202
,,,,,,,,,,,,,,,,,,,,7,0,7,0,0,0,0,0,,,,,,,,,,,,,,,,,,,,,,,,,,,,,,,,,,,,,,,,,,,,,,,,,,,,,,,,,,,,,,,,,,,,,,0,,,,,,,,,,,,,,,,,,,,2390.544614,2391.244632,2391.527991,2392.228023,2392.528037,2393.228057,2393.228057,2393.544767,left,1,130,-30,100,0,2398.26162,2398.26162,2398.26162,None,None,1,1,0.3173377,,,,,,,space,,,,,,,2386.944448,2386.944448,3.5706457,,,,,,10,22,2,2024-12-26_16h33.59.860,uWM_experiment,2022.2.3,60.00121202
,,,,,,,,,,,,,,,,,,,,7,0,7,0,1,0,1,0,,,,,,,,,,,,,,,,,,,,,,,,,,,,,,,,,,,,,,,,,,,,,,,,,,,,,,,,,,,,,,,,,,,,,,0,,,,,,,,,,,,,,,,,,,,,,,,,,,,left,1,130,-30,100,0,2404.245241,2404.245241,2404.245241,None,None,1,1,0.2536481,,,,,,,,,,,,,,,,,,,,,,10,22,2,2024-12-26_16h33.59.860,uWM_experiment,2022.2.3,60.00121202
,,,,,,,,,,,,,,,,,,,,7,0,7,0,2,0,2,0,,,,,,,,,,,,,,,,,,,,,,,,,,,,,,,,,,,,,,,,,,,,,,,,,,,,,,,,,,,,,,,,,,,,,,0.135,,,,,,,,,,,,,,,,,,,,,,,,,,,,left,0,130,30,160,1,2410.26217,2410.26217,2410.26217,None,None,2,0,0.3808949,,,,,,,,,,,,,,,,,,,,,,10,22,2,2024-12-26_16h33.59.860,uWM_experiment,2022.2.3,60.00121202
,,,,,,,,,,,,,,,,,,,,7,0,7,0,3,0,3,0,,,,,,,,,,,,,,,,,,,,,,,,,,,,,,,,,,,,,,,,,,,,,,,,,,,,,,,,,,,,,,,,,,,,,,0,,,,,,,,,,,,,,,,,,,,,,,,,,,,right,1,160,30,190,0,2416.312453,2416.312453,2416.312453,None,None,1,1,0.3705261,,,,,,,,,,,,,,,,,,,,,,10,22,2,2024-12-26_16h33.59.860,uWM_experiment,2022.2.3,60.00121202
,,,,,,,,,,,,,,,,,,,,7,0,7,0,4,0,4,0,,,,,,,,,,,,,,,,,,,,,,,,,,,,,,,,,,,,,,,,,,,,,,,,,,,,,,,,,,,,,,,,,,,,,,0.125,,,,,,,,,,,,,,,,,,,,,,,,,,,,right,0,40,-30,10,1,2422.962777,2422.962777,2422.962777,None,None,2,0,0.7362135,,,,,,,,,,,,,,,,,,,,,,10,22,2,2024-12-26_16h33.59.860,uWM_experiment,2022.2.3,60.00121202
,,,,,,,,,,,,,,,,,,,,7,0,7,0,5,0,5,0,,,,,,,,,,,,,,,,,,,,,,,,,,,,,,,,,,,,,,,,,,,,,,,,,,,,,,,,,,,,,,,,,,,,,,0.115,,,,,,,,,,,,,,,,,,,,,,,,,,,,left,0,100,30,130,1,2429.546402,2429.546402,2429.546402,None,None,2,0,0.4647214,,,,,,,,,,,,,,,,,,,,,,10,22,2,2024-12-26_16h33.59.860,uWM_experiment,2022.2.3,60.00121202
,,,,,,,,,,,,,,,,,,,,7,0,7,0,6,0,6,0,,,,,,,,,,,,,,,,,,,,,,,,,,,,,,,,,,,,,,,,,,,,,,,,,,,,,,,,,,,,,,,,,,,,,,0.105,,,,,,,,,,,,,,,,,,,,,,,,,,,,right,1,40,30,70,1,2435.879982,2435.879982,2435.879982,None,None,2,0,0.5470376,,,,,,,,,,,,,,,,,,,,,,10,22,2,2024-12-26_16h33.59.860,uWM_experiment,2022.2.3,60.00121202
,,,,,,,,,,,,,,,,,,,,7,0,7,0,7,0,7,0,,,,,,,,,,,,,,,,,,,,,,,,,,,,,,,,,,,,,,,,,,,,,,,,,,,,,,,,,,,,,,,,,,,,,,0,,,,,,,,,,,,,,,,,,,,,,,,,,,,left,0,130,30,160,0,2441.980267,2441.980267,2441.980267,None,None,2,0,0.3507455,,,,,,,,,,,,,,,,,,,,,,10,22,2,2024-12-26_16h33.59.860,uWM_experiment,2022.2.3,60.00121202
,,,,,,,,,,,,,,,,,,,,7,0,7,0,8,0,8,0,,,,,,,,,,,,,,,,,,,,,,,,,,,,,,,,,,,,,,,,,,,,,,,,,,,,,,,,,,,,,,,,,,,,,,0.095,,,,,,,,,,,,,,,,,,,,,,,,,,,,left,1,10,-30,-20,1,2448.03055,2448.03055,2448.03055,None,None,1,1,0.3085247,,,,,,,,,,,,,,,,,,,,,,10,22,2,2024-12-26_16h33.59.860,uWM_experiment,2022.2.3,60.00121202
,,,,,,,,,,,,,,,,,,,,7,0,7,0,9,0,9,0,,,,,,,,,,,,,,,,,,,,,,,,,,,,,,,,,,,,,,,,,,,,,,,,,,,,,,,,,,,,,,,,,,,,,,0.105,,,,,,,,,,,,,,,,,,,,,,,,,,,,left,1,160,-30,130,1,2454.014143,2454.014143,2454.014143,None,None,2,0,0.7729637,,,,,,,,,,,,,,,,,,,,,,10,22,2,2024-12-26_16h33.59.860,uWM_experiment,2022.2.3,60.00121202
,,,,,,,,,,,,,,,,,,,,7,0,7,0,10,0,10,0,,,,,,,,,,,,,,,,,,,,,,,,,,,,,,,,,,,,,,,,,,,,,,,,,,,,,,,,,,,,,,,,,,,,,,0.095,,,,,,,,,,,,,,,,,,,,,,,,,,,,right,1,40,30,70,1,2460.364422,2460.364422,2460.364422,None,None,2,0,1.7987344,,,,,,,,,,,,,,,,,,,,,,10,22,2,2024-12-26_16h33.59.860,uWM_experiment,2022.2.3,60.00121202
,,,,,,,,,,,,,,,,,,,,7,0,7,0,11,0,11,0,,,,,,,,,,,,,,,,,,,,,,,,,,,,,,,,,,,,,,,,,,,,,,,,,,,,,,,,,,,,,,,,,,,,,,0.085,,,,,,,,,,,,,,,,,,,,,,,,,,,,left,1,130,-30,100,1,2468.598142,2468.598142,2468.598142,None,None,4,0,0.4688575,,,,,,,,,,,,,,,,,,,,,,10,22,2,2024-12-26_16h33.59.860,uWM_experiment,2022.2.3,60.00121202
,,,,,,,,,,,,,,,,,,,,7,0,7,0,12,0,12,0,,,,,,,,,,,,,,,,,,,,,,,,,,,,,,,,,,,,,,,,,,,,,,,,,,,,,,,,,,,,,,,,,,,,,,0.075,,,,,,,,,,,,,,,,,,,,,,,,,,,,left,0,130,30,160,1,2476.431842,2476.431842,2476.431842,None,None,2,0,0.4912016,,,,,,,,,,,,,,,,,,,,,,10,22,2,2024-12-26_16h33.59.860,uWM_experiment,2022.2.3,60.00121202
,,,,,,,,,,,,,,,,,,,,7,0,7,0,13,0,13,0,,,,,,,,,,,,,,,,,,,,,,,,,,,,,,,,,,,,,,,,,,,,,,,,,,,,,,,,,,,,,,,,,,,,,,0,,,,,,,,,,,,,,,,,,,,,,,,,,,,right,0,40,-30,10,0,2482.68213,2482.68213,2482.68213,None,None,2,0,0.3208759,,,,,,,,,,,,,,,,,,,,,,10,22,2,2024-12-26_16h33.59.860,uWM_experiment,2022.2.3,60.00121202
,,,,,,,,,,,,,,,,,,,,7,0,7,0,14,0,14,0,,,,,,,,,,,,,,,,,,,,,,,,,,,,,,,,,,,,,,,,,,,,,,,,,,,,,,,,,,,,,,,,,,,,,,0.065,,,,,,,,,,,,,,,,,,,,,,,,,,,,left,0,100,30,130,1,2488.532419,2488.532419,2488.532419,None,None,2,0,0.3426252,,,,,,,,,,,,,,,,,,,,,,10,22,2,2024-12-26_16h33.59.860,uWM_experiment,2022.2.3,60.00121202
,,,,,,,,,,,,,,,,,,,,7,0,7,0,15,0,15,0,,,,,,,,,,,,,,,,,,,,,,,,,,,,,,,,,,,,,,,,,,,,,,,,,,,,,,,,,,,,,,,,,,,,,,0,,,,,,,,,,,,,,,,,,,,,,,,,,,,left,1,160,-30,130,0,2494.332706,2494.332706,2494.332706,None,None,1,1,0.3343236,,,,,,,,,,,,,,,,,,,,,,10,22,2,2024-12-26_16h33.59.860,uWM_experiment,2022.2.3,60.00121202
,,,,,,,,,,,,,,,,,,,,7,0,7,0,16,0,16,0,,,,,,,,,,,,,,,,,,,,,,,,,,,,,,,,,,,,,,,,,,,,,,,,,,,,,,,,,,,,,,,,,,,,,,0.055,,,,,,,,,,,,,,,,,,,,,,,,,,,,left,1,130,-30,100,1,2500.866286,2500.866286,2500.866286,None,None,1,1,0.4649456,,,,,,,,,,,,,,,,,,,,,,10,22,2,2024-12-26_16h33.59.860,uWM_experiment,2022.2.3,60.00121202
,,,,,,,,,,,,,,,,,,,,7,0,7,0,17,0,17,0,,,,,,,,,,,,,,,,,,,,,,,,,,,,,,,,,,,,,,,,,,,,,,,,,,,,,,,,,,,,,,,,,,,,,,0,,,,,,,,,,,,,,,,,,,,,,,,,,,,left,1,10,-30,-20,0,2507.04988,2507.04988,2507.04988,None,None,1,1,0.377325,,,,,,,,,,,,,,,,,,,,,,10,22,2,2024-12-26_16h33.59.860,uWM_experiment,2022.2.3,60.00121202
,,,,,,,,,,,,,,,,,,,,7,0,7,0,18,0,18,0,,,,,,,,,,,,,,,,,,,,,,,,,,,,,,,,,,,,,,,,,,,,,,,,,,,,,,,,,,,,,,,,,,,,,,0.065,,,,,,,,,,,,,,,,,,,,,,,,,,,,right,0,40,-30,10,1,2513.066832,2513.066832,2513.066832,None,None,1,1,0.288214,,,,,,,,,,,,,,,,,,,,,,10,22,2,2024-12-26_16h33.59.860,uWM_experiment,2022.2.3,60.00121202
,,,,,,,,,,,,,,,,,,,,7,0,7,0,19,0,19,0,,,,,,,,,,,,,,,,,,,,,,,,,,,,,,,,,,,,,,,,,,,,,,,,,,,,,,,,,,,,,,,,,,,,,,0,,,,,,,,,,,,,,,,,,,,,,,,,,,,right,0,40,-30,10,0,2518.950448,2518.950448,2518.950448,None,None,1,1,0.2846173,,,,,,,,,,,,,,,,,,,,,,10,22,2,2024-12-26_16h33.59.860,uWM_experiment,2022.2.3,60.00121202
,,,,,,,,,,,,,,,,,,,,7,0,7,0,20,0,20,0,,,,,,,,,,,,,,,,,,,,,,,,,,,,,,,,,,,,,,,,,,,,,,,,,,,,,,,,,,,,,,,,,,,,,,0.075,,,,,,,,,,,,,,,,,,,,,,,,,,,,right,1,160,30,190,1,2525.034015,2525.034015,2525.034015,None,None,2,0,0.3771148,,,,,,,,,,,,,,,,,,,,,,10,22,2,2024-12-26_16h33.59.860,uWM_experiment,2022.2.3,60.00121202
,,,,,,,,,,,,,,,,,,,,7,0,7,0,21,0,21,0,,,,,,,,,,,,,,,,,,,,,,,,,,,,,,,,,,,,,,,,,,,,,,,,,,,,,,,,,,,,,,,,,,,,,,0.065,,,,,,,,,,,,,,,,,,,,,,,,,,,,right,0,100,-30,70,1,2531.134309,2531.134309,2531.134309,None,None,2,0,0.3489011,,,,,,,,,,,,,,,,,,,,,,10,22,2,2024-12-26_16h33.59.860,uWM_experiment,2022.2.3,60.00121202
,,,,,,,,,,,,,,,,,,,,7,0,7,0,22,0,22,0,,,,,,,,,,,,,,,,,,,,,,,,,,,,,,,,,,,,,,,,,,,,,,,,,,,,,,,,,,,,,,,,,,,,,,0.055,,,,,,,,,,,,,,,,,,,,,,,,,,,,left,1,160,-30,130,1,2537.184605,2537.184605,2537.184605,None,None,1,1,0.3065759,,,,,,,,,,,,,,,,,,,,,,10,22,2,2024-12-26_16h33.59.860,uWM_experiment,2022.2.3,60.00121202
,,,,,,,,,,,,,,,,,,,,7,0,7,0,23,0,23,0,,,,,,,,,,,,,,,,,,,,,,,,,,,,,,,,,,,,,,,,,,,,,,,,,,,,,,,,,,,,,,,,,,,,,,0.065,,,,,,,,,,,,,,,,,,,,,,,,,,,,left,0,130,30,160,1,2543.18485,2543.18485,2543.18485,None,None,2,0,0.3702512,,,,,,,,,,,,,,,,,,,,,,10,22,2,2024-12-26_16h33.59.860,uWM_experiment,2022.2.3,60.00121202
,,,,,,,,,,,,,,,,,,,,7,0,7,0,,,,,0,0,0,0,,,,,,,,,,,,,,,,,,,,,,,,,,,,,,,,,,,,,,,,,,,,,,,,,,,,,,,,,,,,,,,,,,,,,,,,,,,,,,,,,,,,,,,,,,,,,,,,,,,,,,,,,,,,2543.584877,2543.584877,space,5.0742855,None,None,,,,,,,,,,,,,,,,10,22,2,2024-12-26_16h33.59.860,uWM_experiment,2022.2.3,60.00121202
,,,,,,,,,,,,,,,,,,,,7,0,7,0,,,,,1,0,1,0,,,,,,,,,,,,,,,,,,,,,,,,,,,,,,,,,,,,,,,,,,,,,,,,,,,,,,,,,,,,,,,,,,,,,,,,,,,,,,,,,,,,,,,,,,,,,,,,,,,,,,,,,,,,,,,,,,,,,,,,,,,,,,,,,10,22,2,2024-12-26_16h33.59.860,uWM_experiment,2022.2.3,60.00121202
,,,,,,,,,,,,,,,,,,,,7,0,7,0,,,,,2,0,2,0,,,,,,,,,,,,,,,,,,,,,,,,,,,,,,,,,,,,,,,,,,,,,,,,,,,,,,,,,,,,,,,,,,,,,,,,,,,,,,,,,,,,,,,,,,,,,,,,,,,,,,,,,,,,,,,,,,,,,,,,,,,,,,,,,10,22,2,2024-12-26_16h33.59.860,uWM_experiment,2022.2.3,60.00121202
,,,,,,,,,,,,,,,,,,,,8,0,8,0,0,0,0,0,,,,,,,,,,,,,,,,,,,,,,,,,,,,,,,,,,,,,,,,,,,,,,,,,,,,,,,,,,,,,,,,,,,,,,0.055,,,,,,,,,,,,,,,,,,,,2548.685083,2549.385122,2549.685135,2550.385195,2550.685209,2551.385209,2551.385209,2551.701925,right,0,40,-30,10,1,2556.235436,2556.235436,2556.235436,None,None,1,1,0.3036895,,,,,,,None,,,,,,,,,,,,,,,10,22,2,2024-12-26_16h33.59.860,uWM_experiment,2022.2.3,60.00121202
,,,,,,,,,,,,,,,,,,,,8,0,8,0,1,0,1,0,,,,,,,,,,,,,,,,,,,,,,,,,,,,,,,,,,,,,,,,,,,,,,,,,,,,,,,,,,,,,,,,,,,,,,0.065,,,,,,,,,,,,,,,,,,,,,,,,,,,,right,1,40,30,70,1,2562.002363,2562.002363,2562.002363,None,None,1,1,0.3367325,,,,,,,,,,,,,,,,,,,,,,10,22,2,2024-12-26_16h33.59.860,uWM_experiment,2022.2.3,60.00121202
,,,,,,,,,,,,,,,,,,,,8,0,8,0,2,0,2,0,,,,,,,,,,,,,,,,,,,,,,,,,,,,,,,,,,,,,,,,,,,,,,,,,,,,,,,,,,,,,,,,,,,,,,0.075,,,,,,,,,,,,,,,,,,,,,,,,,,,,left,1,160,-30,130,1,2567.835963,2567.835963,2567.835963,None,None,1,1,0.3351899,,,,,,,,,,,,,,,,,,,,,,10,22,2,2024-12-26_16h33.59.860,uWM_experiment,2022.2.3,60.00121202
,,,,,,,,,,,,,,,,,,,,8,0,8,0,3,0,3,0,,,,,,,,,,,,,,,,,,,,,,,,,,,,,,,,,,,,,,,,,,,,,,,,,,,,,,,,,,,,,,,,,,,,,,0,,,,,,,,,,,,,,,,,,,,,,,,,,,,right,0,100,-30,70,0,2573.75288,2573.75288,2573.75288,None,None,1,1,0.2663744,,,,,,,,,,,,,,,,,,,,,,10,22,2,2024-12-26_16h33.59.860,uWM_experiment,2022.2.3,60.00121202
,,,,,,,,,,,,,,,,,,,,8,0,8,0,4,0,4,0,,,,,,,,,,,,,,,,,,,,,,,,,,,,,,,,,,,,,,,,,,,,,,,,,,,,,,,,,,,,,,,,,,,,,,0.085,,,,,,,,,,,,,,,,,,,,,,,,,,,,left,1,10,-30,-20,1,2579.486477,2579.486477,2579.486477,None,None,1,1,0.2686939,,,,,,,,,,,,,,,,,,,,,,10,22,2,2024-12-26_16h33.59.860,uWM_experiment,2022.2.3,60.00121202
,,,,,,,,,,,,,,,,,,,,8,0,8,0,5,0,5,0,,,,,,,,,,,,,,,,,,,,,,,,,,,,,,,,,,,,,,,,,,,,,,,,,,,,,,,,,,,,,,,,,,,,,,0.1,,,,,,,,,,,,,,,,,,,,,,,,,,,,right,1,100,30,130,2,2586.553452,2586.553452,2586.553452,None,None,1,1,0.3457571,,,,,,,,,,,,,,,,,,,,,,10,22,2,2024-12-26_16h33.59.860,uWM_experiment,2022.2.3,60.00121202
,,,,,,,,,,,,,,,,,,,,8,0,8,0,6,0,6,0,,,,,,,,,,,,,,,,,,,,,,,,,,,,,,,,,,,,,,,,,,,,,,,,,,,,,,,,,,,,,,,,,,,,,,0.095,,,,,,,,,,,,,,,,,,,,,,,,,,,,left,0,130,30,160,1,2592.903767,2592.903767,2592.903767,None,None,1,1,0.3235289,,,,,,,,,,,,,,,,,,,,,,10,22,2,2024-12-26_16h33.59.860,uWM_experiment,2022.2.3,60.00121202
,,,,,,,,,,,,,,,,,,,,8,0,8,0,7,0,7,0,,,,,,,,,,,,,,,,,,,,,,,,,,,,,,,,,,,,,,,,,,,,,,,,,,,,,,,,,,,,,,,,,,,,,,0.105,,,,,,,,,,,,,,,,,,,,,,,,,,,,left,1,70,-30,40,1,2600.837448,2600.837448,2600.837448,None,None,3,0,0.9818374,,,,,,,,,,,,,,,,,,,,,,10,22,2,2024-12-26_16h33.59.860,uWM_experiment,2022.2.3,60.00121202
,,,,,,,,,,,,,,,,,,,,8,0,8,0,8,0,8,0,,,,,,,,,,,,,,,,,,,,,,,,,,,,,,,,,,,,,,,,,,,,,,,,,,,,,,,,,,,,,,,,,,,,,,0,,,,,,,,,,,,,,,,,,,,,,,,,,,,left,0,70,30,100,0,2607.487747,2607.487747,2607.487747,None,None,1,1,0.27547,,,,,,,,,,,,,,,,,,,,,,10,22,2,2024-12-26_16h33.59.860,uWM_experiment,2022.2.3,60.00121202
,,,,,,,,,,,,,,,,,,,,8,0,8,0,9,0,9,0,,,,,,,,,,,,,,,,,,,,,,,,,,,,,,,,,,,,,,,,,,,,,,,,,,,,,,,,,,,,,,,,,,,,,,0,,,,,,,,,,,,,,,,,,,,,,,,,,,,right,1,160,30,190,0,2613.80471,2613.80471,2613.80471,None,None,1,1,0.2786042,,,,,,,,,,,,,,,,,,,,,,10,22,2,2024-12-26_16h33.59.860,uWM_experiment,2022.2.3,60.00121202
,,,,,,,,,,,,,,,,,,,,8,0,8,0,10,0,10,0,,,,,,,,,,,,,,,,,,,,,,,,,,,,,,,,,,,,,,,,,,,,,,,,,,,,,,,,,,,,,,,,,,,,,,0,,,,,,,,,,,,,,,,,,,,,,,,,,,,left,0,70,30,100,0,2619.888313,2619.888313,2619.888313,None,None,1,1,0.2188951,,,,,,,,,,,,,,,,,,,,,,10,22,2,2024-12-26_16h33.59.860,uWM_experiment,2022.2.3,60.00121202
,,,,,,,,,,,,,,,,,,,,8,0,8,0,11,0,11,0,,,,,,,,,,,,,,,,,,,,,,,,,,,,,,,,,,,,,,,,,,,,,,,,,,,,,,,,,,,,,,,,,,,,,,0.095,,,,,,,,,,,,,,,,,,,,,,,,,,,,right,1,70,30,100,1,2628.605359,2628.605359,2628.605359,None,None,3,0,0.6538791,,,,,,,,,,,,,,,,,,,,,,10,22,2,2024-12-26_16h33.59.860,uWM_experiment,2022.2.3,60.00121202
,,,,,,,,,,,,,,,,,,,,8,0,8,0,12,0,12,0,,,,,,,,,,,,,,,,,,,,,,,,,,,,,,,,,,,,,,,,,,,,,,,,,,,,,,,,,,,,,,,,,,,,,,0,,,,,,,,,,,,,,,,,,,,,,,,,,,,right,0,100,-30,70,0,2634.872323,2634.872323,2634.872323,None,None,1,1,0.3389824,,,,,,,,,,,,,,,,,,,,,,10,22,2,2024-12-26_16h33.59.860,uWM_experiment,2022.2.3,60.00121202
,,,,,,,,,,,,,,,,,,,,8,0,8,0,13,0,13,0,,,,,,,,,,,,,,,,,,,,,,,,,,,,,,,,,,,,,,,,,,,,,,,,,,,,,,,,,,,,,,,,,,,,,,0,,,,,,,,,,,,,,,,,,,,,,,,,,,,left,1,160,-30,130,0,2640.855898,2640.855898,2640.855898,None,None,1,1,0.3394613,,,,,,,,,,,,,,,,,,,,,,10,22,2,2024-12-26_16h33.59.860,uWM_experiment,2022.2.3,60.00121202
,,,,,,,,,,,,,,,,,,,,8,0,8,0,14,0,14,0,,,,,,,,,,,,,,,,,,,,,,,,,,,,,,,,,,,,,,,,,,,,,,,,,,,,,,,,,,,,,,,,,,,,,,0.085,,,,,,,,,,,,,,,,,,,,,,,,,,,,right,1,160,30,190,1,2646.822868,2646.822868,2646.822868,None,None,1,1,0.2764159,,,,,,,,,,,,,,,,,,,,,,10,22,2,2024-12-26_16h33.59.860,uWM_experiment,2022.2.3,60.00121202
,,,,,,,,,,,,,,,,,,,,8,0,8,0,15,0,15,0,,,,,,,,,,,,,,,,,,,,,,,,,,,,,,,,,,,,,,,,,,,,,,,,,,,,,,,,,,,,,,,,,,,,,,0.095,,,,,,,,,,,,,,,,,,,,,,,,,,,,right,0,100,-30,70,1,2652.656472,2652.656472,2652.656472,None,None,1,1,0.2672023,,,,,,,,,,,,,,,,,,,,,,10,22,2,2024-12-26_16h33.59.860,uWM_experiment,2022.2.3,60.00121202
,,,,,,,,,,,,,,,,,,,,8,0,8,0,16,0,16,0,,,,,,,,,,,,,,,,,,,,,,,,,,,,,,,,,,,,,,,,,,,,,,,,,,,,,,,,,,,,,,,,,,,,,,0.105,,,,,,,,,,,,,,,,,,,,,,,,,,,,left,1,40,-30,10,1,2658.640063,2658.640063,2658.640063,None,None,1,1,0.3152533,,,,,,,,,,,,,,,,,,,,,,10,22,2,2024-12-26_16h33.59.860,uWM_experiment,2022.2.3,60.00121202
,,,,,,,,,,,,,,,,,,,,8,0,8,0,17,0,17,0,,,,,,,,,,,,,,,,,,,,,,,,,,,,,,,,,,,,,,,,,,,,,,,,,,,,,,,,,,,,,,,,,,,,,,0.115,,,,,,,,,,,,,,,,,,,,,,,,,,,,left,0,130,30,160,1,2664.506973,2664.506973,2664.506973,None,None,1,1,0.272291,,,,,,,,,,,,,,,,,,,,,,10,22,2,2024-12-26_16h33.59.860,uWM_experiment,2022.2.3,60.00121202
,,,,,,,,,,,,,,,,,,,,8,0,8,0,18,0,18,0,,,,,,,,,,,,,,,,,,,,,,,,,,,,,,,,,,,,,,,,,,,,,,,,,,,,,,,,,,,,,,,,,,,,,,0,,,,,,,,,,,,,,,,,,,,,,,,,,,,left,0,130,30,160,0,2670.373937,2670.373937,2670.373937,None,None,1,1,0.2053404,,,,,,,,,,,,,,,,,,,,,,10,22,2,2024-12-26_16h33.59.860,uWM_experiment,2022.2.3,60.00121202
,,,,,,,,,,,,,,,,,,,,8,0,8,0,19,0,19,0,,,,,,,,,,,,,,,,,,,,,,,,,,,,,,,,,,,,,,,,,,,,,,,,,,,,,,,,,,,,,,,,,,,,,,0.125,,,,,,,,,,,,,,,,,,,,,,,,,,,,left,1,160,-30,130,1,2676.090851,2676.090851,2676.090851,None,None,1,1,0.2244634,,,,,,,,,,,,,,,,,,,,,,10,22,2,2024-12-26_16h33.59.860,uWM_experiment,2022.2.3,60.00121202
,,,,,,,,,,,,,,,,,,,,8,0,8,0,20,0,20,0,,,,,,,,,,,,,,,,,,,,,,,,,,,,,,,,,,,,,,,,,,,,,,,,,,,,,,,,,,,,,,,,,,,,,,0.135,,,,,,,,,,,,,,,,,,,,,,,,,,,,left,0,70,30,100,1,2681.957777,2681.957777,2681.957777,None,None,1,1,0.2054985,,,,,,,,,,,,,,,,,,,,,,10,22,2,2024-12-26_16h33.59.860,uWM_experiment,2022.2.3,60.00121202
,,,,,,,,,,,,,,,,,,,,8,0,8,0,21,0,21,0,,,,,,,,,,,,,,,,,,,,,,,,,,,,,,,,,,,,,,,,,,,,,,,,,,,,,,,,,,,,,,,,,,,,,,0,,,,,,,,,,,,,,,,,,,,,,,,,,,,right,1,40,30,70,0,2687.641367,2687.641367,2687.641367,None,None,1,1,0.2499683,,,,,,,,,,,,,,,,,,,,,,10,22,2,2024-12-26_16h33.59.860,uWM_experiment,2022.2.3,60.00121202
,,,,,,,,,,,,,,,,,,,,8,0,8,0,22,0,22,0,,,,,,,,,,,,,,,,,,,,,,,,,,,,,,,,,,,,,,,,,,,,,,,,,,,,,,,,,,,,,,,,,,,,,,0.145,,,,,,,,,,,,,,,,,,,,,,,,,,,,right,0,100,-30,70,1,2693.424975,2693.424975,2693.424975,None,None,2,0,0.3303545,,,,,,,,,,,,,,,,,,,,,,10,22,2,2024-12-26_16h33.59.860,uWM_experiment,2022.2.3,60.00121202
,,,,,,,,,,,,,,,,,,,,8,0,8,0,23,0,23,0,,,,,,,,,,,,,,,,,,,,,,,,,,,,,,,,,,,,,,,,,,,,,,,,,,,,,,,,,,,,,,,,,,,,,,0.135,,,,,,,,,,,,,,,,,,,,,,,,,,,,left,1,40,-30,10,1,2700.041935,2700.041935,2700.041935,None,None,3,0,0.7614298,,,,,,,,,,,,,,,,,,,,,,10,22,2,2024-12-26_16h33.59.860,uWM_experiment,2022.2.3,60.00121202
,,,,,,,,,,,,,,,,,,,,8,0,8,0,,,,,0,0,0,0,,,,,,,,,,,,,,,,,,,,,,,,,,,,,,,,,,,,,,,,,,,,,,,,,,,,,,,,,,,,,,,,,,,,,,,,,,,,,,,,,,,,,,,,,,,,,,,,,,,,,,,,,,,,2700.825287,2700.825287,space,61.8341653,space,None,,2762.6781,2762.6781,5.0934189,,,,,,,,,,,,10,22,2,2024-12-26_16h33.59.860,uWM_experiment,2022.2.3,60.00121202
,,,,,,,,,,,,,,,,,,,,8,0,8,0,,,,,1,0,1,0,,,,,,,,,,,,,,,,,,,,,,,,,,,,,,,,,,,,,,,,,,,,,,,,,,,,,,,,,,,,,,,,,,,,,,,,,,,,,,,,,,,,,,,,,,,,,,,,,,,,,,,,,,,,,,,,,,,,,,,,,,,,,,,,,10,22,2,2024-12-26_16h33.59.860,uWM_experiment,2022.2.3,60.00121202
,,,,,,,,,,,,,,,,,,,,8,0,8,0,,,,,2,0,2,0,,,,,,,,,,,,,,,,,,,,,,,,,,,,,,,,,,,,,,,,,,,,,,,,,,,,,,,,,,,,,,,,,,,,,,,,,,,,,,,,,,,,,,,,,,,,,,,,,,,,,,,,,,,,,,,,,,,,,,,,,,,,,,,,,10,22,2,2024-12-26_16h33.59.860,uWM_experiment,2022.2.3,60.00121202
,,,,,,,,,,,,,,,,,,,,9,0,9,0,0,0,0,0,,,,,,,,,,,,,,,,,,,,,,,,,,,,,,,,,,,,,,,,,,,,,,,,,,,,,,,,,,,,,,,,,,,,,,0.125,,,,,,,,,,,,,,,,,,,,2767.794982,2768.494987,2768.795026,2769.495058,2769.795083,2770.495106,2770.495106,2770.811799,right,0,70,-30,40,1,2776.078706,2776.078706,2776.078706,None,None,2,0,2.0366727,,,,,,,None,,,,,,,,,,,,,,,10,22,2,2024-12-26_16h33.59.860,uWM_experiment,2022.2.3,60.00121202
,,,,,,,,,,,,,,,,,,,,9,0,9,0,1,0,1,0,,,,,,,,,,,,,,,,,,,,,,,,,,,,,,,,,,,,,,,,,,,,,,,,,,,,,,,,,,,,,,,,,,,,,,0,,,,,,,,,,,,,,,,,,,,,,,,,,,,left,1,10,-30,-20,0,2783.612365,2783.612365,2783.612365,None,None,2,0,1.1751044,,,,,,,,,,,,,,,,,,,,,,10,22,2,2024-12-26_16h33.59.860,uWM_experiment,2022.2.3,60.00121202
,,,,,,,,,,,,,,,,,,,,9,0,9,0,2,0,2,0,,,,,,,,,,,,,,,,,,,,,,,,,,,,,,,,,,,,,,,,,,,,,,,,,,,,,,,,,,,,,,,,,,,,,,0.115,,,,,,,,,,,,,,,,,,,,,,,,,,,,left,0,100,30,130,1,2790.579355,2790.579355,2790.579355,None,None,1,1,0.4401714,,,,,,,,,,,,,,,,,,,,,,10,22,2,2024-12-26_16h33.59.860,uWM_experiment,2022.2.3,60.00121202
,,,,,,,,,,,,,,,,,,,,9,0,9,0,3,0,3,0,,,,,,,,,,,,,,,,,,,,,,,,,,,,,,,,,,,,,,,,,,,,,,,,,,,,,,,,,,,,,,,,,,,,,,0.125,,,,,,,,,,,,,,,,,,,,,,,,,,,,left,1,10,-30,-20,1,2797.329679,2797.329679,2797.329679,None,None,2,0,0.5458745,,,,,,,,,,,,,,,,,,,,,,10,22,2,2024-12-26_16h33.59.860,uWM_experiment,2022.2.3,60.00121202
,,,,,,,,,,,,,,,,,,,,9,0,9,0,4,0,4,0,,,,,,,,,,,,,,,,,,,,,,,,,,,,,,,,,,,,,,,,,,,,,,,,,,,,,,,,,,,,,,,,,,,,,,0.115,,,,,,,,,,,,,,,,,,,,,,,,,,,,left,1,70,-30,40,1,2804.163297,2804.163297,2804.163297,None,None,3,0,0.6562174,,,,,,,,,,,,,,,,,,,,,,10,22,2,2024-12-26_16h33.59.860,uWM_experiment,2022.2.3,60.00121202
,,,,,,,,,,,,,,,,,,,,9,0,9,0,5,0,5,0,,,,,,,,,,,,,,,,,,,,,,,,,,,,,,,,,,,,,,,,,,,,,,,,,,,,,,,,,,,,,,,,,,,,,,0,,,,,,,,,,,,,,,,,,,,,,,,,,,,right,0,70,-30,40,0,2810.446908,2810.446908,2810.446908,None,None,1,1,0.4446367,,,,,,,,,,,,,,,,,,,,,,10,22,2,2024-12-26_16h33.59.860,uWM_experiment,2022.2.3,60.00121202
,,,,,,,,,,,,,,,,,,,,9,0,9,0,6,0,6,0,,,,,,,,,,,,,,,,,,,,,,,,,,,,,,,,,,,,,,,,,,,,,,,,,,,,,,,,,,,,,,,,,,,,,,0.105,,,,,,,,,,,,,,,,,,,,,,,,,,,,right,1,40,30,70,1,2816.430512,2816.430512,2816.430512,None,None,2,0,0.3489193,,,,,,,,,,,,,,,,,,,,,,10,22,2,2024-12-26_16h33.59.860,uWM_experiment,2022.2.3,60.00121202
,,,,,,,,,,,,,,,,,,,,9,0,9,0,7,0,7,0,,,,,,,,,,,,,,,,,,,,,,,,,,,,,,,,,,,,,,,,,,,,,,,,,,,,,,,,,,,,,,,,,,,,,,0.095,,,,,,,,,,,,,,,,,,,,,,,,,,,,left,0,100,30,130,1,2822.864147,2822.864147,2822.864147,None,None,2,0,0.4433869,,,,,,,,,,,,,,,,,,,,,,10,22,2,2024-12-26_16h33.59.860,uWM_experiment,2022.2.3,60.00121202
,,,,,,,,,,,,,,,,,,,,9,0,9,0,8,0,8,0,,,,,,,,,,,,,,,,,,,,,,,,,,,,,,,,,,,,,,,,,,,,,,,,,,,,,,,,,,,,,,,,,,,,,,0,,,,,,,,,,,,,,,,,,,,,,,,,,,,right,0,70,-30,40,0,2828.597725,2828.597725,2828.597725,None,None,1,1,0.4777758,,,,,,,,,,,,,,,,,,,,,,10,22,2,2024-12-26_16h33.59.860,uWM_experiment,2022.2.3,60.00121202
,,,,,,,,,,,,,,,,,,,,9,0,9,0,9,0,9,0,,,,,,,,,,,,,,,,,,,,,,,,,,,,,,,,,,,,,,,,,,,,,,,,,,,,,,,,,,,,,,,,,,,,,,0.085,,,,,,,,,,,,,,,,,,,,,,,,,,,,right,0,70,-30,40,1,2836.44807,2836.44807,2836.44807,None,None,2,0,0.5154267,,,,,,,,,,,,,,,,,,,,,,10,22,2,2024-12-26_16h33.59.860,uWM_experiment,2022.2.3,60.00121202
,,,,,,,,,,,,,,,,,,,,9,0,9,0,10,0,10,0,,,,,,,,,,,,,,,,,,,,,,,,,,,,,,,,,,,,,,,,,,,,,,,,,,,,,,,,,,,,,,,,,,,,,,0.075,,,,,,,,,,,,,,,,,,,,,,,,,,,,left,1,130,-30,100,1,2842.665066,2842.665066,2842.665066,None,None,1,1,0.2904405,,,,,,,,,,,,,,,,,,,,,,10,22,2,2024-12-26_16h33.59.860,uWM_experiment,2022.2.3,60.00121202
,,,,,,,,,,,,,,,,,,,,9,0,9,0,11,0,11,0,,,,,,,,,,,,,,,,,,,,,,,,,,,,,,,,,,,,,,,,,,,,,,,,,,,,,,,,,,,,,,,,,,,,,,0.085,,,,,,,,,,,,,,,,,,,,,,,,,,,,left,0,100,30,130,1,2848.781976,2848.781976,2848.781976,None,None,1,1,0.3335369,,,,,,,,,,,,,,,,,,,,,,10,22,2,2024-12-26_16h33.59.860,uWM_experiment,2022.2.3,60.00121202
,,,,,,,,,,,,,,,,,,,,9,0,9,0,12,0,12,0,,,,,,,,,,,,,,,,,,,,,,,,,,,,,,,,,,,,,,,,,,,,,,,,,,,,,,,,,,,,,,,,,,,,,,0.095,,,,,,,,,,,,,,,,,,,,,,,,,,,,left,0,130,30,160,1,2854.782254,2854.782254,2854.782254,None,None,1,1,0.2692071,,,,,,,,,,,,,,,,,,,,,,10,22,2,2024-12-26_16h33.59.860,uWM_experiment,2022.2.3,60.00121202
,,,,,,,,,,,,,,,,,,,,9,0,9,0,13,0,13,0,,,,,,,,,,,,,,,,,,,,,,,,,,,,,,,,,,,,,,,,,,,,,,,,,,,,,,,,,,,,,,,,,,,,,,0.105,,,,,,,,,,,,,,,,,,,,,,,,,,,,right,1,160,30,190,1,2861.165895,2861.165895,2861.165895,None,None,2,0,0.5817735,,,,,,,,,,,,,,,,,,,,,,10,22,2,2024-12-26_16h33.59.860,uWM_experiment,2022.2.3,60.00121202
,,,,,,,,,,,,,,,,,,,,9,0,9,0,14,0,14,0,,,,,,,,,,,,,,,,,,,,,,,,,,,,,,,,,,,,,,,,,,,,,,,,,,,,,,,,,,,,,,,,,,,,,,0,,,,,,,,,,,,,,,,,,,,,,,,,,,,left,0,130,30,160,0,2867.516168,2867.516168,2867.516168,None,None,1,1,0.3754527,,,,,,,,,,,,,,,,,,,,,,10,22,2,2024-12-26_16h33.59.860,uWM_experiment,2022.2.3,60.00121202
,,,,,,,,,,,,,,,,,,,,9,0,9,0,15,0,15,0,,,,,,,,,,,,,,,,,,,,,,,,,,,,,,,,,,,,,,,,,,,,,,,,,,,,,,,,,,,,,,,,,,,,,,0.095,,,,,,,,,,,,,,,,,,,,,,,,,,,,right,0,70,-30,40,1,2873.383085,2873.383085,2873.383085,None,None,1,1,0.4043832,,,,,,,,,,,,,,,,,,,,,,10,22,2,2024-12-26_16h33.59.860,uWM_experiment,2022.2.3,60.00121202
,,,,,,,,,,,,,,,,,,,,9,0,9,0,16,0,16,0,,,,,,,,,,,,,,,,,,,,,,,,,,,,,,,,,,,,,,,,,,,,,,,,,,,,,,,,,,,,,,,,,,,,,,0.105,,,,,,,,,,,,,,,,,,,,,,,,,,,,right,0,100,-30,70,1,2879.500017,2879.500017,2879.500017,None,None,1,1,0.4076041,,,,,,,,,,,,,,,,,,,,,,10,22,2,2024-12-26_16h33.59.860,uWM_experiment,2022.2.3,60.00121202
,,,,,,,,,,,,,,,,,,,,9,0,9,0,17,0,17,0,,,,,,,,,,,,,,,,,,,,,,,,,,,,,,,,,,,,,,,,,,,,,,,,,,,,,,,,,,,,,,,,,,,,,,0,,,,,,,,,,,,,,,,,,,,,,,,,,,,left,0,130,30,160,0,2885.733676,2885.733676,2885.733676,None,None,2,0,0.5419033,,,,,,,,,,,,,,,,,,,,,,10,22,2,2024-12-26_16h33.59.860,uWM_experiment,2022.2.3,60.00121202
,,,,,,,,,,,,,,,,,,,,9,0,9,0,18,0,18,0,,,,,,,,,,,,,,,,,,,,,,,,,,,,,,,,,,,,,,,,,,,,,,,,,,,,,,,,,,,,,,,,,,,,,,0,,,,,,,,,,,,,,,,,,,,,,,,,,,,right,0,70,-30,40,0,2891.800603,2891.800603,2891.800603,None,None,1,1,0.3069894,,,,,,,,,,,,,,,,,,,,,,10,22,2,2024-12-26_16h33.59.860,uWM_experiment,2022.2.3,60.00121202
,,,,,,,,,,,,,,,,,,,,9,0,9,0,19,0,19,0,,,,,,,,,,,,,,,,,,,,,,,,,,,,,,,,,,,,,,,,,,,,,,,,,,,,,,,,,,,,,,,,,,,,,,0.1,,,,,,,,,,,,,,,,,,,,,,,,,,,,left,1,100,-30,70,2,2900.000958,2900.000958,2900.000958,None,None,4,0,0.3226869,,,,,,,,,,,,,,,,,,,,,,10,22,2,2024-12-26_16h33.59.860,uWM_experiment,2022.2.3,60.00121202
,,,,,,,,,,,,,,,,,,,,9,0,9,0,20,0,20,0,,,,,,,,,,,,,,,,,,,,,,,,,,,,,,,,,,,,,,,,,,,,,,,,,,,,,,,,,,,,,,,,,,,,,,0.115,,,,,,,,,,,,,,,,,,,,,,,,,,,,right,0,70,-30,40,1,2906.48458,2906.48458,2906.48458,None,None,2,0,0.8070588,,,,,,,,,,,,,,,,,,,,,,10,22,2,2024-12-26_16h33.59.860,uWM_experiment,2022.2.3,60.00121202
,,,,,,,,,,,,,,,,,,,,9,0,9,0,21,0,21,0,,,,,,,,,,,,,,,,,,,,,,,,,,,,,,,,,,,,,,,,,,,,,,,,,,,,,,,,,,,,,,,,,,,,,,0.1,,,,,,,,,,,,,,,,,,,,,,,,,,,,left,1,10,-30,-20,2,2914.118586,2914.118586,2914.118586,None,None,4,0,0.5410059,,,,,,,,,,,,,,,,,,,,,,10,22,2,2024-12-26_16h33.59.860,uWM_experiment,2022.2.3,60.00121202
,,,,,,,,,,,,,,,,,,,,9,0,9,0,22,0,22,0,,,,,,,,,,,,,,,,,,,,,,,,,,,,,,,,,,,,,,,,,,,,,,,,,,,,,,,,,,,,,,,,,,,,,,0.105,,,,,,,,,,,,,,,,,,,,,,,,,,,,left,0,70,30,100,1,2921.485298,2921.485298,2921.485298,None,None,2,0,0.5182453,,,,,,,,,,,,,,,,,,,,,,10,22,2,2024-12-26_16h33.59.860,uWM_experiment,2022.2.3,60.00121202
,,,,,,,,,,,,,,,,,,,,9,0,9,0,23,0,23,0,,,,,,,,,,,,,,,,,,,,,,,,,,,,,,,,,,,,,,,,,,,,,,,,,,,,,,,,,,,,,,,,,,,,,,0.095,,,,,,,,,,,,,,,,,,,,,,,,,,,,right,1,40,30,70,1,2927.735539,2927.735539,2927.735539,None,None,3,0,1.7082835,,,,,,,,,,,,,,,,,,,,,,10,22,2,2024-12-26_16h33.59.860,uWM_experiment,2022.2.3,60.00121202
,,,,,,,,,,,,,,,,,,,,9,0,9,0,,,,,0,0,0,0,,,,,,,,,,,,,,,,,,,,,,,,,,,,,,,,,,,,,,,,,,,,,,,,,,,,,,,,,,,,,,,,,,,,,,,,,,,,,,,,,,,,,,,,,,,,,,,,,,,,,,,,,,,,2929.468955,2929.468955,space,9.0067565,None,None,,,,,,,,,,,,,,,,10,22,2,2024-12-26_16h33.59.860,uWM_experiment,2022.2.3,60.00121202
,,,,,,,,,,,,,,,,,,,,9,0,9,0,,,,,1,0,1,0,,,,,,,,,,,,,,,,,,,,,,,,,,,,,,,,,,,,,,,,,,,,,,,,,,,,,,,,,,,,,,,,,,,,,,,,,,,,,,,,,,,,,,,,,,,,,,,,,,,,,,,,,,,,,,,,,,,,,,,,,,,,,,,,,10,22,2,2024-12-26_16h33.59.860,uWM_experiment,2022.2.3,60.00121202
,,,,,,,,,,,,,,,,,,,,9,0,9,0,,,,,2,0,2,0,,,,,,,,,,,,,,,,,,,,,,,,,,,,,,,,,,,,,,,,,,,,,,,,,,,,,,,,,,,,,,,,,,,,,,,,,,,,,,,,,,,,,,,,,,,,,,,,,,,,,,,,,,,,,,,,,,,,,,,,,,,,,,,,,10,22,2,2024-12-26_16h33.59.860,uWM_experiment,2022.2.3,60.00121202
,,,,,,,,,,,,,,,,,,,,10,0,10,0,0,0,0,0,,,,,,,,,,,,,,,,,,,,,,,,,,,,,,,,,,,,,,,,,,,,,,,,,,,,,,,,,,,,,,,,,,,,,,0.085,,,,,,,,,,,,,,,,,,,,2938.502694,2939.202726,2939.502742,2940.202767,2940.502782,2941.202828,2941.202828,2941.519513,right,1,160,30,190,1,2946.003034,2946.003034,2946.003034,None,None,1,1,2.7126263,,,,,,,None,,,,,,,,,,,,,,,10,22,2,2024-12-26_16h33.59.860,uWM_experiment,2022.2.3,60.00121202
,,,,,,,,,,,,,,,,,,,,10,0,10,0,1,0,1,0,,,,,,,,,,,,,,,,,,,,,,,,,,,,,,,,,,,,,,,,,,,,,,,,,,,,,,,,,,,,,,,,,,,,,,0.095,,,,,,,,,,,,,,,,,,,,,,,,,,,,right,0,100,-30,70,1,2954.170059,2954.170059,2954.170059,None,None,2,0,0.3855232,,,,,,,,,,,,,,,,,,,,,,10,22,2,2024-12-26_16h33.59.860,uWM_experiment,2022.2.3,60.00121202
,,,,,,,,,,,,,,,,,,,,10,0,10,0,2,0,2,0,,,,,,,,,,,,,,,,,,,,,,,,,,,,,,,,,,,,,,,,,,,,,,,,,,,,,,,,,,,,,,,,,,,,,,0.085,,,,,,,,,,,,,,,,,,,,,,,,,,,,left,0,70,30,100,1,2960.437009,2960.437009,2960.437009,None,None,2,0,0.3506699,,,,,,,,,,,,,,,,,,,,,,10,22,2,2024-12-26_16h33.59.860,uWM_experiment,2022.2.3,60.00121202
,,,,,,,,,,,,,,,,,,,,10,0,10,0,3,0,3,0,,,,,,,,,,,,,,,,,,,,,,,,,,,,,,,,,,,,,,,,,,,,,,,,,,,,,,,,,,,,,,,,,,,,,,0.075,,,,,,,,,,,,,,,,,,,,,,,,,,,,left,1,160,-30,130,1,2966.553962,2966.553962,2966.553962,None,None,2,0,0.553643,,,,,,,,,,,,,,,,,,,,,,10,22,2,2024-12-26_16h33.59.860,uWM_experiment,2022.2.3,60.00121202
,,,,,,,,,,,,,,,,,,,,10,0,10,0,4,0,4,0,,,,,,,,,,,,,,,,,,,,,,,,,,,,,,,,,,,,,,,,,,,,,,,,,,,,,,,,,,,,,,,,,,,,,,0.065,,,,,,,,,,,,,,,,,,,,,,,,,,,,right,0,70,-30,40,1,2972.604252,2972.604252,2972.604252,None,None,2,0,0.2713221,,,,,,,,,,,,,,,,,,,,,,10,22,2,2024-12-26_16h33.59.860,uWM_experiment,2022.2.3,60.00121202
,,,,,,,,,,,,,,,,,,,,10,0,10,0,5,0,5,0,,,,,,,,,,,,,,,,,,,,,,,,,,,,,,,,,,,,,,,,,,,,,,,,,,,,,,,,,,,,,,,,,,,,,,0,,,,,,,,,,,,,,,,,,,,,,,,,,,,left,1,130,-30,100,0,2978.38786,2978.38786,2978.38786,None,None,1,1,0.4398614,,,,,,,,,,,,,,,,,,,,,,10,22,2,2024-12-26_16h33.59.860,uWM_experiment,2022.2.3,60.00121202
,,,,,,,,,,,,,,,,,,,,10,0,10,0,6,0,6,0,,,,,,,,,,,,,,,,,,,,,,,,,,,,,,,,,,,,,,,,,,,,,,,,,,,,,,,,,,,,,,,,,,,,,,0.055,,,,,,,,,,,,,,,,,,,,,,,,,,,,left,1,10,-30,-20,1,2984.304742,2984.304742,2984.304742,None,None,1,1,0.2589764,,,,,,,,,,,,,,,,,,,,,,10,22,2,2024-12-26_16h33.59.860,uWM_experiment,2022.2.3,60.00121202
,,,,,,,,,,,,,,,,,,,,10,0,10,0,7,0,7,0,,,,,,,,,,,,,,,,,,,,,,,,,,,,,,,,,,,,,,,,,,,,,,,,,,,,,,,,,,,,,,,,,,,,,,0.065,,,,,,,,,,,,,,,,,,,,,,,,,,,,right,1,10,30,40,1,2990.055036,2990.055036,2990.055036,None,None,1,1,0.2046114,,,,,,,,,,,,,,,,,,,,,,10,22,2,2024-12-26_16h33.59.860,uWM_experiment,2022.2.3,60.00121202
,,,,,,,,,,,,,,,,,,,,10,0,10,0,8,0,8,0,,,,,,,,,,,,,,,,,,,,,,,,,,,,,,,,,,,,,,,,,,,,,,,,,,,,,,,,,,,,,,,,,,,,,,0.075,,,,,,,,,,,,,,,,,,,,,,,,,,,,left,0,130,30,160,1,2995.655307,2995.655307,2995.655307,None,None,1,1,0.2763627,,,,,,,,,,,,,,,,,,,,,,10,22,2,2024-12-26_16h33.59.860,uWM_experiment,2022.2.3,60.00121202
,,,,,,,,,,,,,,,,,,,,10,0,10,0,9,0,9,0,,,,,,,,,,,,,,,,,,,,,,,,,,,,,,,,,,,,,,,,,,,,,,,,,,,,,,,,,,,,,,,,,,,,,,0,,,,,,,,,,,,,,,,,,,,,,,,,,,,right,0,100,-30,70,0,3001.488853,3001.488853,3001.488853,None,None,1,1,0.2187733,,,,,,,,,,,,,,,,,,,,,,10,22,2,2024-12-26_16h33.59.860,uWM_experiment,2022.2.3,60.00121202
,,,,,,,,,,,,,,,,,,,,10,0,10,0,10,0,10,0,,,,,,,,,,,,,,,,,,,,,,,,,,,,,,,,,,,,,,,,,,,,,,,,,,,,,,,,,,,,,,,,,,,,,,0.085,,,,,,,,,,,,,,,,,,,,,,,,,,,,left,0,70,30,100,1,3007.239144,3007.239144,3007.239144,None,None,1,1,0.2365045,,,,,,,,,,,,,,,,,,,,,,10,22,2,2024-12-26_16h33.59.860,uWM_experiment,2022.2.3,60.00121202
,,,,,,,,,,,,,,,,,,,,10,0,10,0,11,0,11,0,,,,,,,,,,,,,,,,,,,,,,,,,,,,,,,,,,,,,,,,,,,,,,,,,,,,,,,,,,,,,,,,,,,,,,0.095,,,,,,,,,,,,,,,,,,,,,,,,,,,,right,1,40,30,70,1,3012.92272,3012.92272,3012.92272,None,None,1,1,0.2490812,,,,,,,,,,,,,,,,,,,,,,10,22,2,2024-12-26_16h33.59.860,uWM_experiment,2022.2.3,60.00121202
,,,,,,,,,,,,,,,,,,,,10,0,10,0,12,0,12,0,,,,,,,,,,,,,,,,,,,,,,,,,,,,,,,,,,,,,,,,,,,,,,,,,,,,,,,,,,,,,,,,,,,,,,0.105,,,,,,,,,,,,,,,,,,,,,,,,,,,,right,0,70,-30,40,1,3018.989681,3018.989681,3018.989681,None,None,1,1,0.2540215,,,,,,,,,,,,,,,,,,,,,,10,22,2,2024-12-26_16h33.59.860,uWM_experiment,2022.2.3,60.00121202
,,,,,,,,,,,,,,,,,,,,10,0,10,0,13,0,13,0,,,,,,,,,,,,,,,,,,,,,,,,,,,,,,,,,,,,,,,,,,,,,,,,,,,,,,,,,,,,,,,,,,,,,,0.115,,,,,,,,,,,,,,,,,,,,,,,,,,,,right,0,100,-30,70,1,3024.773251,3024.773251,3024.773251,None,None,1,1,0.2944804,,,,,,,,,,,,,,,,,,,,,,10,22,2,2024-12-26_16h33.59.860,uWM_experiment,2022.2.3,60.00121202
,,,,,,,,,,,,,,,,,,,,10,0,10,0,14,0,14,0,,,,,,,,,,,,,,,,,,,,,,,,,,,,,,,,,,,,,,,,,,,,,,,,,,,,,,,,,,,,,,,,,,,,,,0,,,,,,,,,,,,,,,,,,,,,,,,,,,,right,1,10,30,40,0,3031.090214,3031.090214,3031.090214,None,None,1,1,0.345517,,,,,,,,,,,,,,,,,,,,,,10,22,2,2024-12-26_16h33.59.860,uWM_experiment,2022.2.3,60.00121202
,,,,,,,,,,,,,,,,,,,,10,0,10,0,15,0,15,0,,,,,,,,,,,,,,,,,,,,,,,,,,,,,,,,,,,,,,,,,,,,,,,,,,,,,,,,,,,,,,,,,,,,,,0.125,,,,,,,,,,,,,,,,,,,,,,,,,,,,left,1,130,-30,100,1,3037.890516,3037.890516,3037.890516,None,None,1,1,0.2011854,,,,,,,,,,,,,,,,,,,,,,10,22,2,2024-12-26_16h33.59.860,uWM_experiment,2022.2.3,60.00121202
,,,,,,,,,,,,,,,,,,,,10,0,10,0,16,0,16,0,,,,,,,,,,,,,,,,,,,,,,,,,,,,,,,,,,,,,,,,,,,,,,,,,,,,,,,,,,,,,,,,,,,,,,0.1,,,,,,,,,,,,,,,,,,,,,,,,,,,,left,1,130,-30,100,2,3043.924124,3043.924124,3043.924124,None,None,1,1,0.2156296,,,,,,,,,,,,,,,,,,,,,,10,22,2,2024-12-26_16h33.59.860,uWM_experiment,2022.2.3,60.00121202
,,,,,,,,,,,,,,,,,,,,10,0,10,0,17,0,17,0,,,,,,,,,,,,,,,,,,,,,,,,,,,,,,,,,,,,,,,,,,,,,,,,,,,,,,,,,,,,,,,,,,,,,,0,,,,,,,,,,,,,,,,,,,,,,,,,,,,right,0,100,-30,70,0,3050.29106,3050.29106,3050.29106,None,None,1,1,0.1446596,,,,,,,,,,,,,,,,,,,,,,10,22,2,2024-12-26_16h33.59.860,uWM_experiment,2022.2.3,60.00121202
