PreTrainingPAS4_loop.thisRepN,PreTrainingPAS4_loop.thisTrialN,PreTrainingPAS4_loop.thisN,PreTrainingPAS4_loop.thisIndex,PreTrainingPAS1_loop.thisRepN,PreTrainingPAS1_loop.thisTrialN,PreTrainingPAS1_loop.thisN,PreTrainingPAS1_loop.thisIndex,RepeatCV_loop.thisRepN,RepeatCV_loop.thisTrialN,RepeatCV_loop.thisN,RepeatCV_loop.thisIndex,TrainingCV_loop.thisRepN,TrainingCV_loop.thisTrialN,TrainingCV_loop.thisN,TrainingCV_loop.thisIndex,TrainingCAL_loop.thisRepN,TrainingCAL_loop.thisTrialN,TrainingCAL_loop.thisN,TrainingCAL_loop.thisIndex,blocks_loop.thisRepN,blocks_loop.thisTrialN,blocks_loop.thisN,blocks_loop.thisIndex,trials_loop.thisRepN,trials_loop.thisTrialN,trials_loop.thisN,trials_loop.thisIndex,TrainingPAS1_loop.thisRepN,TrainingPAS1_loop.thisTrialN,TrainingPAS1_loop.thisN,TrainingPAS1_loop.thisIndex,spacebarWelcome0.started,spacebarWelcome0.keys,spacebarWelcome0.rt,spacebarWelcome1.started,gaborWelcome1.started,maskWelcome1.started,textMaskWelcome1.started,spacebarWelcome1.keys,spacebarWelcome1.rt,spacebarWelcome2.started,spacebarWelcome2.keys,spacebarWelcome2.rt,textInst_PreTrainingPAS4.started,spacebarPreTrainingPAS4.started,spacebarPreTrainingPAS4.keys,spacebarPreTrainingPAS4.rt,textPreTrainingPAS1.started,spacebarPreTrainingPAS1.started,spacebarPreTrainingPAS1.keys,spacebarPreTrainingPAS1.rt,textQUEST0.started,spacebarQUEST0.started,spacebarQUEST0.keys,spacebarQUEST0.rt,spacebar0.started,spacebar0.keys,spacebar0.rt,spacebar1.started,spacebar1.keys,spacebar1.rt,textInstructions2.started,spacebar2.started,Gabor1Inst2.started,Gabor2Inst2.started,Gabor3Inst2.started,Gabor4Inst2.started,spacebar2.keys,spacebar2.rt,textInstructionsPAS.started,spacebarInstPAS.started,spacebarInstPAS.keys,spacebarInstPAS.rt,textInstructions3.started,spacebar3.started,spacebar3.keys,spacebar3.rt,WMresp_CV,WMresp_CV_acc,oriMemo_CV,gyre_CV,oriTest_CV,feedbackText.started,feedbackText.stopped,sliderCV.started,PAStextCV.started,PASkeyCV.started,sliderCV.response,sliderCV.rt,PASkeyCV.keys,PASkeyCV.corr,PASkeyCV.rt,TextInstructionsCAL.started,spacebarCAL.started,spacebarCAL.keys,spacebarCAL.rt,contrast,WMresp_CAL,WMresp_CAL_acc,oriMemo_CAL,gyre_CAL,oriTest_CAL,cue_CAL,sliderCAL.started,PAStextCAL.started,PASkeyCAL.started,sliderCAL.response,sliderCAL.rt,PASkeyCAL.keys,PASkeyCAL.corr,PASkeyCAL.rt,propUnseen_CAL,textStart.started,spacebar4.started,spacebar4.keys,spacebar4.rt,three.started,three.stopped,two.started,two.stopped,one.started,one.stopped,blank_countdown.started,blank_countdown.stopped,WMresp,WMresp_acc,oriMemo,gyre,oriTest,cue,slider.started,textPAS_firstGabor.started,PASkey.started,slider.response,slider.rt,PASkey.keys,PASkey.corr,PASkey.rt,spacebarContinue.started,textBreak.started,spacebarContinue.keys,spacebarContinue.rt,spacebar_reminder.keys,spacebar_TrainingPAS1.keys,spacebar_endpractice.keys,spacebar_reminder.started,textReminder.started,spacebar_reminder.rt,textInst_TrainingPAS1.started,spacebar_TrainingPAS1.started,spacebar_TrainingPAS1.rt,textend_practicePAS1.started,spacebar_endpractice.started,spacebar_endpractice.rt,textThanks.started,textThanks.stopped,laboratory,participant,session,date,expName,psychopyVersion,frameRate
,,,,,,,,,,,,,,,,,,,,,,,,,,,,,,,,174.17426,space,8.251461,,,,,,,,,,,,,,,,,,,,,,,,,,,,,,,,,,,,,,,,,,,,,,,,,,,,,,,,,,,,,,,,,,,,,,,,,,,,,,,,,,,,,,,,,,,,,,,,,,,,,,,,,,,,,,,,,,,,,,,,,,,10,2,1,2024-10-06_21h13.13.981,uWM_experiment,2022.2.3,59.99854803
,,,,,,,,,,,,,,,,,,,,,,,,,,,,,,,,,,,182.4743033,182.4743033,182.4743033,182.4743033,space,43.5594904,,,,,,,,,,,,,,,,,,,,,,,,,,,,,,,,,,,,,,,,,,,,,,,,,,,,,,,,,,,,,,,,,,,,,,,,,,,,,,,,,,,,,,,,,,,,,,,,,,,,,,,,,,,,,,,,,,,,,10,2,1,2024-10-06_21h13.13.981,uWM_experiment,2022.2.3,59.99854803
,,,,,,,,,,,,,,,,,,,,,,,,,,,,,,,,,,,,,,,,,226.0595019,space,53.1822756,,,,,,,,,,,,,,,,,,,,,,,,,,,,,,,,,,,,,,,,,,,,,,,,,,,,,,,,,,,,,,,,,,,,,,,,,,,,,,,,,,,,,,,,,,,,,,,,,,,,,,,,,,,,,,,,,,10,2,1,2024-10-06_21h13.13.981,uWM_experiment,2022.2.3,59.99854803
,,,,,,,,,,,,,,,,,,,,,,,,,,,,,,,,,,,,,,,,,,,,279.2618132,279.2618132,space,11.6359636,,,,,,,,,,,,,,,,,,,,,,,,,,,,,,,,,,,,,,,,,,,,,,,,,,,,,,,,,,,,,,,,,,,,,,,,,,,,,,,,,,,,,,,,,,,,,,,,,,,,,,,,,,,,,,10,2,1,2024-10-06_21h13.13.981,uWM_experiment,2022.2.3,59.99854803
0,0,0,0,,,,,,,,,,,,,,,,,,,,,,,,,,,,,,,,,,,,,,,,,,,,,,,,,,,,,,,,,,,,,,,,,,,,,,,,,,,,,,,,,,,,,,,,,,,,,,,,,,,,,,,,,,,,,,,,,,,,,,,,,,,,,,,,,,,,,,,,,,,,,,,,,,,,,,,,,,10,2,1,2024-10-06_21h13.13.981,uWM_experiment,2022.2.3,59.99854803
1,0,1,0,,,,,,,,,,,,,,,,,,,,,,,,,,,,,,,,,,,,,,,,,,,,,,,,,,,,,,,,,,,,,,,,,,,,,,,,,,,,,,,,,,,,,,,,,,,,,,,,,,,,,,,,,,,,,,,,,,,,,,,,,,,,,,,,,,,,,,,,,,,,,,,,,,,,,,,,,,10,2,1,2024-10-06_21h13.13.981,uWM_experiment,2022.2.3,59.99854803
2,0,2,0,,,,,,,,,,,,,,,,,,,,,,,,,,,,,,,,,,,,,,,,,,,,,,,,,,,,,,,,,,,,,,,,,,,,,,,,,,,,,,,,,,,,,,,,,,,,,,,,,,,,,,,,,,,,,,,,,,,,,,,,,,,,,,,,,,,,,,,,,,,,,,,,,,,,,,,,,,10,2,1,2024-10-06_21h13.13.981,uWM_experiment,2022.2.3,59.99854803
,,,,,,,,,,,,,,,,,,,,,,,,,,,,,,,,,,,,,,,,,,,,,,,,307.6130424,307.6130424,space,14.8607059,,,,,,,,,,,,,,,,,,,,,,,,,,,,,,,,,,,,,,,,,,,,,,,,,,,,,,,,,,,,,,,,,,,,,,,,,,,,,,,,,,,,,,,,,,,,,,,,,,,,,,,,,,10,2,1,2024-10-06_21h13.13.981,uWM_experiment,2022.2.3,59.99854803
,,,,0,0,0,0,,,,,,,,,,,,,,,,,,,,,,,,,,,,,,,,,,,,,,,,,,,,,,,,,,,,,,,,,,,,,,,,,,,,,,,,,,,,,,,,,,,,,,,,,,,,,,,,,,,,,,,,,,,,,,,,,,,,,,,,,,,,,,,,,,,,,,,,,,,,,,,,,,,,,,10,2,1,2024-10-06_21h13.13.981,uWM_experiment,2022.2.3,59.99854803
,,,,1,0,1,0,,,,,,,,,,,,,,,,,,,,,,,,,,,,,,,,,,,,,,,,,,,,,,,,,,,,,,,,,,,,,,,,,,,,,,,,,,,,,,,,,,,,,,,,,,,,,,,,,,,,,,,,,,,,,,,,,,,,,,,,,,,,,,,,,,,,,,,,,,,,,,,,,,,,,,10,2,1,2024-10-06_21h13.13.981,uWM_experiment,2022.2.3,59.99854803
,,,,2,0,2,0,,,,,,,,,,,,,,,,,,,,,,,,,,,,,,,,,,,,,,,,,,,,,,,,,,,,,,,,,,,,,,,,,,,,,,,,,,,,,,,,,,,,,,,,,,,,,,,,,,,,,,,,,,,,,,,,,,,,,,,,,,,,,,,,,,,,,,,,,,,,,,,,,,,,,,10,2,1,2024-10-06_21h13.13.981,uWM_experiment,2022.2.3,59.99854803
,,,,,,,,,,,,,,,,,,,,,,,,,,,,,,,,,,,,,,,,,,,,,,,,,,,,329.5806848,329.5806848,space,44.9169153,,,,,,,,,,,,,,,,,,,,,,,,,,,,,,,,,,,,,,,,,,,,,,,,,,,,,,,,,,,,,,,,,,,,,,,,,,,,,,,,,,,,,,,,,,,,,,,,,,,,,,10,2,1,2024-10-06_21h13.13.981,uWM_experiment,2022.2.3,59.99854803
,,,,,,,,,,,,,,,,,,,,,,,,,,,,,,,,,,,,,,,,,,,,,,,,,,,,,,,,577.4414671,space,18.4722267,,,,,,,,,,,,,,,,,,,,,,,,,,,,,,,,,,,,,,,,,,,,,,,,,,,,,,,,,,,,,,,,,,,,,,,,,,,,,,,,,,,,,,,,,,,,,,,,,,,10,2,1,2024-10-06_21h13.13.981,uWM_experiment,2022.2.3,59.99854803
,,,,,,,,,,,,,,,,,,,,,,,,,,,,,,,,,,,,,,,,,,,,,,,,,,,,,,,,,,,595.9422683,space,263.7154114,,,,,,,,,,,,,,,,,,,,,,,,,,,,,,,,,,,,,,,,,,,,,,,,,,,,,,,,,,,,,,,,,,,,,,,,,,,,,,,,,,,,,,,,,,,,,,,,10,2,1,2024-10-06_21h13.13.981,uWM_experiment,2022.2.3,59.99854803
,,,,,,,,,,,,,,,,,,,,,,,,,,,,,,,,,,,,,,,,,,,,,,,,,,,,,,,,,,,,,,859.6871525,859.6871525,859.6871525,859.6871525,859.6871525,859.6871525,space,52.6504357,,,,,,,,,,,,,,,,,,,,,,,,,,,,,,,,,,,,,,,,,,,,,,,,,,,,,,,,,,,,,,,,,,,,,,,,,,,,,,,,,,,,,,,,10,2,1,2024-10-06_21h13.13.981,uWM_experiment,2022.2.3,59.99854803
,,,,,,,,,,,,,,,,,,,,,,,,,,,,,,,,,,,,,,,,,,,,,,,,,,,,,,,,,,,,,,,,,,,,,,912.3561549,912.3561549,space,112.2054489,,,,,,,,,,,,,,,,,,,,,,,,,,,,,,,,,,,,,,,,,,,,,,,,,,,,,,,,,,,,,,,,,,,,,,,,,,,,,,,,,,,,10,2,1,2024-10-06_21h13.13.981,uWM_experiment,2022.2.3,59.99854803
,,,,,,,,,,,,,,,,,,,,,,,,,,,,,,,,,,,,,,,,,,,,,,,,,,,,,,,,,,,,,,,,,,,,,,,,,,1024.594386,1024.594386,space,63.5912148,,,,,,,,,,,,,,,,,,,,,,,,,,,,,,,,,,,,,,,,,,,,,,,,,,,,,,,,,,,,,,,,,,,,,,,,,,,,,,,,10,2,1,2024-10-06_21h13.13.981,uWM_experiment,2022.2.3,59.99854803
,,,,,,,,0,0,0,0,0,0,0,0,,,,,,,,,,,,,,,,,,,,,,,,,,,,,,,,,,,,,,,,,,,,,,,,,,,,,,,,,,,,,,,right,1,70,30,100,1103.047812,1104.047833,1104.047833,1104.047833,1104.047833,None,None,4,0,9.5375377,,,,,,,,,,,,,,,,,,,,,,,,,,,,,,,,,,,,,,,,,,,,,,,,,,,,,,,,,,,,,,,,,10,2,1,2024-10-06_21h13.13.981,uWM_experiment,2022.2.3,59.99854803
,,,,,,,,0,0,0,0,1,0,1,0,,,,,,,,,,,,,,,,,,,,,,,,,,,,,,,,,,,,,,,,,,,,,,,,,,,,,,,,,,,,,,,left,0,160,30,190,1144.43294,,1145.432954,1145.432954,1145.432954,None,None,4,0,5.3843781,,,,,,,,,,,,,,,,,,,,,,,,,,,,,,,,,,,,,,,,,,,,,,,,,,,,,,,,,,,,,,,,,10,2,1,2024-10-06_21h13.13.981,uWM_experiment,2022.2.3,59.99854803
,,,,,,,,0,0,0,0,2,0,2,0,,,,,,,,,,,,,,,,,,,,,,,,,,,,,,,,,,,,,,,,,,,,,,,,,,,,,,,,,,,,,,,right,1,40,30,70,1162.61707,1163.617091,1163.617091,1163.617091,1163.617091,None,None,4,0,2.7284813,,,,,,,,,,,,,,,,,,,,,,,,,,,,,,,,,,,,,,,,,,,,,,,,,,,,,,,,,,,,,,,,,10,2,1,2024-10-06_21h13.13.981,uWM_experiment,2022.2.3,59.99854803
,,,,,,,,0,0,0,0,3,0,3,0,,,,,,,,,,,,,,,,,,,,,,,,,,,,,,,,,,,,,,,,,,,,,,,,,,,,,,,,,,,,,,,left,0,40,30,70,1178.534392,1179.534452,1179.534452,1179.534452,1179.534452,None,None,4,0,3.4429381,,,,,,,,,,,,,,,,,,,,,,,,,,,,,,,,,,,,,,,,,,,,,,,,,,,,,,,,,,,,,,,,,10,2,1,2024-10-06_21h13.13.981,uWM_experiment,2022.2.3,59.99854803
,,,,,,,,0,0,0,0,4,0,4,0,,,,,,,,,,,,,,,,,,,,,,,,,,,,,,,,,,,,,,,,,,,,,,,,,,,,,,,,,,,,,,,right,0,100,-30,70,1189.901564,1190.901596,1190.901596,1190.901596,1190.901596,None,None,4,0,1.779952,,,,,,,,,,,,,,,,,,,,,,,,,,,,,,,,,,,,,,,,,,,,,,,,,,,,,,,,,,,,,,,,,10,2,1,2024-10-06_21h13.13.981,uWM_experiment,2022.2.3,59.99854803
,,,,,,,,0,0,0,0,5,0,5,0,,,,,,,,,,,,,,,,,,,,,,,,,,,,,,,,,,,,,,,,,,,,,,,,,,,,,,,,,,,,,,,left,0,100,30,130,1222.319663,1223.319683,1223.319683,1223.319683,1223.319683,None,None,2,0,7.3536877,,,,,,,,,,,,,,,,,,,,,,,,,,,,,,,,,,,,,,,,,,,,,,,,,,,,,,,,,,,,,,,,,10,2,1,2024-10-06_21h13.13.981,uWM_experiment,2022.2.3,59.99854803
,,,,,,,,0,0,0,0,6,0,6,0,,,,,,,,,,,,,,,,,,,,,,,,,,,,,,,,,,,,,,,,,,,,,,,,,,,,,,,,,,,,,,,right,1,130,30,160,1238.05368,1239.053706,1239.053706,1239.053706,1239.053706,None,None,4,0,1.3638275,,,,,,,,,,,,,,,,,,,,,,,,,,,,,,,,,,,,,,,,,,,,,,,,,,,,,,,,,,,,,,,,,10,2,1,2024-10-06_21h13.13.981,uWM_experiment,2022.2.3,59.99854803
,,,,,,,,0,0,0,0,7,0,7,0,,,,,,,,,,,,,,,,,,,,,,,,,,,,,,,,,,,,,,,,,,,,,,,,,,,,,,,,,,,,,,,left,1,130,-30,100,1262.671416,1263.671458,1263.671458,1263.671458,1263.671458,None,None,4,0,1.074068,,,,,,,,,,,,,,,,,,,,,,,,,,,,,,,,,,,,,,,,,,,,,,,,,,,,,,,,,,,,,,,,,10,2,1,2024-10-06_21h13.13.981,uWM_experiment,2022.2.3,59.99854803
,,,,,,,,0,0,0,0,8,0,8,0,,,,,,,,,,,,,,,,,,,,,,,,,,,,,,,,,,,,,,,,,,,,,,,,,,,,,,,,,,,,,,,left,1,40,-30,10,1272.038467,1273.038515,1273.038515,1273.038515,1273.038515,None,None,4,0,0.9387765,,,,,,,,,,,,,,,,,,,,,,,,,,,,,,,,,,,,,,,,,,,,,,,,,,,,,,,,,,,,,,,,,10,2,1,2024-10-06_21h13.13.981,uWM_experiment,2022.2.3,59.99854803
,,,,,,,,0,0,0,0,9,0,9,0,,,,,,,,,,,,,,,,,,,,,,,,,,,,,,,,,,,,,,,,,,,,,,,,,,,,,,,,,,,,,,,right,0,100,-30,70,1283.055636,1284.05566,1284.05566,1284.05566,1284.05566,None,None,4,0,6.9138117,,,,,,,,,,,,,,,,,,,,,,,,,,,,,,,,,,,,,,,,,,,,,,,,,,,,,,,,,,,,,,,,,10,2,1,2024-10-06_21h13.13.981,uWM_experiment,2022.2.3,59.99854803
,,,,,,,,0,0,0,0,10,0,10,0,,,,,,,,,,,,,,,,,,,,,,,,,,,,,,,,,,,,,,,,,,,,,,,,,,,,,,,,,,,,,,,right,1,160,30,190,1297.189585,1298.189611,1298.189611,1298.189611,1298.189611,None,None,4,0,0.3637385,,,,,,,,,,,,,,,,,,,,,,,,,,,,,,,,,,,,,,,,,,,,,,,,,,,,,,,,,,,,,,,,,10,2,1,2024-10-06_21h13.13.981,uWM_experiment,2022.2.3,59.99854803
,,,,,,,,0,0,0,0,11,0,11,0,,,,,,,,,,,,,,,,,,,,,,,,,,,,,,,,,,,,,,,,,,,,,,,,,,,,,,,,,,,,,,,right,1,10,30,40,1306.423338,1307.423367,1307.423367,1307.423367,1307.423367,None,None,4,0,0.1780653,,,,,,,,,,,,,,,,,,,,,,,,,,,,,,,,,,,,,,,,,,,,,,,,,,,,,,,,,,,,,,,,,10,2,1,2024-10-06_21h13.13.981,uWM_experiment,2022.2.3,59.99854803
,,,,,,,,0,0,0,0,,,,,,,,,,,,,,,,,,,,,,,,,,,,,,,,,,,,,,,,,,,,,,,,,,,,,,,,,,,,,,,,,,,,,,,,,,,,,,,,,,,,,,,,,,,,,,,,,,,,,,,,,,,,,,,,,,,,,,,,,,,,,,,,,,,,,,,,,,,,,,,,,,10,2,1,2024-10-06_21h13.13.981,uWM_experiment,2022.2.3,59.99854803
,,,,,,,,1,0,1,0,0,0,0,0,,,,,,,,,,,,,,,,,,,,,,,,,,,,,,,,,,,,,,,,,,,,,,,,,,,,,,,,,,,,,,,left,1,130,-30,100,1329.257646,1330.257672,1330.257672,1330.257672,1330.257672,None,None,4,0,1.0318627,,,,,,,,,,,,,,,,,,,,,,,,,,,,,,,,,,,,,,,,,,,,,,,,,,,,,,,,,,,,,,,,,10,2,1,2024-10-06_21h13.13.981,uWM_experiment,2022.2.3,59.99854803
,,,,,,,,1,0,1,0,1,0,1,0,,,,,,,,,,,,,,,,,,,,,,,,,,,,,,,,,,,,,,,,,,,,,,,,,,,,,,,,,,,,,,,left,1,10,-30,-20,1337.374669,1338.374727,1338.374727,1338.374727,1338.374727,None,None,4,0,1.5466865,,,,,,,,,,,,,,,,,,,,,,,,,,,,,,,,,,,,,,,,,,,,,,,,,,,,,,,,,,,,,,,,,10,2,1,2024-10-06_21h13.13.981,uWM_experiment,2022.2.3,59.99854803
,,,,,,,,1,0,1,0,2,0,2,0,,,,,,,,,,,,,,,,,,,,,,,,,,,,,,,,,,,,,,,,,,,,,,,,,,,,,,,,,,,,,,,left,1,10,-30,-20,1345.958353,1346.958422,1346.958422,1346.958422,1346.958422,None,None,4,0,0.586868,,,,,,,,,,,,,,,,,,,,,,,,,,,,,,,,,,,,,,,,,,,,,,,,,,,,,,,,,,,,,,,,,10,2,1,2024-10-06_21h13.13.981,uWM_experiment,2022.2.3,59.99854803
,,,,,,,,1,0,1,0,3,0,3,0,,,,,,,,,,,,,,,,,,,,,,,,,,,,,,,,,,,,,,,,,,,,,,,,,,,,,,,,,,,,,,,right,0,70,-30,40,1354.875409,,1355.875476,1355.875476,1355.875476,None,None,4,0,1.0058116,,,,,,,,,,,,,,,,,,,,,,,,,,,,,,,,,,,,,,,,,,,,,,,,,,,,,,,,,,,,,,,,,10,2,1,2024-10-06_21h13.13.981,uWM_experiment,2022.2.3,59.99854803
,,,,,,,,1,0,1,0,4,0,4,0,,,,,,,,,,,,,,,,,,,,,,,,,,,,,,,,,,,,,,,,,,,,,,,,,,,,,,,,,,,,,,,left,0,70,30,100,1362.892446,1363.89248,1363.89248,1363.89248,1363.89248,None,None,2,0,36.420786,,,,,,,,,,,,,,,,,,,,,,,,,,,,,,,,,,,,,,,,,,,,,,,,,,,,,,,,,,,,,,,,,10,2,1,2024-10-06_21h13.13.981,uWM_experiment,2022.2.3,59.99854803
,,,,,,,,1,0,1,0,5,0,5,0,,,,,,,,,,,,,,,,,,,,,,,,,,,,,,,,,,,,,,,,,,,,,,,,,,,,,,,,,,,,,,,left,1,130,-30,100,1406.644356,1407.644369,1407.644369,1407.644369,1407.644369,None,None,4,0,0.51712,,,,,,,,,,,,,,,,,,,,,,,,,,,,,,,,,,,,,,,,,,,,,,,,,,,,,,,,,,,,,,,,,10,2,1,2024-10-06_21h13.13.981,uWM_experiment,2022.2.3,59.99854803
,,,,,,,,1,0,1,0,6,0,6,0,,,,,,,,,,,,,,,,,,,,,,,,,,,,,,,,,,,,,,,,,,,,,,,,,,,,,,,,,,,,,,,right,1,160,30,190,1414.211345,1415.211369,1415.211369,1415.211369,1415.211369,None,None,4,0,0.3499708,,,,,,,,,,,,,,,,,,,,,,,,,,,,,,,,,,,,,,,,,,,,,,,,,,,,,,,,,,,,,,,,,10,2,1,2024-10-06_21h13.13.981,uWM_experiment,2022.2.3,59.99854803
,,,,,,,,1,0,1,0,7,0,7,0,,,,,,,,,,,,,,,,,,,,,,,,,,,,,,,,,,,,,,,,,,,,,,,,,,,,,,,,,,,,,,,left,1,10,-30,-20,1421.328319,1422.328352,1422.328352,1422.328352,1422.328352,None,None,4,0,0.2889644,,,,,,,,,,,,,,,,,,,,,,,,,,,,,,,,,,,,,,,,,,,,,,,,,,,,,,,,,,,,,,,,,10,2,1,2024-10-06_21h13.13.981,uWM_experiment,2022.2.3,59.99854803
,,,,,,,,1,0,1,0,8,0,8,0,,,,,,,,,,,,,,,,,,,,,,,,,,,,,,,,,,,,,,,,,,,,,,,,,,,,,,,,,,,,,,,right,1,160,30,190,1428.428644,,1429.428669,1429.428669,1429.428669,None,None,4,0,0.3166471,,,,,,,,,,,,,,,,,,,,,,,,,,,,,,,,,,,,,,,,,,,,,,,,,,,,,,,,,,,,,,,,,10,2,1,2024-10-06_21h13.13.981,uWM_experiment,2022.2.3,59.99854803
,,,,,,,,1,0,1,0,9,0,9,0,,,,,,,,,,,,,,,,,,,,,,,,,,,,,,,,,,,,,,,,,,,,,,,,,,,,,,,,,,,,,,,right,0,100,-30,70,1435.61228,1436.612285,1436.612285,1436.612285,1436.612285,None,None,4,0,11.5010068,,,,,,,,,,,,,,,,,,,,,,,,,,,,,,,,,,,,,,,,,,,,,,,,,,,,,,,,,,,,,,,,,10,2,1,2024-10-06_21h13.13.981,uWM_experiment,2022.2.3,59.99854803
,,,,,,,,1,0,1,0,10,0,10,0,,,,,,,,,,,,,,,,,,,,,,,,,,,,,,,,,,,,,,,,,,,,,,,,,,,,,,,,,,,,,,,right,1,70,30,100,1454.063081,1455.063084,1455.063084,1455.063084,1455.063084,None,None,4,0,0.5382269,,,,,,,,,,,,,,,,,,,,,,,,,,,,,,,,,,,,,,,,,,,,,,,,,,,,,,,,,,,,,,,,,10,2,1,2024-10-06_21h13.13.981,uWM_experiment,2022.2.3,59.99854803
,,,,,,,,1,0,1,0,11,0,11,0,,,,,,,,,,,,,,,,,,,,,,,,,,,,,,,,,,,,,,,,,,,,,,,,,,,,,,,,,,,,,,,right,0,40,-30,10,1464.69687,1465.696948,1465.696948,1465.696948,1465.696948,None,None,3,0,4.3765328,,,,,,,,,,,,,,,,,,,,,,,,,,,,,,,,,,,,,,,,,,,,,,,,,,,,,,,,,,,,,,,,,10,2,1,2024-10-06_21h13.13.981,uWM_experiment,2022.2.3,59.99854803
,,,,,,,,1,0,1,0,,,,,,,,,,,,,,,,,,,,,,,,,,,,,,,,,,,,,,,,,,,,,,,,,,,,,,,,,,,,,,,,,,,,,,,,,,,,,,,,,,,,,,,,,,,,,,,,,,,,,,,,,,,,,,,,,,,,,,,,,,,,,,,,,,,,,,,,,,,,,,,,,,10,2,1,2024-10-06_21h13.13.981,uWM_experiment,2022.2.3,59.99854803
,,,,,,,,,,,,,,,,,,,,,,,,,,,,,,,,,,,,,,,,,,,,,,,,,,,,,,,,,,,,,,,,,,,,,,,,,,,,,,,,,,,,,,,,,,,,,1470.097084,1470.097084,space,19.200427,,,,,,,,,,,,,,,,,,,,,,,,,,,,,,,,,,,,,,,,,,,,,,,,,,,,,,,,,,,,,10,2,1,2024-10-06_21h13.13.981,uWM_experiment,2022.2.3,59.99854803
,,,,,,,,,,,,,,,,0,0,0,0,,,,,,,,,,,,,,,,,,,,,,,,,,,,,,,,,,,,,,,,,,,,,,,,,,,,,,,,,,,,,,,,,,,,,,,,,,,,,,0.141028411,left,1,40,-30,10,1,1495.064847,1495.064847,1495.064847,None,None,4,0,2.976624,,,,,,,,,,,,,,,,,,,,,,,,,,,,,,,,,,,,,,,,,,,,,,10,2,1,2024-10-06_21h13.13.981,uWM_experiment,2022.2.3,59.99854803
,,,,,,,,,,,,,,,,1,0,1,0,,,,,,,,,,,,,,,,,,,,,,,,,,,,,,,,,,,,,,,,,,,,,,,,,,,,,,,,,,,,,,,,,,,,,,,,,,,,,,0.1,right,1,100,30,130,2,1505.998683,1505.998683,1505.998683,None,None,4,0,1.5467689,0,,,,,,,,,,,,,,,,,,,,,,,,,,,,,,,,,,,,,,,,,,,,,10,2,1,2024-10-06_21h13.13.981,uWM_experiment,2022.2.3,59.99854803
,,,,,,,,,,,,,,,,2,0,2,0,,,,,,,,,,,,,,,,,,,,,,,,,,,,,,,,,,,,,,,,,,,,,,,,,,,,,,,,,,,,,,,,,,,,,,,,,,,,,,0.1,left,1,160,-30,130,2,1513.51566,1513.51566,1513.51566,None,None,4,0,0.5896949,0,,,,,,,,,,,,,,,,,,,,,,,,,,,,,,,,,,,,,,,,,,,,,10,2,1,2024-10-06_21h13.13.981,uWM_experiment,2022.2.3,59.99854803
,,,,,,,,,,,,,,,,3,0,3,0,,,,,,,,,,,,,,,,,,,,,,,,,,,,,,,,,,,,,,,,,,,,,,,,,,,,,,,,,,,,,,,,,,,,,,,,,,,,,,0.131028411,left,0,40,30,70,1,1523.332754,1523.332754,1523.332754,None,None,1,1,3.4684541,0,,,,,,,,,,,,,,,,,,,,,,,,,,,,,,,,,,,,,,,,,,,,,10,2,1,2024-10-06_21h13.13.981,uWM_experiment,2022.2.3,59.99854803
,,,,,,,,,,,,,,,,4,0,4,0,,,,,,,,,,,,,,,,,,,,,,,,,,,,,,,,,,,,,,,,,,,,,,,,,,,,,,,,,,,,,,,,,,,,,,,,,,,,,,0.141028411,right,1,70,30,100,1,1533.533207,1533.533207,1533.533207,None,None,3,0,3.2122763,0.25,,,,,,,,,,,,,,,,,,,,,,,,,,,,,,,,,,,,,,,,,,,,,10,2,1,2024-10-06_21h13.13.981,uWM_experiment,2022.2.3,59.99854803
,,,,,,,,,,,,,,,,5,0,5,0,,,,,,,,,,,,,,,,,,,,,,,,,,,,,,,,,,,,,,,,,,,,,,,,,,,,,,,,,,,,,,,,,,,,,,,,,,,,,,0.1,right,1,10,30,40,2,1543.983649,1543.983649,1543.983649,None,None,4,0,2.1937022,0.2,,,,,,,,,,,,,,,,,,,,,,,,,,,,,,,,,,,,,,,,,,,,,10,2,1,2024-10-06_21h13.13.981,uWM_experiment,2022.2.3,59.99854803
,,,,,,,,,,,,,,,,6,0,6,0,,,,,,,,,,,,,,,,,,,,,,,,,,,,,,,,,,,,,,,,,,,,,,,,,,,,,,,,,,,,,,,,,,,,,,,,,,,,,,0.131028411,right,1,100,30,130,1,1552.184032,1552.184032,1552.184032,None,None,4,0,1.54543,0.166666667,,,,,,,,,,,,,,,,,,,,,,,,,,,,,,,,,,,,,,,,,,,,,10,2,1,2024-10-06_21h13.13.981,uWM_experiment,2022.2.3,59.99854803
,,,,,,,,,,,,,,,,7,0,7,0,,,,,,,,,,,,,,,,,,,,,,,,,,,,,,,,,,,,,,,,,,,,,,,,,,,,,,,,,,,,,,,,,,,,,,,,,,,,,,0.121028411,left,0,10,30,40,1,1560.534369,1560.534369,1560.534369,None,None,4,0,0.7230953,0.142857143,,,,,,,,,,,,,,,,,,,,,,,,,,,,,,,,,,,,,,,,,,,,,10,2,1,2024-10-06_21h13.13.981,uWM_experiment,2022.2.3,59.99854803
,,,,,,,,,,,,,,,,8,0,8,0,,,,,,,,,,,,,,,,,,,,,,,,,,,,,,,,,,,,,,,,,,,,,,,,,,,,,,,,,,,,,,,,,,,,,,,,,,,,,,0.1,left,1,100,-30,70,2,1568.368059,1568.368059,1568.368059,None,None,4,0,0.9453968,0.125,,,,,,,,,,,,,,,,,,,,,,,,,,,,,,,,,,,,,,,,,,,,,10,2,1,2024-10-06_21h13.13.981,uWM_experiment,2022.2.3,59.99854803
,,,,,,,,,,,,,,,,9,0,9,0,,,,,,,,,,,,,,,,,,,,,,,,,,,,,,,,,,,,,,,,,,,,,,,,,,,,,,,,,,,,,,,,,,,,,,,,,,,,,,0.111028411,left,0,130,30,160,1,1577.951812,1577.951812,1577.951812,None,None,3,0,2.8175409,0.111111111,,,,,,,,,,,,,,,,,,,,,,,,,,,,,,,,,,,,,,,,,,,,,10,2,1,2024-10-06_21h13.13.981,uWM_experiment,2022.2.3,59.99854803
,,,,,,,,,,,,,,,,10,0,10,0,,,,,,,,,,,,,,,,,,,,,,,,,,,,,,,,,,,,,,,,,,,,,,,,,,,,,,,,,,,,,,,,,,,,,,,,,,,,,,0.101028411,right,1,130,30,160,1,1587.252205,1587.252205,1587.252205,None,None,3,0,1.1333065,0.1,,,,,,,,,,,,,,,,,,,,,,,,,,,,,,,,,,,,,,,,,,,,,10,2,1,2024-10-06_21h13.13.981,uWM_experiment,2022.2.3,59.99854803
,,,,,,,,,,,,,,,,11,0,11,0,,,,,,,,,,,,,,,,,,,,,,,,,,,,,,,,,,,,,,,,,,,,,,,,,,,,,,,,,,,,,,,,,,,,,,,,,,,,,,0.1,left,0,40,30,70,2,1597.21931,1597.21931,1597.21931,None,None,4,0,2.6619084,0.090909091,,,,,,,,,,,,,,,,,,,,,,,,,,,,,,,,,,,,,,,,,,,,,10,2,1,2024-10-06_21h13.13.981,uWM_experiment,2022.2.3,59.99854803
,,,,,,,,,,,,,,,,12,0,12,0,,,,,,,,,,,,,,,,,,,,,,,,,,,,,,,,,,,,,,,,,,,,,,,,,,,,,,,,,,,,,,,,,,,,,,,,,,,,,,0.091028411,left,1,40,-30,10,1,1606.786401,1606.786401,1606.786401,None,None,3,0,1.8309389,0.083333333,,,,,,,,,,,,,,,,,,,,,,,,,,,,,,,,,,,,,,,,,,,,,10,2,1,2024-10-06_21h13.13.981,uWM_experiment,2022.2.3,59.99854803
,,,,,,,,,,,,,,,,13,0,13,0,,,,,,,,,,,,,,,,,,,,,,,,,,,,,,,,,,,,,,,,,,,,,,,,,,,,,,,,,,,,,,,,,,,,,,,,,,,,,,0.1,left,1,160,-30,130,2,1617.353528,1617.353528,1617.353528,None,None,4,0,2.0079603,0.076923077,,,,,,,,,,,,,,,,,,,,,,,,,,,,,,,,,,,,,,,,,,,,,10,2,1,2024-10-06_21h13.13.981,uWM_experiment,2022.2.3,59.99854803
,,,,,,,,,,,,,,,,14,0,14,0,,,,,,,,,,,,,,,,,,,,,,,,,,,,,,,,,,,,,,,,,,,,,,,,,,,,,,,,,,,,,,,,,,,,,,,,,,,,,,0.081028411,right,0,130,-30,100,1,1625.90387,1625.90387,1625.90387,None,None,3,0,1.3134559,0.071428571,,,,,,,,,,,,,,,,,,,,,,,,,,,,,,,,,,,,,,,,,,,,,10,2,1,2024-10-06_21h13.13.981,uWM_experiment,2022.2.3,59.99854803
,,,,,,,,,,,,,,,,15,0,15,0,,,,,,,,,,,,,,,,,,,,,,,,,,,,,,,,,,,,,,,,,,,,,,,,,,,,,,,,,,,,,,,,,,,,,,,,,,,,,,0.1,left,1,100,-30,70,2,1638.521101,1638.521101,1638.521101,None,None,4,0,2.3361103,0.066666667,,,,,,,,,,,,,,,,,,,,,,,,,,,,,,,,,,,,,,,,,,,,,10,2,1,2024-10-06_21h13.13.981,uWM_experiment,2022.2.3,59.99854803
,,,,,,,,,,,,,,,,16,0,16,0,,,,,,,,,,,,,,,,,,,,,,,,,,,,,,,,,,,,,,,,,,,,,,,,,,,,,,,,,,,,,,,,,,,,,,,,,,,,,,0.1,right,1,160,30,190,2,1649.621561,1649.621561,1649.621561,None,None,3,0,2.0917623,0.0625,,,,,,,,,,,,,,,,,,,,,,,,,,,,,,,,,,,,,,,,,,,,,10,2,1,2024-10-06_21h13.13.981,uWM_experiment,2022.2.3,59.99854803
,,,,,,,,,,,,,,,,17,0,17,0,,,,,,,,,,,,,,,,,,,,,,,,,,,,,,,,,,,,,,,,,,,,,,,,,,,,,,,,,,,,,,,,,,,,,,,,,,,,,,0.071028411,left,1,130,-30,100,1,1661.1221,1661.1221,1661.1221,None,None,1,1,1.6793426,0.058823529,,,,,,,,,,,,,,,,,,,,,,,,,,,,,,,,,,,,,,,,,,,,,10,2,1,2024-10-06_21h13.13.981,uWM_experiment,2022.2.3,59.99854803
,,,,,,,,,,,,,,,,18,0,18,0,,,,,,,,,,,,,,,,,,,,,,,,,,,,,,,,,,,,,,,,,,,,,,,,,,,,,,,,,,,,,,,,,,,,,,,,,,,,,,0.081028411,right,1,70,30,100,1,1668.855757,1668.855757,1668.855757,None,None,2,0,2.977566,0.111111111,,,,,,,,,,,,,,,,,,,,,,,,,,,,,,,,,,,,,,,,,,,,,10,2,1,2024-10-06_21h13.13.981,uWM_experiment,2022.2.3,59.99854803
,,,,,,,,,,,,,,,,19,0,19,0,,,,,,,,,,,,,,,,,,,,,,,,,,,,,,,,,,,,,,,,,,,,,,,,,,,,,,,,,,,,,,,,,,,,,,,,,,,,,,0.1,right,0,10,-30,-20,2,1680.672923,1680.672923,1680.672923,None,None,4,0,2.2323952,0.105263158,,,,,,,,,,,,,,,,,,,,,,,,,,,,,,,,,,,,,,,,,,,,,10,2,1,2024-10-06_21h13.13.981,uWM_experiment,2022.2.3,59.99854803
,,,,,,,,,,,,,,,,20,0,20,0,,,,,,,,,,,,,,,,,,,,,,,,,,,,,,,,,,,,,,,,,,,,,,,,,,,,,,,,,,,,,,,,,,,,,,,,,,,,,,0.1,right,0,10,-30,-20,2,1691.323579,1691.323579,1691.323579,None,None,4,0,1.7258398,0.1,,,,,,,,,,,,,,,,,,,,,,,,,,,,,,,,,,,,,,,,,,,,,10,2,1,2024-10-06_21h13.13.981,uWM_experiment,2022.2.3,59.99854803
,,,,,,,,,,,,,,,,21,0,21,0,,,,,,,,,,,,,,,,,,,,,,,,,,,,,,,,,,,,,,,,,,,,,,,,,,,,,,,,,,,,,,,,,,,,,,,,,,,,,,0.071028411,left,1,160,-30,130,1,1700.407135,1700.407135,1700.407135,None,None,2,0,1.994296,0.095238095,,,,,,,,,,,,,,,,,,,,,,,,,,,,,,,,,,,,,,,,,,,,,10,2,1,2024-10-06_21h13.13.981,uWM_experiment,2022.2.3,59.99854803
,,,,,,,,,,,,,,,,22,0,22,0,,,,,,,,,,,,,,,,,,,,,,,,,,,,,,,,,,,,,,,,,,,,,,,,,,,,,,,,,,,,,,,,,,,,,,,,,,,,,,0.1,left,1,70,-30,40,2,1712.490991,1712.490991,1712.490991,None,None,3,0,2.9342026,0.090909091,,,,,,,,,,,,,,,,,,,,,,,,,,,,,,,,,,,,,,,,,,,,,10,2,1,2024-10-06_21h13.13.981,uWM_experiment,2022.2.3,59.99854803
,,,,,,,,,,,,,,,,23,0,23,0,,,,,,,,,,,,,,,,,,,,,,,,,,,,,,,,,,,,,,,,,,,,,,,,,,,,,,,,,,,,,,,,,,,,,,,,,,,,,,0.1,right,1,70,30,100,2,1721.941404,1721.941404,1721.941404,None,None,4,0,1.7080179,0.086956522,,,,,,,,,,,,,,,,,,,,,,,,,,,,,,,,,,,,,,,,,,,,,10,2,1,2024-10-06_21h13.13.981,uWM_experiment,2022.2.3,59.99854803
,,,,,,,,,,,,,,,,,,,,,,,,,,,,,,,,,,,,,,,,,,,,,,,,,,,,,,,,,,,,,,,,,,,,,,,,,,,,,,,,,,,,,,,,,,,,,,,,,,,,,,,,,,,,,,,,,1723.674801,1724.674834,space,21.3024784,,,,,,,,,,,,,,,,,,,,,,,,,,,,,,,,,,,,,,,,,10,2,1,2024-10-06_21h13.13.981,uWM_experiment,2022.2.3,59.99854803
,,,,,,,,,,,,,,,,,,,,0,0,0,0,0,0,0,0,,,,,,,,,,,,,,,,,,,,,,,,,,,,,,,,,,,,,,,,,,,,,,,,,,,,,,,,,,,,,,,,,,,,,,0.071028411,,,,,,,,,,,,,,,,,,,,1746.009118,1746.709143,1746.992491,1747.69252,1747.992536,1748.692571,1748.692571,1749.042589,left,1,10,-30,-20,1,1754.74284,1754.74284,1754.74284,None,None,3,0,1.8184832,,,,,,,,,,,,,,,,,,,10,2,1,2024-10-06_21h13.13.981,uWM_experiment,2022.2.3,59.99854803
,,,,,,,,,,,,,,,,,,,,0,0,0,0,1,0,1,0,,,,,,,,,,,,,,,,,,,,,,,,,,,,,,,,,,,,,,,,,,,,,,,,,,,,,,,,,,,,,,,,,,,,,,0.061028411,,,,,,,,,,,,,,,,,,,,,,,,,,,,left,0,40,30,70,1,1762.809869,1762.809869,1762.809869,None,None,2,0,1.4394185,,,,,,,,,,,,,,,,,,,10,2,1,2024-10-06_21h13.13.981,uWM_experiment,2022.2.3,59.99854803
,,,,,,,,,,,,,,,,,,,,0,0,0,0,2,0,2,0,,,,,,,,,,,,,,,,,,,,,,,,,,,,,,,,,,,,,,,,,,,,,,,,,,,,,,,,,,,,,,,,,,,,,,0.1,,,,,,,,,,,,,,,,,,,,,,,,,,,,right,0,130,-30,100,2,1772.043595,1772.043595,1772.043595,None,None,3,0,1.7418156,,,,,,,,,,,,,,,,,,,10,2,1,2024-10-06_21h13.13.981,uWM_experiment,2022.2.3,59.99854803
,,,,,,,,,,,,,,,,,,,,0,0,0,0,3,0,3,0,,,,,,,,,,,,,,,,,,,,,,,,,,,,,,,,,,,,,,,,,,,,,,,,,,,,,,,,,,,,,,,,,,,,,,0,,,,,,,,,,,,,,,,,,,,,,,,,,,,right,1,130,30,160,0,1782.294032,1782.294032,1782.294032,None,None,1,1,1.019151,,,,,,,,,,,,,,,,,,,10,2,1,2024-10-06_21h13.13.981,uWM_experiment,2022.2.3,59.99854803
,,,,,,,,,,,,,,,,,,,,0,0,0,0,4,0,4,0,,,,,,,,,,,,,,,,,,,,,,,,,,,,,,,,,,,,,,,,,,,,,,,,,,,,,,,,,,,,,,,,,,,,,,0.051028411,,,,,,,,,,,,,,,,,,,,,,,,,,,,right,0,40,-30,10,1,1790.361073,1790.361073,1790.361073,None,None,2,0,1.8403343,,,,,,,,,,,,,,,,,,,10,2,1,2024-10-06_21h13.13.981,uWM_experiment,2022.2.3,59.99854803
,,,,,,,,,,,,,,,,,,,,0,0,0,0,5,0,5,0,,,,,,,,,,,,,,,,,,,,,,,,,,,,,,,,,,,,,,,,,,,,,,,,,,,,,,,,,,,,,,,,,,,,,,0,,,,,,,,,,,,,,,,,,,,,,,,,,,,left,0,100,30,130,0,1802.944993,1802.944993,1802.944993,None,None,1,1,0.7201665,,,,,,,,,,,,,,,,,,,10,2,1,2024-10-06_21h13.13.981,uWM_experiment,2022.2.3,59.99854803
,,,,,,,,,,,,,,,,,,,,0,0,0,0,6,0,6,0,,,,,,,,,,,,,,,,,,,,,,,,,,,,,,,,,,,,,,,,,,,,,,,,,,,,,,,,,,,,,,,,,,,,,,0.041028411,,,,,,,,,,,,,,,,,,,,,,,,,,,,right,1,160,30,190,1,1812.962071,1812.962071,1812.962071,None,None,1,1,1.1432045,,,,,,,,,,,,,,,,,,,10,2,1,2024-10-06_21h13.13.981,uWM_experiment,2022.2.3,59.99854803
,,,,,,,,,,,,,,,,,,,,0,0,0,0,7,0,7,0,,,,,,,,,,,,,,,,,,,,,,,,,,,,,,,,,,,,,,,,,,,,,,,,,,,,,,,,,,,,,,,,,,,,,,0.051028411,,,,,,,,,,,,,,,,,,,,,,,,,,,,left,1,40,-30,10,1,1820.612395,1820.612395,1820.612395,None,None,1,1,0.9409997,,,,,,,,,,,,,,,,,,,10,2,1,2024-10-06_21h13.13.981,uWM_experiment,2022.2.3,59.99854803
,,,,,,,,,,,,,,,,,,,,0,0,0,0,8,0,8,0,,,,,,,,,,,,,,,,,,,,,,,,,,,,,,,,,,,,,,,,,,,,,,,,,,,,,,,,,,,,,,,,,,,,,,0.061028411,,,,,,,,,,,,,,,,,,,,,,,,,,,,left,1,100,-30,70,1,1827.99604,1827.99604,1827.99604,None,None,1,1,0.6133488,,,,,,,,,,,,,,,,,,,10,2,1,2024-10-06_21h13.13.981,uWM_experiment,2022.2.3,59.99854803
,,,,,,,,,,,,,,,,,,,,0,0,0,0,9,0,9,0,,,,,,,,,,,,,,,,,,,,,,,,,,,,,,,,,,,,,,,,,,,,,,,,,,,,,,,,,,,,,,,,,,,,,,0.071028411,,,,,,,,,,,,,,,,,,,,,,,,,,,,right,1,10,30,40,1,1836.746409,1836.746409,1836.746409,None,None,1,1,0.7028438,,,,,,,,,,,,,,,,,,,10,2,1,2024-10-06_21h13.13.981,uWM_experiment,2022.2.3,59.99854803
,,,,,,,,,,,,,,,,,,,,0,0,0,0,10,0,10,0,,,,,,,,,,,,,,,,,,,,,,,,,,,,,,,,,,,,,,,,,,,,,,,,,,,,,,,,,,,,,,,,,,,,,,0.081028411,,,,,,,,,,,,,,,,,,,,,,,,,,,,right,1,40,30,70,1,1846.646848,1846.646848,1846.646848,None,None,1,1,0.7784844,,,,,,,,,,,,,,,,,,,10,2,1,2024-10-06_21h13.13.981,uWM_experiment,2022.2.3,59.99854803
,,,,,,,,,,,,,,,,,,,,0,0,0,0,11,0,11,0,,,,,,,,,,,,,,,,,,,,,,,,,,,,,,,,,,,,,,,,,,,,,,,,,,,,,,,,,,,,,,,,,,,,,,0,,,,,,,,,,,,,,,,,,,,,,,,,,,,right,1,10,30,40,0,1855.447264,1855.447264,1855.447264,None,None,1,1,0.8101173,,,,,,,,,,,,,,,,,,,10,2,1,2024-10-06_21h13.13.981,uWM_experiment,2022.2.3,59.99854803
,,,,,,,,,,,,,,,,,,,,0,0,0,0,12,0,12,0,,,,,,,,,,,,,,,,,,,,,,,,,,,,,,,,,,,,,,,,,,,,,,,,,,,,,,,,,,,,,,,,,,,,,,0.091028411,,,,,,,,,,,,,,,,,,,,,,,,,,,,left,1,70,-30,40,1,1865.347788,1865.347788,1865.347788,None,None,1,1,0.6135864,,,,,,,,,,,,,,,,,,,10,2,1,2024-10-06_21h13.13.981,uWM_experiment,2022.2.3,59.99854803
,,,,,,,,,,,,,,,,,,,,0,0,0,0,13,0,13,0,,,,,,,,,,,,,,,,,,,,,,,,,,,,,,,,,,,,,,,,,,,,,,,,,,,,,,,,,,,,,,,,,,,,,,0.101028411,,,,,,,,,,,,,,,,,,,,,,,,,,,,right,1,10,30,40,1,1873.381356,1873.381356,1873.381356,None,None,1,1,0.4518702,,,,,,,,,,,,,,,,,,,10,2,1,2024-10-06_21h13.13.981,uWM_experiment,2022.2.3,59.99854803
,,,,,,,,,,,,,,,,,,,,0,0,0,0,14,0,14,0,,,,,,,,,,,,,,,,,,,,,,,,,,,,,,,,,,,,,,,,,,,,,,,,,,,,,,,,,,,,,,,,,,,,,,0,,,,,,,,,,,,,,,,,,,,,,,,,,,,right,0,10,-30,-20,0,1881.331713,1881.331713,1881.331713,None,None,1,1,0.501481,,,,,,,,,,,,,,,,,,,10,2,1,2024-10-06_21h13.13.981,uWM_experiment,2022.2.3,59.99854803
,,,,,,,,,,,,,,,,,,,,0,0,0,0,15,0,15,0,,,,,,,,,,,,,,,,,,,,,,,,,,,,,,,,,,,,,,,,,,,,,,,,,,,,,,,,,,,,,,,,,,,,,,0.111028411,,,,,,,,,,,,,,,,,,,,,,,,,,,,right,1,10,30,40,1,1889.082042,1889.082042,1889.082042,None,None,1,1,0.4472961,,,,,,,,,,,,,,,,,,,10,2,1,2024-10-06_21h13.13.981,uWM_experiment,2022.2.3,59.99854803
,,,,,,,,,,,,,,,,,,,,0,0,0,0,16,0,16,0,,,,,,,,,,,,,,,,,,,,,,,,,,,,,,,,,,,,,,,,,,,,,,,,,,,,,,,,,,,,,,,,,,,,,,0.121028411,,,,,,,,,,,,,,,,,,,,,,,,,,,,right,1,40,30,70,1,1896.565692,1896.565692,1896.565692,None,None,1,1,0.4515391,,,,,,,,,,,,,,,,,,,10,2,1,2024-10-06_21h13.13.981,uWM_experiment,2022.2.3,59.99854803
,,,,,,,,,,,,,,,,,,,,0,0,0,0,17,0,17,0,,,,,,,,,,,,,,,,,,,,,,,,,,,,,,,,,,,,,,,,,,,,,,,,,,,,,,,,,,,,,,,,,,,,,,0.131028411,,,,,,,,,,,,,,,,,,,,,,,,,,,,left,0,10,30,40,1,1904.249394,1904.249394,1904.249394,None,None,1,1,0.4718497,,,,,,,,,,,,,,,,,,,10,2,1,2024-10-06_21h13.13.981,uWM_experiment,2022.2.3,59.99854803
,,,,,,,,,,,,,,,,,,,,0,0,0,0,18,0,18,0,,,,,,,,,,,,,,,,,,,,,,,,,,,,,,,,,,,,,,,,,,,,,,,,,,,,,,,,,,,,,,,,,,,,,,0.141028411,,,,,,,,,,,,,,,,,,,,,,,,,,,,right,1,70,30,100,1,1913.349745,1913.349745,1913.349745,None,None,1,1,0.7635171,,,,,,,,,,,,,,,,,,,10,2,1,2024-10-06_21h13.13.981,uWM_experiment,2022.2.3,59.99854803
,,,,,,,,,,,,,,,,,,,,0,0,0,0,19,0,19,0,,,,,,,,,,,,,,,,,,,,,,,,,,,,,,,,,,,,,,,,,,,,,,,,,,,,,,,,,,,,,,,,,,,,,,0.151028411,,,,,,,,,,,,,,,,,,,,,,,,,,,,right,1,160,30,190,1,1921.616807,1921.616807,1921.616807,None,None,1,1,0.6084515,,,,,,,,,,,,,,,,,,,10,2,1,2024-10-06_21h13.13.981,uWM_experiment,2022.2.3,59.99854803
,,,,,,,,,,,,,,,,,,,,0,0,0,0,20,0,20,0,,,,,,,,,,,,,,,,,,,,,,,,,,,,,,,,,,,,,,,,,,,,,,,,,,,,,,,,,,,,,,,,,,,,,,0.161028411,,,,,,,,,,,,,,,,,,,,,,,,,,,,right,1,40,30,70,1,1932.817285,1932.817285,1932.817285,None,None,1,1,0.3760709,,,,,,,,,,,,,,,,,,,10,2,1,2024-10-06_21h13.13.981,uWM_experiment,2022.2.3,59.99854803
,,,,,,,,,,,,,,,,,,,,0,0,0,0,21,0,21,0,,,,,,,,,,,,,,,,,,,,,,,,,,,,,,,,,,,,,,,,,,,,,,,,,,,,,,,,,,,,,,,,,,,,,,0,,,,,,,,,,,,,,,,,,,,,,,,,,,,left,0,100,30,130,0,1941.184337,1941.184337,1941.184337,None,None,1,1,0.5130373,,,,,,,,,,,,,,,,,,,10,2,1,2024-10-06_21h13.13.981,uWM_experiment,2022.2.3,59.99854803
,,,,,,,,,,,,,,,,,,,,0,0,0,0,22,0,22,0,,,,,,,,,,,,,,,,,,,,,,,,,,,,,,,,,,,,,,,,,,,,,,,,,,,,,,,,,,,,,,,,,,,,,,0.171028411,,,,,,,,,,,,,,,,,,,,,,,,,,,,right,1,70,30,100,1,1947.951303,1947.951303,1947.951303,None,None,1,1,0.3138247,,,,,,,,,,,,,,,,,,,10,2,1,2024-10-06_21h13.13.981,uWM_experiment,2022.2.3,59.99854803
,,,,,,,,,,,,,,,,,,,,0,0,0,0,23,0,23,0,,,,,,,,,,,,,,,,,,,,,,,,,,,,,,,,,,,,,,,,,,,,,,,,,,,,,,,,,,,,,,,,,,,,,,0,,,,,,,,,,,,,,,,,,,,,,,,,,,,right,0,40,-30,10,0,1957.651948,1957.651948,1957.651948,None,None,1,1,0.5654255,,,,,,,,,,,,,,,,,,,10,2,1,2024-10-06_21h13.13.981,uWM_experiment,2022.2.3,59.99854803
,,,,,,,,,,,,,,,,,,,,0,0,0,0,,,,,0,0,0,0,,,,,,,,,,,,,,,,,,,,,,,,,,,,,,,,,,,,,,,,,,,,,,,,,,,,,,,,,,,,,,,,,,,,,,,,,,,,,,,,,,,,,,,,,,,,,,,,,,,,,,,,,,,,1958.235046,1958.235046,space,28.1423299,None,None,,,,,,,,,,,,,10,2,1,2024-10-06_21h13.13.981,uWM_experiment,2022.2.3,59.99854803
,,,,,,,,,,,,,,,,,,,,0,0,0,0,,,,,1,0,1,0,,,,,,,,,,,,,,,,,,,,,,,,,,,,,,,,,,,,,,,,,,,,,,,,,,,,,,,,,,,,,,,,,,,,,,,,,,,,,,,,,,,,,,,,,,,,,,,,,,,,,,,,,,,,,,,,,,,,,,,,,,,,,,10,2,1,2024-10-06_21h13.13.981,uWM_experiment,2022.2.3,59.99854803
,,,,,,,,,,,,,,,,,,,,0,0,0,0,,,,,2,0,2,0,,,,,,,,,,,,,,,,,,,,,,,,,,,,,,,,,,,,,,,,,,,,,,,,,,,,,,,,,,,,,,,,,,,,,,,,,,,,,,,,,,,,,,,,,,,,,,,,,,,,,,,,,,,,,,,,,,,,,,,,,,,,,,10,2,1,2024-10-06_21h13.13.981,uWM_experiment,2022.2.3,59.99854803
,,,,,,,,,,,,,,,,,,,,1,0,1,0,0,0,0,0,,,,,,,,,,,,,,,,,,,,,,,,,,,,,,,,,,,,,,,,,,,,,,,,,,,,,,,,,,,,,,,,,,,,,,0.181028411,,,,,,,,,,,,,,,,,,,,1986.402952,1987.103002,1987.402996,1988.103023,1988.403039,1989.103069,1989.103069,1989.41976,left,1,160,-30,130,1,1995.103347,1995.103347,1995.103347,None,None,1,1,0.8659152,,,,,,,None,,,,,,,,,,,,10,2,1,2024-10-06_21h13.13.981,uWM_experiment,2022.2.3,59.99854803
,,,,,,,,,,,,,,,,,,,,1,0,1,0,1,0,1,0,,,,,,,,,,,,,,,,,,,,,,,,,,,,,,,,,,,,,,,,,,,,,,,,,,,,,,,,,,,,,,,,,,,,,,0.1,,,,,,,,,,,,,,,,,,,,,,,,,,,,right,1,40,30,70,2,2002.570305,2002.570305,2002.570305,None,None,4,0,0.679055,,,,,,,,,,,,,,,,,,,10,2,1,2024-10-06_21h13.13.981,uWM_experiment,2022.2.3,59.99854803
,,,,,,,,,,,,,,,,,,,,1,0,1,0,2,0,2,0,,,,,,,,,,,,,,,,,,,,,,,,,,,,,,,,,,,,,,,,,,,,,,,,,,,,,,,,,,,,,,,,,,,,,,0,,,,,,,,,,,,,,,,,,,,,,,,,,,,left,0,100,30,130,0,2011.354049,2011.354049,2011.354049,None,None,1,1,0.6551802,,,,,,,,,,,,,,,,,,,10,2,1,2024-10-06_21h13.13.981,uWM_experiment,2022.2.3,59.99854803
,,,,,,,,,,,,,,,,,,,,1,0,1,0,3,0,3,0,,,,,,,,,,,,,,,,,,,,,,,,,,,,,,,,,,,,,,,,,,,,,,,,,,,,,,,,,,,,,,,,,,,,,,0.191028411,,,,,,,,,,,,,,,,,,,,,,,,,,,,right,1,160,30,190,1,2020.454436,2020.454436,2020.454436,None,None,2,0,0.9949154,,,,,,,,,,,,,,,,,,,10,2,1,2024-10-06_21h13.13.981,uWM_experiment,2022.2.3,59.99854803
,,,,,,,,,,,,,,,,,,,,1,0,1,0,4,0,4,0,,,,,,,,,,,,,,,,,,,,,,,,,,,,,,,,,,,,,,,,,,,,,,,,,,,,,,,,,,,,,,,,,,,,,,0.181028411,,,,,,,,,,,,,,,,,,,,,,,,,,,,left,0,40,30,70,1,2028.838131,2028.838131,2028.838131,None,None,2,0,1.5231117,,,,,,,,,,,,,,,,,,,10,2,1,2024-10-06_21h13.13.981,uWM_experiment,2022.2.3,59.99854803
,,,,,,,,,,,,,,,,,,,,1,0,1,0,5,0,5,0,,,,,,,,,,,,,,,,,,,,,,,,,,,,,,,,,,,,,,,,,,,,,,,,,,,,,,,,,,,,,,,,,,,,,,0.171028411,,,,,,,,,,,,,,,,,,,,,,,,,,,,left,1,40,-30,10,1,2036.438496,2036.438496,2036.438496,None,None,2,0,1.4108511,,,,,,,,,,,,,,,,,,,10,2,1,2024-10-06_21h13.13.981,uWM_experiment,2022.2.3,59.99854803
,,,,,,,,,,,,,,,,,,,,1,0,1,0,6,0,6,0,,,,,,,,,,,,,,,,,,,,,,,,,,,,,,,,,,,,,,,,,,,,,,,,,,,,,,,,,,,,,,,,,,,,,,0.161028411,,,,,,,,,,,,,,,,,,,,,,,,,,,,left,1,40,-30,10,1,2045.122175,2045.122175,2045.122175,None,None,2,0,1.4791816,,,,,,,,,,,,,,,,,,,10,2,1,2024-10-06_21h13.13.981,uWM_experiment,2022.2.3,59.99854803
,,,,,,,,,,,,,,,,,,,,1,0,1,0,7,0,7,0,,,,,,,,,,,,,,,,,,,,,,,,,,,,,,,,,,,,,,,,,,,,,,,,,,,,,,,,,,,,,,,,,,,,,,0.151028411,,,,,,,,,,,,,,,,,,,,,,,,,,,,left,0,130,30,160,1,2054.689288,2054.689288,2054.689288,None,None,2,0,1.7920396,,,,,,,,,,,,,,,,,,,10,2,1,2024-10-06_21h13.13.981,uWM_experiment,2022.2.3,59.99854803
,,,,,,,,,,,,,,,,,,,,1,0,1,0,8,0,8,0,,,,,,,,,,,,,,,,,,,,,,,,,,,,,,,,,,,,,,,,,,,,,,,,,,,,,,,,,,,,,,,,,,,,,,0.141028411,,,,,,,,,,,,,,,,,,,,,,,,,,,,left,0,100,30,130,1,2065.956436,2065.956436,2065.956436,None,None,1,1,0.9886799,,,,,,,,,,,,,,,,,,,10,2,1,2024-10-06_21h13.13.981,uWM_experiment,2022.2.3,59.99854803
,,,,,,,,,,,,,,,,,,,,1,0,1,0,9,0,9,0,,,,,,,,,,,,,,,,,,,,,,,,,,,,,,,,,,,,,,,,,,,,,,,,,,,,,,,,,,,,,,,,,,,,,,0.151028411,,,,,,,,,,,,,,,,,,,,,,,,,,,,left,0,70,30,100,1,2075.123502,2075.123502,2075.123502,None,None,1,1,0.8376642,,,,,,,,,,,,,,,,,,,10,2,1,2024-10-06_21h13.13.981,uWM_experiment,2022.2.3,59.99854803
,,,,,,,,,,,,,,,,,,,,1,0,1,0,10,0,10,0,,,,,,,,,,,,,,,,,,,,,,,,,,,,,,,,,,,,,,,,,,,,,,,,,,,,,,,,,,,,,,,,,,,,,,0.161028411,,,,,,,,,,,,,,,,,,,,,,,,,,,,right,1,160,30,190,1,2082.757167,2082.757167,2082.757167,None,None,2,0,1.2679971,,,,,,,,,,,,,,,,,,,10,2,1,2024-10-06_21h13.13.981,uWM_experiment,2022.2.3,59.99854803
,,,,,,,,,,,,,,,,,,,,1,0,1,0,11,0,11,0,,,,,,,,,,,,,,,,,,,,,,,,,,,,,,,,,,,,,,,,,,,,,,,,,,,,,,,,,,,,,,,,,,,,,,0.1,,,,,,,,,,,,,,,,,,,,,,,,,,,,right,1,10,30,40,2,2092.357577,2092.357577,2092.357577,None,None,3,0,1.4355299,,,,,,,,,,,,,,,,,,,10,2,1,2024-10-06_21h13.13.981,uWM_experiment,2022.2.3,59.99854803
,,,,,,,,,,,,,,,,,,,,1,0,1,0,12,0,12,0,,,,,,,,,,,,,,,,,,,,,,,,,,,,,,,,,,,,,,,,,,,,,,,,,,,,,,,,,,,,,,,,,,,,,,0.151028411,,,,,,,,,,,,,,,,,,,,,,,,,,,,left,0,130,30,160,1,2100.40796,2100.40796,2100.40796,None,None,2,0,1.4493745,,,,,,,,,,,,,,,,,,,10,2,1,2024-10-06_21h13.13.981,uWM_experiment,2022.2.3,59.99854803
,,,,,,,,,,,,,,,,,,,,1,0,1,0,13,0,13,0,,,,,,,,,,,,,,,,,,,,,,,,,,,,,,,,,,,,,,,,,,,,,,,,,,,,,,,,,,,,,,,,,,,,,,0.141028411,,,,,,,,,,,,,,,,,,,,,,,,,,,,left,1,100,-30,70,1,2109.608361,2109.608361,2109.608361,None,None,1,1,0.7367949,,,,,,,,,,,,,,,,,,,10,2,1,2024-10-06_21h13.13.981,uWM_experiment,2022.2.3,59.99854803
,,,,,,,,,,,,,,,,,,,,1,0,1,0,14,0,14,0,,,,,,,,,,,,,,,,,,,,,,,,,,,,,,,,,,,,,,,,,,,,,,,,,,,,,,,,,,,,,,,,,,,,,,0.151028411,,,,,,,,,,,,,,,,,,,,,,,,,,,,left,1,40,-30,10,1,2116.208618,2116.208618,2116.208618,None,None,2,0,0.99268,,,,,,,,,,,,,,,,,,,10,2,1,2024-10-06_21h13.13.981,uWM_experiment,2022.2.3,59.99854803
,,,,,,,,,,,,,,,,,,,,1,0,1,0,15,0,15,0,,,,,,,,,,,,,,,,,,,,,,,,,,,,,,,,,,,,,,,,,,,,,,,,,,,,,,,,,,,,,,,,,,,,,,0.141028411,,,,,,,,,,,,,,,,,,,,,,,,,,,,right,1,160,30,190,1,2124.79236,2124.79236,2124.79236,None,None,2,0,3.9207413,,,,,,,,,,,,,,,,,,,10,2,1,2024-10-06_21h13.13.981,uWM_experiment,2022.2.3,59.99854803
,,,,,,,,,,,,,,,,,,,,1,0,1,0,16,0,16,0,,,,,,,,,,,,,,,,,,,,,,,,,,,,,,,,,,,,,,,,,,,,,,,,,,,,,,,,,,,,,,,,,,,,,,0.131028411,,,,,,,,,,,,,,,,,,,,,,,,,,,,right,1,70,30,100,1,2135.042803,2135.042803,2135.042803,None,None,2,0,0.9022963,,,,,,,,,,,,,,,,,,,10,2,1,2024-10-06_21h13.13.981,uWM_experiment,2022.2.3,59.99854803
,,,,,,,,,,,,,,,,,,,,1,0,1,0,17,0,17,0,,,,,,,,,,,,,,,,,,,,,,,,,,,,,,,,,,,,,,,,,,,,,,,,,,,,,,,,,,,,,,,,,,,,,,0.121028411,,,,,,,,,,,,,,,,,,,,,,,,,,,,left,1,10,-30,-20,1,2142.593116,2142.593116,2142.593116,None,None,2,0,1.0482269,,,,,,,,,,,,,,,,,,,10,2,1,2024-10-06_21h13.13.981,uWM_experiment,2022.2.3,59.99854803
,,,,,,,,,,,,,,,,,,,,1,0,1,0,18,0,18,0,,,,,,,,,,,,,,,,,,,,,,,,,,,,,,,,,,,,,,,,,,,,,,,,,,,,,,,,,,,,,,,,,,,,,,0.111028411,,,,,,,,,,,,,,,,,,,,,,,,,,,,right,0,70,-30,40,1,2150.92681,2150.92681,2150.92681,None,None,1,1,1.9943316,,,,,,,,,,,,,,,,,,,10,2,1,2024-10-06_21h13.13.981,uWM_experiment,2022.2.3,59.99854803
,,,,,,,,,,,,,,,,,,,,1,0,1,0,19,0,19,0,,,,,,,,,,,,,,,,,,,,,,,,,,,,,,,,,,,,,,,,,,,,,,,,,,,,,,,,,,,,,,,,,,,,,,0,,,,,,,,,,,,,,,,,,,,,,,,,,,,right,0,40,-30,10,0,2159.877222,2159.877222,2159.877222,None,None,1,1,0.5799828,,,,,,,,,,,,,,,,,,,10,2,1,2024-10-06_21h13.13.981,uWM_experiment,2022.2.3,59.99854803
,,,,,,,,,,,,,,,,,,,,1,0,1,0,20,0,20,0,,,,,,,,,,,,,,,,,,,,,,,,,,,,,,,,,,,,,,,,,,,,,,,,,,,,,,,,,,,,,,,,,,,,,,0.121028411,,,,,,,,,,,,,,,,,,,,,,,,,,,,right,1,160,30,190,1,2166.660847,2166.660847,2166.660847,None,None,3,0,5.5084813,,,,,,,,,,,,,,,,,,,10,2,1,2024-10-06_21h13.13.981,uWM_experiment,2022.2.3,59.99854803
,,,,,,,,,,,,,,,,,,,,1,0,1,0,21,0,21,0,,,,,,,,,,,,,,,,,,,,,,,,,,,,,,,,,,,,,,,,,,,,,,,,,,,,,,,,,,,,,,,,,,,,,,0,,,,,,,,,,,,,,,,,,,,,,,,,,,,left,0,160,30,190,0,2179.961417,2179.961417,2179.961417,None,None,1,1,0.4797891,,,,,,,,,,,,,,,,,,,10,2,1,2024-10-06_21h13.13.981,uWM_experiment,2022.2.3,59.99854803
,,,,,,,,,,,,,,,,,,,,1,0,1,0,22,0,22,0,,,,,,,,,,,,,,,,,,,,,,,,,,,,,,,,,,,,,,,,,,,,,,,,,,,,,,,,,,,,,,,,,,,,,,0.111028411,,,,,,,,,,,,,,,,,,,,,,,,,,,,left,0,100,30,130,1,2187.061711,2187.061711,2187.061711,None,None,2,0,1.1954705,,,,,,,,,,,,,,,,,,,10,2,1,2024-10-06_21h13.13.981,uWM_experiment,2022.2.3,59.99854803
,,,,,,,,,,,,,,,,,,,,1,0,1,0,23,0,23,0,,,,,,,,,,,,,,,,,,,,,,,,,,,,,,,,,,,,,,,,,,,,,,,,,,,,,,,,,,,,,,,,,,,,,,0,,,,,,,,,,,,,,,,,,,,,,,,,,,,left,1,130,-30,100,0,2196.01213,2196.01213,2196.01213,None,None,1,1,1.5571762,,,,,,,,,,,,,,,,,,,10,2,1,2024-10-06_21h13.13.981,uWM_experiment,2022.2.3,59.99854803
,,,,,,,,,,,,,,,,,,,,1,0,1,0,,,,,0,0,0,0,,,,,,,,,,,,,,,,,,,,,,,,,,,,,,,,,,,,,,,,,,,,,,,,,,,,,,,,,,,,,,,,,,,,,,,,,,,,,,,,,,,,,,,,,,,,,,,,,,,,,,,,,,,,2197.595502,2197.595502,space,35.8938541,None,None,,,,,,,,,,,,,10,2,1,2024-10-06_21h13.13.981,uWM_experiment,2022.2.3,59.99854803
,,,,,,,,,,,,,,,,,,,,1,0,1,0,,,,,1,0,1,0,,,,,,,,,,,,,,,,,,,,,,,,,,,,,,,,,,,,,,,,,,,,,,,,,,,,,,,,,,,,,,,,,,,,,,,,,,,,,,,,,,,,,,,,,,,,,,,,,,,,,,,,,,,,,,,,,,,,,,,,,,,,,,10,2,1,2024-10-06_21h13.13.981,uWM_experiment,2022.2.3,59.99854803
,,,,,,,,,,,,,,,,,,,,1,0,1,0,,,,,2,0,2,0,,,,,,,,,,,,,,,,,,,,,,,,,,,,,,,,,,,,,,,,,,,,,,,,,,,,,,,,,,,,,,,,,,,,,,,,,,,,,,,,,,,,,,,,,,,,,,,,,,,,,,,,,,,,,,,,,,,,,,,,,,,,,,10,2,1,2024-10-06_21h13.13.981,uWM_experiment,2022.2.3,59.99854803
,,,,,,,,,,,,,,,,,,,,2,0,2,0,0,0,0,0,,,,,,,,,,,,,,,,,,,,,,,,,,,,,,,,,,,,,,,,,,,,,,,,,,,,,,,,,,,,,,,,,,,,,,0.101028411,,,,,,,,,,,,,,,,,,,,2233.513742,2234.21377,2234.513807,2235.213809,2235.513827,2236.21386,2236.21386,2236.530563,right,1,100,30,130,1,2242.430801,2242.430801,2242.430801,None,None,1,1,1.2743336,,,,,,,None,,,,,,,,,,,,10,2,1,2024-10-06_21h13.13.981,uWM_experiment,2022.2.3,59.99854803
,,,,,,,,,,,,,,,,,,,,2,0,2,0,1,0,1,0,,,,,,,,,,,,,,,,,,,,,,,,,,,,,,,,,,,,,,,,,,,,,,,,,,,,,,,,,,,,,,,,,,,,,,0.111028411,,,,,,,,,,,,,,,,,,,,,,,,,,,,left,0,160,30,190,1,2250.297831,2250.297831,2250.297831,None,None,2,0,1.3914654,,,,,,,,,,,,,,,,,,,10,2,1,2024-10-06_21h13.13.981,uWM_experiment,2022.2.3,59.99854803
,,,,,,,,,,,,,,,,,,,,2,0,2,0,2,0,2,0,,,,,,,,,,,,,,,,,,,,,,,,,,,,,,,,,,,,,,,,,,,,,,,,,,,,,,,,,,,,,,,,,,,,,,0,,,,,,,,,,,,,,,,,,,,,,,,,,,,right,1,130,30,160,0,2259.281521,2259.281521,2259.281521,None,None,1,1,0.4237588,,,,,,,,,,,,,,,,,,,10,2,1,2024-10-06_21h13.13.981,uWM_experiment,2022.2.3,59.99854803
,,,,,,,,,,,,,,,,,,,,2,0,2,0,3,0,3,0,,,,,,,,,,,,,,,,,,,,,,,,,,,,,,,,,,,,,,,,,,,,,,,,,,,,,,,,,,,,,,,,,,,,,,0.101028411,,,,,,,,,,,,,,,,,,,,,,,,,,,,left,1,70,-30,40,1,2268.231931,2268.231931,2268.231931,None,None,2,0,1.489204,,,,,,,,,,,,,,,,,,,10,2,1,2024-10-06_21h13.13.981,uWM_experiment,2022.2.3,59.99854803
,,,,,,,,,,,,,,,,,,,,2,0,2,0,4,0,4,0,,,,,,,,,,,,,,,,,,,,,,,,,,,,,,,,,,,,,,,,,,,,,,,,,,,,,,,,,,,,,,,,,,,,,,0.091028411,,,,,,,,,,,,,,,,,,,,,,,,,,,,right,0,130,-30,100,1,2276.132264,2276.132264,2276.132264,None,None,2,0,1.7090295,,,,,,,,,,,,,,,,,,,10,2,1,2024-10-06_21h13.13.981,uWM_experiment,2022.2.3,59.99854803
,,,,,,,,,,,,,,,,,,,,2,0,2,0,5,0,5,0,,,,,,,,,,,,,,,,,,,,,,,,,,,,,,,,,,,,,,,,,,,,,,,,,,,,,,,,,,,,,,,,,,,,,,0.081028411,,,,,,,,,,,,,,,,,,,,,,,,,,,,left,0,160,30,190,1,2287.299428,2287.299428,2287.299428,None,None,2,0,2.0138425,,,,,,,,,,,,,,,,,,,10,2,1,2024-10-06_21h13.13.981,uWM_experiment,2022.2.3,59.99854803
,,,,,,,,,,,,,,,,,,,,2,0,2,0,6,0,6,0,,,,,,,,,,,,,,,,,,,,,,,,,,,,,,,,,,,,,,,,,,,,,,,,,,,,,,,,,,,,,,,,,,,,,,0,,,,,,,,,,,,,,,,,,,,,,,,,,,,right,0,160,-30,130,0,2296.566485,2296.566485,2296.566485,None,None,2,0,3.1066804,,,,,,,,,,,,,,,,,,,10,2,1,2024-10-06_21h13.13.981,uWM_experiment,2022.2.3,59.99854803
,,,,,,,,,,,,,,,,,,,,2,0,2,0,7,0,7,0,,,,,,,,,,,,,,,,,,,,,,,,,,,,,,,,,,,,,,,,,,,,,,,,,,,,,,,,,,,,,,,,,,,,,,0.071028411,,,,,,,,,,,,,,,,,,,,,,,,,,,,right,1,130,30,160,1,2307.517027,2307.517027,2307.517027,None,None,3,0,3.4520196,,,,,,,,,,,,,,,,,,,10,2,1,2024-10-06_21h13.13.981,uWM_experiment,2022.2.3,59.99854803
,,,,,,,,,,,,,,,,,,,,2,0,2,0,8,0,8,0,,,,,,,,,,,,,,,,,,,,,,,,,,,,,,,,,,,,,,,,,,,,,,,,,,,,,,,,,,,,,,,,,,,,,,0.061028411,,,,,,,,,,,,,,,,,,,,,,,,,,,,left,0,40,30,70,1,2319.334172,2319.334172,2319.334172,None,None,1,1,1.4672376,,,,,,,,,,,,,,,,,,,10,2,1,2024-10-06_21h13.13.981,uWM_experiment,2022.2.3,59.99854803
,,,,,,,,,,,,,,,,,,,,2,0,2,0,9,0,9,0,,,,,,,,,,,,,,,,,,,,,,,,,,,,,,,,,,,,,,,,,,,,,,,,,,,,,,,,,,,,,,,,,,,,,,0.071028411,,,,,,,,,,,,,,,,,,,,,,,,,,,,right,0,130,-30,100,1,2328.417892,2328.417892,2328.417892,None,None,1,1,0.6233438,,,,,,,,,,,,,,,,,,,10,2,1,2024-10-06_21h13.13.981,uWM_experiment,2022.2.3,59.99854803
,,,,,,,,,,,,,,,,,,,,2,0,2,0,10,0,10,0,,,,,,,,,,,,,,,,,,,,,,,,,,,,,,,,,,,,,,,,,,,,,,,,,,,,,,,,,,,,,,,,,,,,,,0.081028411,,,,,,,,,,,,,,,,,,,,,,,,,,,,left,1,10,-30,-20,1,2334.66815,2334.66815,2334.66815,None,None,2,0,2.5251063,,,,,,,,,,,,,,,,,,,10,2,1,2024-10-06_21h13.13.981,uWM_experiment,2022.2.3,59.99854803
,,,,,,,,,,,,,,,,,,,,2,0,2,0,11,0,11,0,,,,,,,,,,,,,,,,,,,,,,,,,,,,,,,,,,,,,,,,,,,,,,,,,,,,,,,,,,,,,,,,,,,,,,0.071028411,,,,,,,,,,,,,,,,,,,,,,,,,,,,right,1,40,30,70,1,2344.851922,2344.851922,2344.851922,None,None,1,1,0.3892674,,,,,,,,,,,,,,,,,,,10,2,1,2024-10-06_21h13.13.981,uWM_experiment,2022.2.3,59.99854803
,,,,,,,,,,,,,,,,,,,,2,0,2,0,12,0,12,0,,,,,,,,,,,,,,,,,,,,,,,,,,,,,,,,,,,,,,,,,,,,,,,,,,,,,,,,,,,,,,,,,,,,,,0.081028411,,,,,,,,,,,,,,,,,,,,,,,,,,,,right,0,130,-30,100,1,2353.335647,2353.335647,2353.335647,None,None,2,0,1.5854048,,,,,,,,,,,,,,,,,,,10,2,1,2024-10-06_21h13.13.981,uWM_experiment,2022.2.3,59.99854803
,,,,,,,,,,,,,,,,,,,,2,0,2,0,13,0,13,0,,,,,,,,,,,,,,,,,,,,,,,,,,,,,,,,,,,,,,,,,,,,,,,,,,,,,,,,,,,,,,,,,,,,,,0.071028411,,,,,,,,,,,,,,,,,,,,,,,,,,,,right,0,10,-30,-20,1,2361.002653,2361.002653,2361.002653,None,None,2,0,1.1183872,,,,,,,,,,,,,,,,,,,10,2,1,2024-10-06_21h13.13.981,uWM_experiment,2022.2.3,59.99854803
,,,,,,,,,,,,,,,,,,,,2,0,2,0,14,0,14,0,,,,,,,,,,,,,,,,,,,,,,,,,,,,,,,,,,,,,,,,,,,,,,,,,,,,,,,,,,,,,,,,,,,,,,0.061028411,,,,,,,,,,,,,,,,,,,,,,,,,,,,right,0,10,-30,-20,1,2369.286327,2369.286327,2369.286327,None,None,2,0,1.2749492,,,,,,,,,,,,,,,,,,,10,2,1,2024-10-06_21h13.13.981,uWM_experiment,2022.2.3,59.99854803
,,,,,,,,,,,,,,,,,,,,2,0,2,0,15,0,15,0,,,,,,,,,,,,,,,,,,,,,,,,,,,,,,,,,,,,,,,,,,,,,,,,,,,,,,,,,,,,,,,,,,,,,,0,,,,,,,,,,,,,,,,,,,,,,,,,,,,right,1,160,30,190,0,2379.60345,2379.60345,2379.60345,None,None,1,1,0.6056141,,,,,,,,,,,,,,,,,,,10,2,1,2024-10-06_21h13.13.981,uWM_experiment,2022.2.3,59.99854803
,,,,,,,,,,,,,,,,,,,,2,0,2,0,16,0,16,0,,,,,,,,,,,,,,,,,,,,,,,,,,,,,,,,,,,,,,,,,,,,,,,,,,,,,,,,,,,,,,,,,,,,,,0.051028411,,,,,,,,,,,,,,,,,,,,,,,,,,,,left,1,70,-30,40,1,2388.903865,2388.903865,2388.903865,None,None,1,1,1.521169,,,,,,,,,,,,,,,,,,,10,2,1,2024-10-06_21h13.13.981,uWM_experiment,2022.2.3,59.99854803
,,,,,,,,,,,,,,,,,,,,2,0,2,0,17,0,17,0,,,,,,,,,,,,,,,,,,,,,,,,,,,,,,,,,,,,,,,,,,,,,,,,,,,,,,,,,,,,,,,,,,,,,,0,,,,,,,,,,,,,,,,,,,,,,,,,,,,right,0,160,-30,130,0,2398.437616,2398.437616,2398.437616,None,None,1,1,0.9714888,,,,,,,,,,,,,,,,,,,10,2,1,2024-10-06_21h13.13.981,uWM_experiment,2022.2.3,59.99854803
,,,,,,,,,,,,,,,,,,,,2,0,2,0,18,0,18,0,,,,,,,,,,,,,,,,,,,,,,,,,,,,,,,,,,,,,,,,,,,,,,,,,,,,,,,,,,,,,,,,,,,,,,0.1,,,,,,,,,,,,,,,,,,,,,,,,,,,,left,1,130,-30,100,2,2410.13812,2410.13812,2410.13812,None,None,3,0,3.0471426,,,,,,,,,,,,,,,,,,,10,2,1,2024-10-06_21h13.13.981,uWM_experiment,2022.2.3,59.99854803
,,,,,,,,,,,,,,,,,,,,2,0,2,0,19,0,19,0,,,,,,,,,,,,,,,,,,,,,,,,,,,,,,,,,,,,,,,,,,,,,,,,,,,,,,,,,,,,,,,,,,,,,,0.061028411,,,,,,,,,,,,,,,,,,,,,,,,,,,,left,0,40,30,70,1,2421.555288,2421.555288,2421.555288,None,None,2,0,1.9737962,,,,,,,,,,,,,,,,,,,10,2,1,2024-10-06_21h13.13.981,uWM_experiment,2022.2.3,59.99854803
,,,,,,,,,,,,,,,,,,,,2,0,2,0,20,0,20,0,,,,,,,,,,,,,,,,,,,,,,,,,,,,,,,,,,,,,,,,,,,,,,,,,,,,,,,,,,,,,,,,,,,,,,0,,,,,,,,,,,,,,,,,,,,,,,,,,,,left,1,100,-30,70,0,2432.20573,2432.20573,2432.20573,None,None,1,1,0.6113828,,,,,,,,,,,,,,,,,,,10,2,1,2024-10-06_21h13.13.981,uWM_experiment,2022.2.3,59.99854803
,,,,,,,,,,,,,,,,,,,,2,0,2,0,21,0,21,0,,,,,,,,,,,,,,,,,,,,,,,,,,,,,,,,,,,,,,,,,,,,,,,,,,,,,,,,,,,,,,,,,,,,,,0.051028411,,,,,,,,,,,,,,,,,,,,,,,,,,,,right,0,70,-30,40,1,2442.256196,2442.256196,2442.256196,None,None,1,1,0.4248822,,,,,,,,,,,,,,,,,,,10,2,1,2024-10-06_21h13.13.981,uWM_experiment,2022.2.3,59.99854803
,,,,,,,,,,,,,,,,,,,,2,0,2,0,22,0,22,0,,,,,,,,,,,,,,,,,,,,,,,,,,,,,,,,,,,,,,,,,,,,,,,,,,,,,,,,,,,,,,,,,,,,,,0,,,,,,,,,,,,,,,,,,,,,,,,,,,,right,0,10,-30,-20,0,2450.573216,2450.573216,2450.573216,None,None,1,1,0.8198001,,,,,,,,,,,,,,,,,,,10,2,1,2024-10-06_21h13.13.981,uWM_experiment,2022.2.3,59.99854803
,,,,,,,,,,,,,,,,,,,,2,0,2,0,23,0,23,0,,,,,,,,,,,,,,,,,,,,,,,,,,,,,,,,,,,,,,,,,,,,,,,,,,,,,,,,,,,,,,,,,,,,,,0,,,,,,,,,,,,,,,,,,,,,,,,,,,,left,0,160,30,190,0,2461.390371,2461.390371,2461.390371,None,None,1,1,1.3467764,,,,,,,,,,,,,,,,,,,10,2,1,2024-10-06_21h13.13.981,uWM_experiment,2022.2.3,59.99854803
,,,,,,,,,,,,,,,,,,,,2,0,2,0,,,,,0,0,0,0,,,,,,,,,,,,,,,,,,,,,,,,,,,,,,,,,,,,,,,,,,,,,,,,,,,,,,,,,,,,,,,,,,,,,,,,,,,,,,,,,,,,,,,,,,,,,,,,,,,,,,,,,,,,2462.757067,2462.757067,space,51.380183,space,None,,2514.159316,2514.159316,16.4099242,,,,,,,,,10,2,1,2024-10-06_21h13.13.981,uWM_experiment,2022.2.3,59.99854803
,,,,,,,,,,,,,,,,,,,,2,0,2,0,,,,,1,0,1,0,,,,,,,,,,,,,,,,,,,,,,,,,,,,,,,,,,,,,,,,,,,,,,,,,,,,,,,,,,,,,,,,,,,,,,,,,,,,,,,,,,,,,,,,,,,,,,,,,,,,,,,,,,,,,,,,,,,,,,,,,,,,,,10,2,1,2024-10-06_21h13.13.981,uWM_experiment,2022.2.3,59.99854803
,,,,,,,,,,,,,,,,,,,,2,0,2,0,,,,,2,0,2,0,,,,,,,,,,,,,,,,,,,,,,,,,,,,,,,,,,,,,,,,,,,,,,,,,,,,,,,,,,,,,,,,,,,,,,,,,,,,,,,,,,,,,,,,,,,,,,,,,,,,,,,,,,,,,,,,,,,,,,,,,,,,,,10,2,1,2024-10-06_21h13.13.981,uWM_experiment,2022.2.3,59.99854803
,,,,,,,,,,,,,,,,,,,,3,0,3,0,0,0,0,0,,,,,,,,,,,,,,,,,,,,,,,,,,,,,,,,,,,,,,,,,,,,,,,,,,,,,,,,,,,,,,,,,,,,,,0.061028411,,,,,,,,,,,,,,,,,,,,2530.593365,2531.293401,2531.593414,2532.293445,2532.593461,2533.293489,2533.293489,2533.610187,right,0,100,-30,70,1,2541.077184,2541.077184,2541.077184,None,None,1,1,2.4358156,,,,,,,None,,,,,,,,,,,,10,2,1,2024-10-06_21h13.13.981,uWM_experiment,2022.2.3,59.99854803
,,,,,,,,,,,,,,,,,,,,3,0,3,0,1,0,1,0,,,,,,,,,,,,,,,,,,,,,,,,,,,,,,,,,,,,,,,,,,,,,,,,,,,,,,,,,,,,,,,,,,,,,,0.071028411,,,,,,,,,,,,,,,,,,,,,,,,,,,,right,0,100,-30,70,1,2550.827747,2550.827747,2550.827747,None,None,1,1,1.069266,,,,,,,,,,,,,,,,,,,10,2,1,2024-10-06_21h13.13.981,uWM_experiment,2022.2.3,59.99854803
,,,,,,,,,,,,,,,,,,,,3,0,3,0,2,0,2,0,,,,,,,,,,,,,,,,,,,,,,,,,,,,,,,,,,,,,,,,,,,,,,,,,,,,,,,,,,,,,,,,,,,,,,0,,,,,,,,,,,,,,,,,,,,,,,,,,,,left,0,130,30,160,0,2559.878008,2559.878008,2559.878008,None,None,1,1,0.6991966,,,,,,,,,,,,,,,,,,,10,2,1,2024-10-06_21h13.13.981,uWM_experiment,2022.2.3,59.99854803
,,,,,,,,,,,,,,,,,,,,3,0,3,0,3,0,3,0,,,,,,,,,,,,,,,,,,,,,,,,,,,,,,,,,,,,,,,,,,,,,,,,,,,,,,,,,,,,,,,,,,,,,,0.081028411,,,,,,,,,,,,,,,,,,,,,,,,,,,,left,1,130,-30,100,1,2568.228355,2568.228355,2568.228355,None,None,1,1,1.4288998,,,,,,,,,,,,,,,,,,,10,2,1,2024-10-06_21h13.13.981,uWM_experiment,2022.2.3,59.99854803
,,,,,,,,,,,,,,,,,,,,3,0,3,0,4,0,4,0,,,,,,,,,,,,,,,,,,,,,,,,,,,,,,,,,,,,,,,,,,,,,,,,,,,,,,,,,,,,,,,,,,,,,,0.091028411,,,,,,,,,,,,,,,,,,,,,,,,,,,,left,1,40,-30,10,1,2575.828691,2575.828691,2575.828691,None,None,1,1,0.5325276,,,,,,,,,,,,,,,,,,,10,2,1,2024-10-06_21h13.13.981,uWM_experiment,2022.2.3,59.99854803
,,,,,,,,,,,,,,,,,,,,3,0,3,0,5,0,5,0,,,,,,,,,,,,,,,,,,,,,,,,,,,,,,,,,,,,,,,,,,,,,,,,,,,,,,,,,,,,,,,,,,,,,,0,,,,,,,,,,,,,,,,,,,,,,,,,,,,left,1,10,-30,-20,0,2585.91244,2585.91244,2585.91244,None,None,1,1,1.1206578,,,,,,,,,,,,,,,,,,,10,2,1,2024-10-06_21h13.13.981,uWM_experiment,2022.2.3,59.99854803
,,,,,,,,,,,,,,,,,,,,3,0,3,0,6,0,6,0,,,,,,,,,,,,,,,,,,,,,,,,,,,,,,,,,,,,,,,,,,,,,,,,,,,,,,,,,,,,,,,,,,,,,,0,,,,,,,,,,,,,,,,,,,,,,,,,,,,left,0,130,30,160,0,2595.579558,2595.579558,2595.579558,None,None,1,1,0.9096628,,,,,,,,,,,,,,,,,,,10,2,1,2024-10-06_21h13.13.981,uWM_experiment,2022.2.3,59.99854803
,,,,,,,,,,,,,,,,,,,,3,0,3,0,7,0,7,0,,,,,,,,,,,,,,,,,,,,,,,,,,,,,,,,,,,,,,,,,,,,,,,,,,,,,,,,,,,,,,,,,,,,,,0.101028411,,,,,,,,,,,,,,,,,,,,,,,,,,,,right,1,70,30,100,1,2602.713208,2602.713208,2602.713208,None,None,1,1,0.4958958,,,,,,,,,,,,,,,,,,,10,2,1,2024-10-06_21h13.13.981,uWM_experiment,2022.2.3,59.99854803
,,,,,,,,,,,,,,,,,,,,3,0,3,0,8,0,8,0,,,,,,,,,,,,,,,,,,,,,,,,,,,,,,,,,,,,,,,,,,,,,,,,,,,,,,,,,,,,,,,,,,,,,,0.111028411,,,,,,,,,,,,,,,,,,,,,,,,,,,,right,0,100,-30,70,1,2611.680253,2611.680253,2611.680253,None,None,1,1,1.3769426,,,,,,,,,,,,,,,,,,,10,2,1,2024-10-06_21h13.13.981,uWM_experiment,2022.2.3,59.99854803
,,,,,,,,,,,,,,,,,,,,3,0,3,0,9,0,9,0,,,,,,,,,,,,,,,,,,,,,,,,,,,,,,,,,,,,,,,,,,,,,,,,,,,,,,,,,,,,,,,,,,,,,,0.121028411,,,,,,,,,,,,,,,,,,,,,,,,,,,,left,1,130,-30,100,1,2620.447306,2620.447306,2620.447306,None,None,1,1,0.6097813,,,,,,,,,,,,,,,,,,,10,2,1,2024-10-06_21h13.13.981,uWM_experiment,2022.2.3,59.99854803
,,,,,,,,,,,,,,,,,,,,3,0,3,0,10,0,10,0,,,,,,,,,,,,,,,,,,,,,,,,,,,,,,,,,,,,,,,,,,,,,,,,,,,,,,,,,,,,,,,,,,,,,,0.131028411,,,,,,,,,,,,,,,,,,,,,,,,,,,,right,0,160,-30,130,1,2630.731078,2630.731078,2630.731078,None,None,1,1,0.5420282,,,,,,,,,,,,,,,,,,,10,2,1,2024-10-06_21h13.13.981,uWM_experiment,2022.2.3,59.99854803
,,,,,,,,,,,,,,,,,,,,3,0,3,0,11,0,11,0,,,,,,,,,,,,,,,,,,,,,,,,,,,,,,,,,,,,,,,,,,,,,,,,,,,,,,,,,,,,,,,,,,,,,,0,,,,,,,,,,,,,,,,,,,,,,,,,,,,right,0,40,-30,10,0,2642.181594,2642.181594,2642.181594,None,None,1,1,0.5476079,,,,,,,,,,,,,,,,,,,10,2,1,2024-10-06_21h13.13.981,uWM_experiment,2022.2.3,59.99854803
,,,,,,,,,,,,,,,,,,,,3,0,3,0,12,0,12,0,,,,,,,,,,,,,,,,,,,,,,,,,,,,,,,,,,,,,,,,,,,,,,,,,,,,,,,,,,,,,,,,,,,,,,0.141028411,,,,,,,,,,,,,,,,,,,,,,,,,,,,left,0,130,30,160,1,2648.648527,2648.648527,2648.648527,None,None,1,1,0.4325502,,,,,,,,,,,,,,,,,,,10,2,1,2024-10-06_21h13.13.981,uWM_experiment,2022.2.3,59.99854803
,,,,,,,,,,,,,,,,,,,,3,0,3,0,13,0,13,0,,,,,,,,,,,,,,,,,,,,,,,,,,,,,,,,,,,,,,,,,,,,,,,,,,,,,,,,,,,,,,,,,,,,,,0,,,,,,,,,,,,,,,,,,,,,,,,,,,,left,1,160,-30,130,0,2656.71556,2656.71556,2656.71556,None,None,1,1,0.4534174,,,,,,,,,,,,,,,,,,,10,2,1,2024-10-06_21h13.13.981,uWM_experiment,2022.2.3,59.99854803
,,,,,,,,,,,,,,,,,,,,3,0,3,0,14,0,14,0,,,,,,,,,,,,,,,,,,,,,,,,,,,,,,,,,,,,,,,,,,,,,,,,,,,,,,,,,,,,,,,,,,,,,,0,,,,,,,,,,,,,,,,,,,,,,,,,,,,right,0,130,-30,100,0,2665.099435,2665.099435,2665.099435,None,None,1,1,0.6456377,,,,,,,,,,,,,,,,,,,10,2,1,2024-10-06_21h13.13.981,uWM_experiment,2022.2.3,59.99854803
,,,,,,,,,,,,,,,,,,,,3,0,3,0,15,0,15,0,,,,,,,,,,,,,,,,,,,,,,,,,,,,,,,,,,,,,,,,,,,,,,,,,,,,,,,,,,,,,,,,,,,,,,0.151028411,,,,,,,,,,,,,,,,,,,,,,,,,,,,left,1,70,-30,40,1,2674.416325,2674.416325,2674.416325,None,None,1,1,0.6568733,,,,,,,,,,,,,,,,,,,10,2,1,2024-10-06_21h13.13.981,uWM_experiment,2022.2.3,59.99854803
,,,,,,,,,,,,,,,,,,,,3,0,3,0,16,0,16,0,,,,,,,,,,,,,,,,,,,,,,,,,,,,,,,,,,,,,,,,,,,,,,,,,,,,,,,,,,,,,,,,,,,,,,0.161028411,,,,,,,,,,,,,,,,,,,,,,,,,,,,left,1,10,-30,-20,1,2680.816601,2680.816601,2680.816601,None,None,1,1,0.4485866,,,,,,,,,,,,,,,,,,,10,2,1,2024-10-06_21h13.13.981,uWM_experiment,2022.2.3,59.99854803
,,,,,,,,,,,,,,,,,,,,3,0,3,0,17,0,17,0,,,,,,,,,,,,,,,,,,,,,,,,,,,,,,,,,,,,,,,,,,,,,,,,,,,,,,,,,,,,,,,,,,,,,,0,,,,,,,,,,,,,,,,,,,,,,,,,,,,left,0,10,30,40,0,2688.883635,2688.883635,2688.883635,None,None,1,1,0.4853336,,,,,,,,,,,,,,,,,,,10,2,1,2024-10-06_21h13.13.981,uWM_experiment,2022.2.3,59.99854803
,,,,,,,,,,,,,,,,,,,,3,0,3,0,18,0,18,0,,,,,,,,,,,,,,,,,,,,,,,,,,,,,,,,,,,,,,,,,,,,,,,,,,,,,,,,,,,,,,,,,,,,,,0,,,,,,,,,,,,,,,,,,,,,,,,,,,,left,0,10,30,40,0,2698.450708,2698.450708,2698.450708,None,None,1,1,0.4783655,,,,,,,,,,,,,,,,,,,10,2,1,2024-10-06_21h13.13.981,uWM_experiment,2022.2.3,59.99854803
,,,,,,,,,,,,,,,,,,,,3,0,3,0,19,0,19,0,,,,,,,,,,,,,,,,,,,,,,,,,,,,,,,,,,,,,,,,,,,,,,,,,,,,,,,,,,,,,,,,,,,,,,0.171028411,,,,,,,,,,,,,,,,,,,,,,,,,,,,left,0,130,30,160,1,2710.334576,2710.334576,2710.334576,None,None,1,1,0.658511,,,,,,,,,,,,,,,,,,,10,2,1,2024-10-06_21h13.13.981,uWM_experiment,2022.2.3,59.99854803
,,,,,,,,,,,,,,,,,,,,3,0,3,0,20,0,20,0,,,,,,,,,,,,,,,,,,,,,,,,,,,,,,,,,,,,,,,,,,,,,,,,,,,,,,,,,,,,,,,,,,,,,,0.181028411,,,,,,,,,,,,,,,,,,,,,,,,,,,,right,0,10,-30,-20,1,2718.201584,2718.201584,2718.201584,None,None,1,1,0.3994833,,,,,,,,,,,,,,,,,,,10,2,1,2024-10-06_21h13.13.981,uWM_experiment,2022.2.3,59.99854803
,,,,,,,,,,,,,,,,,,,,3,0,3,0,21,0,21,0,,,,,,,,,,,,,,,,,,,,,,,,,,,,,,,,,,,,,,,,,,,,,,,,,,,,,,,,,,,,,,,,,,,,,,0,,,,,,,,,,,,,,,,,,,,,,,,,,,,right,1,70,30,100,0,2725.351873,2725.351873,2725.351873,None,None,1,1,0.3132511,,,,,,,,,,,,,,,,,,,10,2,1,2024-10-06_21h13.13.981,uWM_experiment,2022.2.3,59.99854803
,,,,,,,,,,,,,,,,,,,,3,0,3,0,22,0,22,0,,,,,,,,,,,,,,,,,,,,,,,,,,,,,,,,,,,,,,,,,,,,,,,,,,,,,,,,,,,,,,,,,,,,,,0.191028411,,,,,,,,,,,,,,,,,,,,,,,,,,,,left,0,130,30,160,1,2734.518932,2734.518932,2734.518932,None,None,1,1,0.7462416,,,,,,,,,,,,,,,,,,,10,2,1,2024-10-06_21h13.13.981,uWM_experiment,2022.2.3,59.99854803
,,,,,,,,,,,,,,,,,,,,3,0,3,0,23,0,23,0,,,,,,,,,,,,,,,,,,,,,,,,,,,,,,,,,,,,,,,,,,,,,,,,,,,,,,,,,,,,,,,,,,,,,,0.201028411,,,,,,,,,,,,,,,,,,,,,,,,,,,,right,1,160,30,190,1,2741.085879,2741.085879,2741.085879,None,None,1,1,0.7071912,,,,,,,,,,,,,,,,,,,10,2,1,2024-10-06_21h13.13.981,uWM_experiment,2022.2.3,59.99854803
,,,,,,,,,,,,,,,,,,,,3,0,3,0,,,,,0,0,0,0,,,,,,,,,,,,,,,,,,,,,,,,,,,,,,,,,,,,,,,,,,,,,,,,,,,,,,,,,,,,,,,,,,,,,,,,,,,,,,,,,,,,,,,,,,,,,,,,,,,,,,,,,,,,2741.819236,2741.819236,space,300.4537358,None,None,,,,,,,,,,,,,10,2,1,2024-10-06_21h13.13.981,uWM_experiment,2022.2.3,59.99854803
,,,,,,,,,,,,,,,,,,,,3,0,3,0,,,,,1,0,1,0,,,,,,,,,,,,,,,,,,,,,,,,,,,,,,,,,,,,,,,,,,,,,,,,,,,,,,,,,,,,,,,,,,,,,,,,,,,,,,,,,,,,,,,,,,,,,,,,,,,,,,,,,,,,,,,,,,,,,,,,,,,,,,10,2,1,2024-10-06_21h13.13.981,uWM_experiment,2022.2.3,59.99854803
,,,,,,,,,,,,,,,,,,,,3,0,3,0,,,,,2,0,2,0,,,,,,,,,,,,,,,,,,,,,,,,,,,,,,,,,,,,,,,,,,,,,,,,,,,,,,,,,,,,,,,,,,,,,,,,,,,,,,,,,,,,,,,,,,,,,,,,,,,,,,,,,,,,,,,,,,,,,,,,,,,,,,10,2,1,2024-10-06_21h13.13.981,uWM_experiment,2022.2.3,59.99854803
,,,,,,,,,,,,,,,,,,,,4,0,4,0,0,0,0,0,,,,,,,,,,,,,,,,,,,,,,,,,,,,,,,,,,,,,,,,,,,,,,,,,,,,,,,,,,,,,,,,,,,,,,0,,,,,,,,,,,,,,,,,,,,3042.299038,3042.999064,3043.299098,3043.999117,3044.29913,3044.999161,3044.999161,3045.315838,right,1,160,30,190,0,3051.099433,3051.099433,3051.099433,None,None,1,1,0.6616599,,,,,,,None,,,,,,,,,,,,10,2,1,2024-10-06_21h13.13.981,uWM_experiment,2022.2.3,59.99854803
,,,,,,,,,,,,,,,,,,,,4,0,4,0,1,0,1,0,,,,,,,,,,,,,,,,,,,,,,,,,,,,,,,,,,,,,,,,,,,,,,,,,,,,,,,,,,,,,,,,,,,,,,0.211028411,,,,,,,,,,,,,,,,,,,,,,,,,,,,right,0,10,-30,-20,1,3059.816475,3059.816475,3059.816475,None,None,1,1,0.5684133,,,,,,,,,,,,,,,,,,,10,2,1,2024-10-06_21h13.13.981,uWM_experiment,2022.2.3,59.99854803
,,,,,,,,,,,,,,,,,,,,4,0,4,0,2,0,2,0,,,,,,,,,,,,,,,,,,,,,,,,,,,,,,,,,,,,,,,,,,,,,,,,,,,,,,,,,,,,,,,,,,,,,,0.221028411,,,,,,,,,,,,,,,,,,,,,,,,,,,,left,1,160,-30,130,1,3068.350201,3068.350201,3068.350201,None,None,2,0,1.6907778,,,,,,,,,,,,,,,,,,,10,2,1,2024-10-06_21h13.13.981,uWM_experiment,2022.2.3,59.99854803
,,,,,,,,,,,,,,,,,,,,4,0,4,0,3,0,3,0,,,,,,,,,,,,,,,,,,,,,,,,,,,,,,,,,,,,,,,,,,,,,,,,,,,,,,,,,,,,,,,,,,,,,,0,,,,,,,,,,,,,,,,,,,,,,,,,,,,left,1,100,-30,70,0,3081.78409,3081.78409,3081.78409,None,None,1,1,0.7688376,,,,,,,,,,,,,,,,,,,10,2,1,2024-10-06_21h13.13.981,uWM_experiment,2022.2.3,59.99854803
,,,,,,,,,,,,,,,,,,,,4,0,4,0,4,0,4,0,,,,,,,,,,,,,,,,,,,,,,,,,,,,,,,,,,,,,,,,,,,,,,,,,,,,,,,,,,,,,,,,,,,,,,0.211028411,,,,,,,,,,,,,,,,,,,,,,,,,,,,right,0,160,-30,130,1,3090.734488,3090.734488,3090.734488,None,None,2,0,1.282468,,,,,,,,,,,,,,,,,,,10,2,1,2024-10-06_21h13.13.981,uWM_experiment,2022.2.3,59.99854803
,,,,,,,,,,,,,,,,,,,,4,0,4,0,5,0,5,0,,,,,,,,,,,,,,,,,,,,,,,,,,,,,,,,,,,,,,,,,,,,,,,,,,,,,,,,,,,,,,,,,,,,,,0,,,,,,,,,,,,,,,,,,,,,,,,,,,,left,1,10,-30,-20,0,3100.568257,3100.568257,3100.568257,None,None,2,0,1.8006254,,,,,,,,,,,,,,,,,,,10,2,1,2024-10-06_21h13.13.981,uWM_experiment,2022.2.3,59.99854803
,,,,,,,,,,,,,,,,,,,,4,0,4,0,6,0,6,0,,,,,,,,,,,,,,,,,,,,,,,,,,,,,,,,,,,,,,,,,,,,,,,,,,,,,,,,,,,,,,,,,,,,,,0.1,,,,,,,,,,,,,,,,,,,,,,,,,,,,right,0,160,-30,130,2,3114.302184,3114.302184,3114.302184,None,None,3,0,2.9949073,,,,,,,,,,,,,,,,,,,10,2,1,2024-10-06_21h13.13.981,uWM_experiment,2022.2.3,59.99854803
,,,,,,,,,,,,,,,,,,,,4,0,4,0,7,0,7,0,,,,,,,,,,,,,,,,,,,,,,,,,,,,,,,,,,,,,,,,,,,,,,,,,,,,,,,,,,,,,,,,,,,,,,0.201028411,,,,,,,,,,,,,,,,,,,,,,,,,,,,right,0,100,-30,70,1,3124.769341,3124.769341,3124.769341,None,None,2,0,2.0395147,,,,,,,,,,,,,,,,,,,10,2,1,2024-10-06_21h13.13.981,uWM_experiment,2022.2.3,59.99854803
,,,,,,,,,,,,,,,,,,,,4,0,4,0,8,0,8,0,,,,,,,,,,,,,,,,,,,,,,,,,,,,,,,,,,,,,,,,,,,,,,,,,,,,,,,,,,,,,,,,,,,,,,0.191028411,,,,,,,,,,,,,,,,,,,,,,,,,,,,right,1,40,30,70,1,3139.986646,3139.986646,3139.986646,None,None,2,0,1.622248,,,,,,,,,,,,,,,,,,,10,2,1,2024-10-06_21h13.13.981,uWM_experiment,2022.2.3,59.99854803
,,,,,,,,,,,,,,,,,,,,4,0,4,0,9,0,9,0,,,,,,,,,,,,,,,,,,,,,,,,,,,,,,,,,,,,,,,,,,,,,,,,,,,,,,,,,,,,,,,,,,,,,,0,,,,,,,,,,,,,,,,,,,,,,,,,,,,right,1,40,30,70,0,3148.903687,3148.903687,3148.903687,None,None,1,1,2.4011621,,,,,,,,,,,,,,,,,,,10,2,1,2024-10-06_21h13.13.981,uWM_experiment,2022.2.3,59.99854803
,,,,,,,,,,,,,,,,,,,,4,0,4,0,10,0,10,0,,,,,,,,,,,,,,,,,,,,,,,,,,,,,,,,,,,,,,,,,,,,,,,,,,,,,,,,,,,,,,,,,,,,,,0.1,,,,,,,,,,,,,,,,,,,,,,,,,,,,left,1,10,-30,-20,2,3157.820749,3157.820749,3157.820749,None,None,4,0,3.2923421,,,,,,,,,,,,,,,,,,,10,2,1,2024-10-06_21h13.13.981,uWM_experiment,2022.2.3,59.99854803
,,,,,,,,,,,,,,,,,,,,4,0,4,0,11,0,11,0,,,,,,,,,,,,,,,,,,,,,,,,,,,,,,,,,,,,,,,,,,,,,,,,,,,,,,,,,,,,,,,,,,,,,,0.181028411,,,,,,,,,,,,,,,,,,,,,,,,,,,,left,1,160,-30,130,1,3173.821455,3173.821455,3173.821455,None,None,2,0,3.0353981,,,,,,,,,,,,,,,,,,,10,2,1,2024-10-06_21h13.13.981,uWM_experiment,2022.2.3,59.99854803
,,,,,,,,,,,,,,,,,,,,4,0,4,0,12,0,12,0,,,,,,,,,,,,,,,,,,,,,,,,,,,,,,,,,,,,,,,,,,,,,,,,,,,,,,,,,,,,,,,,,,,,,,0.171028411,,,,,,,,,,,,,,,,,,,,,,,,,,,,right,0,130,-30,100,1,3186.905348,3186.905348,3186.905348,None,None,2,0,2.1997302,,,,,,,,,,,,,,,,,,,10,2,1,2024-10-06_21h13.13.981,uWM_experiment,2022.2.3,59.99854803
,,,,,,,,,,,,,,,,,,,,4,0,4,0,13,0,13,0,,,,,,,,,,,,,,,,,,,,,,,,,,,,,,,,,,,,,,,,,,,,,,,,,,,,,,,,,,,,,,,,,,,,,,0.161028411,,,,,,,,,,,,,,,,,,,,,,,,,,,,left,1,70,-30,40,1,3196.339099,3196.339099,3196.339099,None,None,2,0,1.4779727,,,,,,,,,,,,,,,,,,,10,2,1,2024-10-06_21h13.13.981,uWM_experiment,2022.2.3,59.99854803
,,,,,,,,,,,,,,,,,,,,4,0,4,0,14,0,14,0,,,,,,,,,,,,,,,,,,,,,,,,,,,,,,,,,,,,,,,,,,,,,,,,,,,,,,,,,,,,,,,,,,,,,,0.151028411,,,,,,,,,,,,,,,,,,,,,,,,,,,,right,0,40,-30,10,1,3204.622801,3204.622801,3204.622801,None,None,3,0,5.8020472,,,,,,,,,,,,,,,,,,,10,2,1,2024-10-06_21h13.13.981,uWM_experiment,2022.2.3,59.99854803
,,,,,,,,,,,,,,,,,,,,4,0,4,0,15,0,15,0,,,,,,,,,,,,,,,,,,,,,,,,,,,,,,,,,,,,,,,,,,,,,,,,,,,,,,,,,,,,,,,,,,,,,,0.141028411,,,,,,,,,,,,,,,,,,,,,,,,,,,,left,1,40,-30,10,1,3216.139963,3216.139963,3216.139963,None,None,2,0,1.1729608,,,,,,,,,,,,,,,,,,,10,2,1,2024-10-06_21h13.13.981,uWM_experiment,2022.2.3,59.99854803
,,,,,,,,,,,,,,,,,,,,4,0,4,0,16,0,16,0,,,,,,,,,,,,,,,,,,,,,,,,,,,,,,,,,,,,,,,,,,,,,,,,,,,,,,,,,,,,,,,,,,,,,,0.131028411,,,,,,,,,,,,,,,,,,,,,,,,,,,,left,1,100,-30,70,1,3227.0571,3227.0571,3227.0571,None,None,2,0,1.0398958,,,,,,,,,,,,,,,,,,,10,2,1,2024-10-06_21h13.13.981,uWM_experiment,2022.2.3,59.99854803
,,,,,,,,,,,,,,,,,,,,4,0,4,0,17,0,17,0,,,,,,,,,,,,,,,,,,,,,,,,,,,,,,,,,,,,,,,,,,,,,,,,,,,,,,,,,,,,,,,,,,,,,,0.121028411,,,,,,,,,,,,,,,,,,,,,,,,,,,,right,0,70,-30,40,1,3236.157519,3236.157519,3236.157519,None,None,2,0,2.1713208,,,,,,,,,,,,,,,,,,,10,2,1,2024-10-06_21h13.13.981,uWM_experiment,2022.2.3,59.99854803
,,,,,,,,,,,,,,,,,,,,4,0,4,0,18,0,18,0,,,,,,,,,,,,,,,,,,,,,,,,,,,,,,,,,,,,,,,,,,,,,,,,,,,,,,,,,,,,,,,,,,,,,,0.1,,,,,,,,,,,,,,,,,,,,,,,,,,,,left,1,100,-30,70,2,3245.107917,3245.107917,3245.107917,None,None,4,0,1.525085,,,,,,,,,,,,,,,,,,,10,2,1,2024-10-06_21h13.13.981,uWM_experiment,2022.2.3,59.99854803
,,,,,,,,,,,,,,,,,,,,4,0,4,0,19,0,19,0,,,,,,,,,,,,,,,,,,,,,,,,,,,,,,,,,,,,,,,,,,,,,,,,,,,,,,,,,,,,,,,,,,,,,,0.111028411,,,,,,,,,,,,,,,,,,,,,,,,,,,,left,1,160,-30,130,1,3259.225159,3259.225159,3259.225159,None,None,2,0,1.1676733,,,,,,,,,,,,,,,,,,,10,2,1,2024-10-06_21h13.13.981,uWM_experiment,2022.2.3,59.99854803
,,,,,,,,,,,,,,,,,,,,4,0,4,0,20,0,20,0,,,,,,,,,,,,,,,,,,,,,,,,,,,,,,,,,,,,,,,,,,,,,,,,,,,,,,,,,,,,,,,,,,,,,,0,,,,,,,,,,,,,,,,,,,,,,,,,,,,left,0,130,30,160,0,3269.275627,3269.275627,3269.275627,None,None,2,0,2.0132969,,,,,,,,,,,,,,,,,,,10,2,1,2024-10-06_21h13.13.981,uWM_experiment,2022.2.3,59.99854803
,,,,,,,,,,,,,,,,,,,,4,0,4,0,21,0,21,0,,,,,,,,,,,,,,,,,,,,,,,,,,,,,,,,,,,,,,,,,,,,,,,,,,,,,,,,,,,,,,,,,,,,,,0,,,,,,,,,,,,,,,,,,,,,,,,,,,,right,0,100,-30,70,0,3281.259488,3281.259488,3281.259488,None,None,2,0,2.9655728,,,,,,,,,,,,,,,,,,,10,2,1,2024-10-06_21h13.13.981,uWM_experiment,2022.2.3,59.99854803
,,,,,,,,,,,,,,,,,,,,4,0,4,0,22,0,22,0,,,,,,,,,,,,,,,,,,,,,,,,,,,,,,,,,,,,,,,,,,,,,,,,,,,,,,,,,,,,,,,,,,,,,,0.101028411,,,,,,,,,,,,,,,,,,,,,,,,,,,,left,1,130,-30,100,1,3292.976663,3292.976663,3292.976663,None,None,2,0,1.9521372,,,,,,,,,,,,,,,,,,,10,2,1,2024-10-06_21h13.13.981,uWM_experiment,2022.2.3,59.99854803
,,,,,,,,,,,,,,,,,,,,4,0,4,0,23,0,23,0,,,,,,,,,,,,,,,,,,,,,,,,,,,,,,,,,,,,,,,,,,,,,,,,,,,,,,,,,,,,,,,,,,,,,,0.091028411,,,,,,,,,,,,,,,,,,,,,,,,,,,,left,0,160,30,190,1,3303.827152,3303.827152,3303.827152,None,None,2,0,1.2298997,,,,,,,,,,,,,,,,,,,10,2,1,2024-10-06_21h13.13.981,uWM_experiment,2022.2.3,59.99854803
,,,,,,,,,,,,,,,,,,,,4,0,4,0,,,,,0,0,0,0,,,,,,,,,,,,,,,,,,,,,,,,,,,,,,,,,,,,,,,,,,,,,,,,,,,,,,,,,,,,,,,,,,,,,,,,,,,,,,,,,,,,,,,,,,,,,,,,,,,,,,,,,,,,3305.077165,3305.077165,space,29.8597691,None,None,,,,,,,,,,,,,10,2,1,2024-10-06_21h13.13.981,uWM_experiment,2022.2.3,59.99854803
,,,,,,,,,,,,,,,,,,,,4,0,4,0,,,,,1,0,1,0,,,,,,,,,,,,,,,,,,,,,,,,,,,,,,,,,,,,,,,,,,,,,,,,,,,,,,,,,,,,,,,,,,,,,,,,,,,,,,,,,,,,,,,,,,,,,,,,,,,,,,,,,,,,,,,,,,,,,,,,,,,,,,10,2,1,2024-10-06_21h13.13.981,uWM_experiment,2022.2.3,59.99854803
,,,,,,,,,,,,,,,,,,,,4,0,4,0,,,,,2,0,2,0,,,,,,,,,,,,,,,,,,,,,,,,,,,,,,,,,,,,,,,,,,,,,,,,,,,,,,,,,,,,,,,,,,,,,,,,,,,,,,,,,,,,,,,,,,,,,,,,,,,,,,,,,,,,,,,,,,,,,,,,,,,,,,10,2,1,2024-10-06_21h13.13.981,uWM_experiment,2022.2.3,59.99854803
,,,,,,,,,,,,,,,,,,,,5,0,5,0,0,0,0,0,,,,,,,,,,,,,,,,,,,,,,,,,,,,,,,,,,,,,,,,,,,,,,,,,,,,,,,,,,,,,,,,,,,,,,0.081028411,,,,,,,,,,,,,,,,,,,,3334.96177,3335.661838,3335.961856,3336.661881,3336.961896,3337.661927,3337.661927,3337.97863,right,1,10,30,40,1,3342.778838,3342.778838,3342.778838,None,None,2,0,1.1020195,,,,,,,None,,,,,,,,,,,,10,2,1,2024-10-06_21h13.13.981,uWM_experiment,2022.2.3,59.99854803
,,,,,,,,,,,,,,,,,,,,5,0,5,0,1,0,1,0,,,,,,,,,,,,,,,,,,,,,,,,,,,,,,,,,,,,,,,,,,,,,,,,,,,,,,,,,,,,,,,,,,,,,,0,,,,,,,,,,,,,,,,,,,,,,,,,,,,left,1,40,-30,10,0,3353.212592,3353.212592,3353.212592,None,None,1,1,1.0923622,,,,,,,,,,,,,,,,,,,10,2,1,2024-10-06_21h13.13.981,uWM_experiment,2022.2.3,59.99854803
,,,,,,,,,,,,,,,,,,,,5,0,5,0,2,0,2,0,,,,,,,,,,,,,,,,,,,,,,,,,,,,,,,,,,,,,,,,,,,,,,,,,,,,,,,,,,,,,,,,,,,,,,0,,,,,,,,,,,,,,,,,,,,,,,,,,,,right,1,130,30,160,0,3360.796313,3360.796313,3360.796313,None,None,1,1,0.6127237,,,,,,,,,,,,,,,,,,,10,2,1,2024-10-06_21h13.13.981,uWM_experiment,2022.2.3,59.99854803
,,,,,,,,,,,,,,,,,,,,5,0,5,0,3,0,3,0,,,,,,,,,,,,,,,,,,,,,,,,,,,,,,,,,,,,,,,,,,,,,,,,,,,,,,,,,,,,,,,,,,,,,,0.071028411,,,,,,,,,,,,,,,,,,,,,,,,,,,,left,0,130,30,160,1,3367.363244,3367.363244,3367.363244,None,None,1,1,0.7737797,,,,,,,,,,,,,,,,,,,10,2,1,2024-10-06_21h13.13.981,uWM_experiment,2022.2.3,59.99854803
,,,,,,,,,,,,,,,,,,,,5,0,5,0,4,0,4,0,,,,,,,,,,,,,,,,,,,,,,,,,,,,,,,,,,,,,,,,,,,,,,,,,,,,,,,,,,,,,,,,,,,,,,0,,,,,,,,,,,,,,,,,,,,,,,,,,,,right,1,160,30,190,0,3376.396966,3376.396966,3376.396966,None,None,1,1,1.0838787,,,,,,,,,,,,,,,,,,,10,2,1,2024-10-06_21h13.13.981,uWM_experiment,2022.2.3,59.99854803
,,,,,,,,,,,,,,,,,,,,5,0,5,0,5,0,5,0,,,,,,,,,,,,,,,,,,,,,,,,,,,,,,,,,,,,,,,,,,,,,,,,,,,,,,,,,,,,,,,,,,,,,,0,,,,,,,,,,,,,,,,,,,,,,,,,,,,right,0,130,-30,100,0,3384.113978,3384.113978,3384.113978,None,None,1,1,0.6470268,,,,,,,,,,,,,,,,,,,10,2,1,2024-10-06_21h13.13.981,uWM_experiment,2022.2.3,59.99854803
,,,,,,,,,,,,,,,,,,,,5,0,5,0,6,0,6,0,,,,,,,,,,,,,,,,,,,,,,,,,,,,,,,,,,,,,,,,,,,,,,,,,,,,,,,,,,,,,,,,,,,,,,0.081028411,,,,,,,,,,,,,,,,,,,,,,,,,,,,left,0,10,30,40,1,3394.481073,3394.481073,3394.481073,None,None,1,1,0.8717609,,,,,,,,,,,,,,,,,,,10,2,1,2024-10-06_21h13.13.981,uWM_experiment,2022.2.3,59.99854803
,,,,,,,,,,,,,,,,,,,,5,0,5,0,7,0,7,0,,,,,,,,,,,,,,,,,,,,,,,,,,,,,,,,,,,,,,,,,,,,,,,,,,,,,,,,,,,,,,,,,,,,,,0.091028411,,,,,,,,,,,,,,,,,,,,,,,,,,,,right,0,160,-30,130,1,3402.281403,3402.281403,3402.281403,None,None,1,1,1.6076215,,,,,,,,,,,,,,,,,,,10,2,1,2024-10-06_21h13.13.981,uWM_experiment,2022.2.3,59.99854803
,,,,,,,,,,,,,,,,,,,,5,0,5,0,8,0,8,0,,,,,,,,,,,,,,,,,,,,,,,,,,,,,,,,,,,,,,,,,,,,,,,,,,,,,,,,,,,,,,,,,,,,,,0.101028411,,,,,,,,,,,,,,,,,,,,,,,,,,,,left,1,100,-30,70,1,3411.631821,3411.631821,3411.631821,None,None,1,1,0.6172035,,,,,,,,,,,,,,,,,,,10,2,1,2024-10-06_21h13.13.981,uWM_experiment,2022.2.3,59.99854803
,,,,,,,,,,,,,,,,,,,,5,0,5,0,9,0,9,0,,,,,,,,,,,,,,,,,,,,,,,,,,,,,,,,,,,,,,,,,,,,,,,,,,,,,,,,,,,,,,,,,,,,,,0.111028411,,,,,,,,,,,,,,,,,,,,,,,,,,,,right,0,130,-30,100,1,3421.065561,3421.065561,3421.065561,None,None,1,1,0.6632966,,,,,,,,,,,,,,,,,,,10,2,1,2024-10-06_21h13.13.981,uWM_experiment,2022.2.3,59.99854803
,,,,,,,,,,,,,,,,,,,,5,0,5,0,10,0,10,0,,,,,,,,,,,,,,,,,,,,,,,,,,,,,,,,,,,,,,,,,,,,,,,,,,,,,,,,,,,,,,,,,,,,,,0.121028411,,,,,,,,,,,,,,,,,,,,,,,,,,,,right,0,160,-30,130,1,3428.582559,3428.582559,3428.582559,None,None,1,1,0.4663378,,,,,,,,,,,,,,,,,,,10,2,1,2024-10-06_21h13.13.981,uWM_experiment,2022.2.3,59.99854803
,,,,,,,,,,,,,,,,,,,,5,0,5,0,11,0,11,0,,,,,,,,,,,,,,,,,,,,,,,,,,,,,,,,,,,,,,,,,,,,,,,,,,,,,,,,,,,,,,,,,,,,,,0,,,,,,,,,,,,,,,,,,,,,,,,,,,,left,1,130,-30,100,0,3438.266338,3438.266338,3438.266338,None,None,1,1,0.7425153,,,,,,,,,,,,,,,,,,,10,2,1,2024-10-06_21h13.13.981,uWM_experiment,2022.2.3,59.99854803
,,,,,,,,,,,,,,,,,,,,5,0,5,0,12,0,12,0,,,,,,,,,,,,,,,,,,,,,,,,,,,,,,,,,,,,,,,,,,,,,,,,,,,,,,,,,,,,,,,,,,,,,,0,,,,,,,,,,,,,,,,,,,,,,,,,,,,left,0,40,30,70,0,3449.65014,3449.65014,3449.65014,None,None,1,1,0.5346924,,,,,,,,,,,,,,,,,,,10,2,1,2024-10-06_21h13.13.981,uWM_experiment,2022.2.3,59.99854803
,,,,,,,,,,,,,,,,,,,,5,0,5,0,13,0,13,0,,,,,,,,,,,,,,,,,,,,,,,,,,,,,,,,,,,,,,,,,,,,,,,,,,,,,,,,,,,,,,,,,,,,,,0.131028411,,,,,,,,,,,,,,,,,,,,,,,,,,,,right,1,40,30,70,1,3458.0172,3458.0172,3458.0172,None,None,1,1,0.4398048,,,,,,,,,,,,,,,,,,,10,2,1,2024-10-06_21h13.13.981,uWM_experiment,2022.2.3,59.99854803
,,,,,,,,,,,,,,,,,,,,5,0,5,0,14,0,14,0,,,,,,,,,,,,,,,,,,,,,,,,,,,,,,,,,,,,,,,,,,,,,,,,,,,,,,,,,,,,,,,,,,,,,,0,,,,,,,,,,,,,,,,,,,,,,,,,,,,left,1,40,-30,10,0,3467.450906,3467.450906,3467.450906,None,None,1,1,0.3740058,,,,,,,,,,,,,,,,,,,10,2,1,2024-10-06_21h13.13.981,uWM_experiment,2022.2.3,59.99854803
,,,,,,,,,,,,,,,,,,,,5,0,5,0,15,0,15,0,,,,,,,,,,,,,,,,,,,,,,,,,,,,,,,,,,,,,,,,,,,,,,,,,,,,,,,,,,,,,,,,,,,,,,0.141028411,,,,,,,,,,,,,,,,,,,,,,,,,,,,left,0,130,30,160,1,3475.784635,3475.784635,3475.784635,None,None,1,1,0.6721951,,,,,,,,,,,,,,,,,,,10,2,1,2024-10-06_21h13.13.981,uWM_experiment,2022.2.3,59.99854803
,,,,,,,,,,,,,,,,,,,,5,0,5,0,16,0,16,0,,,,,,,,,,,,,,,,,,,,,,,,,,,,,,,,,,,,,,,,,,,,,,,,,,,,,,,,,,,,,,,,,,,,,,0.151028411,,,,,,,,,,,,,,,,,,,,,,,,,,,,left,1,10,-30,-20,1,3482.368296,3482.368296,3482.368296,None,None,1,1,0.3204697,,,,,,,,,,,,,,,,,,,10,2,1,2024-10-06_21h13.13.981,uWM_experiment,2022.2.3,59.99854803
,,,,,,,,,,,,,,,,,,,,5,0,5,0,17,0,17,0,,,,,,,,,,,,,,,,,,,,,,,,,,,,,,,,,,,,,,,,,,,,,,,,,,,,,,,,,,,,,,,,,,,,,,0.161028411,,,,,,,,,,,,,,,,,,,,,,,,,,,,left,1,40,-30,10,1,3489.768559,3489.768559,3489.768559,None,None,2,0,0.416423,,,,,,,,,,,,,,,,,,,10,2,1,2024-10-06_21h13.13.981,uWM_experiment,2022.2.3,59.99854803
,,,,,,,,,,,,,,,,,,,,5,0,5,0,18,0,18,0,,,,,,,,,,,,,,,,,,,,,,,,,,,,,,,,,,,,,,,,,,,,,,,,,,,,,,,,,,,,,,,,,,,,,,0.151028411,,,,,,,,,,,,,,,,,,,,,,,,,,,,right,0,100,-30,70,1,3500.919048,3500.919048,3500.919048,None,None,2,0,7.4417822,,,,,,,,,,,,,,,,,,,10,2,1,2024-10-06_21h13.13.981,uWM_experiment,2022.2.3,59.99854803
,,,,,,,,,,,,,,,,,,,,5,0,5,0,19,0,19,0,,,,,,,,,,,,,,,,,,,,,,,,,,,,,,,,,,,,,,,,,,,,,,,,,,,,,,,,,,,,,,,,,,,,,,0.141028411,,,,,,,,,,,,,,,,,,,,,,,,,,,,right,1,70,30,100,1,3514.786331,3514.786331,3514.786331,None,None,1,1,0.5665854,,,,,,,,,,,,,,,,,,,10,2,1,2024-10-06_21h13.13.981,uWM_experiment,2022.2.3,59.99854803
,,,,,,,,,,,,,,,,,,,,5,0,5,0,20,0,20,0,,,,,,,,,,,,,,,,,,,,,,,,,,,,,,,,,,,,,,,,,,,,,,,,,,,,,,,,,,,,,,,,,,,,,,0,,,,,,,,,,,,,,,,,,,,,,,,,,,,left,1,70,-30,40,0,3525.136775,3525.136775,3525.136775,None,None,1,1,1.3762426,,,,,,,,,,,,,,,,,,,10,2,1,2024-10-06_21h13.13.981,uWM_experiment,2022.2.3,59.99854803
,,,,,,,,,,,,,,,,,,,,5,0,5,0,21,0,21,0,,,,,,,,,,,,,,,,,,,,,,,,,,,,,,,,,,,,,,,,,,,,,,,,,,,,,,,,,,,,,,,,,,,,,,0,,,,,,,,,,,,,,,,,,,,,,,,,,,,left,0,130,30,160,0,3535.170532,3535.170532,3535.170532,None,None,1,1,0.7022447,,,,,,,,,,,,,,,,,,,10,2,1,2024-10-06_21h13.13.981,uWM_experiment,2022.2.3,59.99854803
,,,,,,,,,,,,,,,,,,,,5,0,5,0,22,0,22,0,,,,,,,,,,,,,,,,,,,,,,,,,,,,,,,,,,,,,,,,,,,,,,,,,,,,,,,,,,,,,,,,,,,,,,0.151028411,,,,,,,,,,,,,,,,,,,,,,,,,,,,left,1,130,-30,100,1,3544.937625,3544.937625,3544.937625,None,None,1,1,0.6073952,,,,,,,,,,,,,,,,,,,10,2,1,2024-10-06_21h13.13.981,uWM_experiment,2022.2.3,59.99854803
,,,,,,,,,,,,,,,,,,,,5,0,5,0,23,0,23,0,,,,,,,,,,,,,,,,,,,,,,,,,,,,,,,,,,,,,,,,,,,,,,,,,,,,,,,,,,,,,,,,,,,,,,0.161028411,,,,,,,,,,,,,,,,,,,,,,,,,,,,right,0,70,-30,40,1,3557.888201,3557.888201,3557.888201,None,None,1,1,0.8088207,,,,,,,,,,,,,,,,,,,10,2,1,2024-10-06_21h13.13.981,uWM_experiment,2022.2.3,59.99854803
,,,,,,,,,,,,,,,,,,,,5,0,5,0,,,,,0,0,0,0,,,,,,,,,,,,,,,,,,,,,,,,,,,,,,,,,,,,,,,,,,,,,,,,,,,,,,,,,,,,,,,,,,,,,,,,,,,,,,,,,,,,,,,,,,,,,,,,,,,,,,,,,,,,3558.721555,3558.721555,space,43.0794225,space,None,,3601.823422,3601.823422,13.0655634,,,,,,,,,10,2,1,2024-10-06_21h13.13.981,uWM_experiment,2022.2.3,59.99854803
,,,,,,,,,,,,,,,,,,,,5,0,5,0,,,,,1,0,1,0,,,,,,,,,,,,,,,,,,,,,,,,,,,,,,,,,,,,,,,,,,,,,,,,,,,,,,,,,,,,,,,,,,,,,,,,,,,,,,,,,,,,,,,,,,,,,,,,,,,,,,,,,,,,,,,,,,,,,,,,,,,,,,10,2,1,2024-10-06_21h13.13.981,uWM_experiment,2022.2.3,59.99854803
,,,,,,,,,,,,,,,,,,,,5,0,5,0,,,,,2,0,2,0,,,,,,,,,,,,,,,,,,,,,,,,,,,,,,,,,,,,,,,,,,,,,,,,,,,,,,,,,,,,,,,,,,,,,,,,,,,,,,,,,,,,,,,,,,,,,,,,,,,,,,,,,,,,,,,,,,,,,,,,,,,,,,10,2,1,2024-10-06_21h13.13.981,uWM_experiment,2022.2.3,59.99854803
,,,,,,,,,,,,,,,,,,,,6,0,6,0,0,0,0,0,,,,,,,,,,,,,,,,,,,,,,,,,,,,,,,,,,,,,,,,,,,,,,,,,,,,,,,,,,,,,,,,,,,,,,0.171028411,,,,,,,,,,,,,,,,,,,,3614.907325,3615.607355,3615.907364,3616.607393,3616.907434,3617.607443,3617.607443,3617.924127,left,0,100,30,130,1,3627.691217,3627.691217,3627.691217,None,None,1,1,1.0295802,,,,,,,None,,,,,,,,,,,,10,2,1,2024-10-06_21h13.13.981,uWM_experiment,2022.2.3,59.99854803
,,,,,,,,,,,,,,,,,,,,6,0,6,0,1,0,1,0,,,,,,,,,,,,,,,,,,,,,,,,,,,,,,,,,,,,,,,,,,,,,,,,,,,,,,,,,,,,,,,,,,,,,,0,,,,,,,,,,,,,,,,,,,,,,,,,,,,left,1,160,-30,130,0,3636.424934,3636.424934,3636.424934,None,None,1,1,0.5678185,,,,,,,,,,,,,,,,,,,10,2,1,2024-10-06_21h13.13.981,uWM_experiment,2022.2.3,59.99854803
,,,,,,,,,,,,,,,,,,,,6,0,6,0,2,0,2,0,,,,,,,,,,,,,,,,,,,,,,,,,,,,,,,,,,,,,,,,,,,,,,,,,,,,,,,,,,,,,,,,,,,,,,0.181028411,,,,,,,,,,,,,,,,,,,,,,,,,,,,left,1,40,-30,10,1,3643.79191,3643.79191,3643.79191,None,None,1,1,0.9529072,,,,,,,,,,,,,,,,,,,10,2,1,2024-10-06_21h13.13.981,uWM_experiment,2022.2.3,59.99854803
,,,,,,,,,,,,,,,,,,,,6,0,6,0,3,0,3,0,,,,,,,,,,,,,,,,,,,,,,,,,,,,,,,,,,,,,,,,,,,,,,,,,,,,,,,,,,,,,,,,,,,,,,0.191028411,,,,,,,,,,,,,,,,,,,,,,,,,,,,right,1,10,30,40,1,3653.292352,3653.292352,3653.292352,None,None,2,0,0.8125091,,,,,,,,,,,,,,,,,,,10,2,1,2024-10-06_21h13.13.981,uWM_experiment,2022.2.3,59.99854803
,,,,,,,,,,,,,,,,,,,,6,0,6,0,4,0,4,0,,,,,,,,,,,,,,,,,,,,,,,,,,,,,,,,,,,,,,,,,,,,,,,,,,,,,,,,,,,,,,,,,,,,,,0,,,,,,,,,,,,,,,,,,,,,,,,,,,,right,1,130,30,160,0,3663.776136,3663.776136,3663.776136,None,None,1,1,0.5686077,,,,,,,,,,,,,,,,,,,10,2,1,2024-10-06_21h13.13.981,uWM_experiment,2022.2.3,59.99854803
,,,,,,,,,,,,,,,,,,,,6,0,6,0,5,0,5,0,,,,,,,,,,,,,,,,,,,,,,,,,,,,,,,,,,,,,,,,,,,,,,,,,,,,,,,,,,,,,,,,,,,,,,0.181028411,,,,,,,,,,,,,,,,,,,,,,,,,,,,left,1,160,-30,130,1,3673.643225,3673.643225,3673.643225,None,None,2,0,0.9737422,,,,,,,,,,,,,,,,,,,10,2,1,2024-10-06_21h13.13.981,uWM_experiment,2022.2.3,59.99854803
,,,,,,,,,,,,,,,,,,,,6,0,6,0,6,0,6,0,,,,,,,,,,,,,,,,,,,,,,,,,,,,,,,,,,,,,,,,,,,,,,,,,,,,,,,,,,,,,,,,,,,,,,0.171028411,,,,,,,,,,,,,,,,,,,,,,,,,,,,left,0,100,30,130,1,3681.926923,3681.926923,3681.926923,None,None,2,0,0.5218552,,,,,,,,,,,,,,,,,,,10,2,1,2024-10-06_21h13.13.981,uWM_experiment,2022.2.3,59.99854803
,,,,,,,,,,,,,,,,,,,,6,0,6,0,7,0,7,0,,,,,,,,,,,,,,,,,,,,,,,,,,,,,,,,,,,,,,,,,,,,,,,,,,,,,,,,,,,,,,,,,,,,,,0,,,,,,,,,,,,,,,,,,,,,,,,,,,,right,1,160,30,190,0,3689.743928,3689.743928,3689.743928,None,None,2,0,0.4648794,,,,,,,,,,,,,,,,,,,10,2,1,2024-10-06_21h13.13.981,uWM_experiment,2022.2.3,59.99854803
,,,,,,,,,,,,,,,,,,,,6,0,6,0,8,0,8,0,,,,,,,,,,,,,,,,,,,,,,,,,,,,,,,,,,,,,,,,,,,,,,,,,,,,,,,,,,,,,,,,,,,,,,0.161028411,,,,,,,,,,,,,,,,,,,,,,,,,,,,right,0,70,-30,40,1,3699.444358,3699.444358,3699.444358,None,None,1,1,0.4043882,,,,,,,,,,,,,,,,,,,10,2,1,2024-10-06_21h13.13.981,uWM_experiment,2022.2.3,59.99854803
,,,,,,,,,,,,,,,,,,,,6,0,6,0,9,0,9,0,,,,,,,,,,,,,,,,,,,,,,,,,,,,,,,,,,,,,,,,,,,,,,,,,,,,,,,,,,,,,,,,,,,,,,0.171028411,,,,,,,,,,,,,,,,,,,,,,,,,,,,left,1,100,-30,70,1,3710.078166,3710.078166,3710.078166,None,None,1,1,2.1865554,,,,,,,,,,,,,,,,,,,10,2,1,2024-10-06_21h13.13.981,uWM_experiment,2022.2.3,59.99854803
,,,,,,,,,,,,,,,,,,,,6,0,6,0,10,0,10,0,,,,,,,,,,,,,,,,,,,,,,,,,,,,,,,,,,,,,,,,,,,,,,,,,,,,,,,,,,,,,,,,,,,,,,0.181028411,,,,,,,,,,,,,,,,,,,,,,,,,,,,left,1,100,-30,70,1,3718.828533,3718.828533,3718.828533,None,None,1,1,1.2444203,,,,,,,,,,,,,,,,,,,10,2,1,2024-10-06_21h13.13.981,uWM_experiment,2022.2.3,59.99854803
,,,,,,,,,,,,,,,,,,,,6,0,6,0,11,0,11,0,,,,,,,,,,,,,,,,,,,,,,,,,,,,,,,,,,,,,,,,,,,,,,,,,,,,,,,,,,,,,,,,,,,,,,0,,,,,,,,,,,,,,,,,,,,,,,,,,,,left,1,100,-30,70,0,3730.479039,3730.479039,3730.479039,None,None,1,1,1.7857041,,,,,,,,,,,,,,,,,,,10,2,1,2024-10-06_21h13.13.981,uWM_experiment,2022.2.3,59.99854803
,,,,,,,,,,,,,,,,,,,,6,0,6,0,12,0,12,0,,,,,,,,,,,,,,,,,,,,,,,,,,,,,,,,,,,,,,,,,,,,,,,,,,,,,,,,,,,,,,,,,,,,,,0.191028411,,,,,,,,,,,,,,,,,,,,,,,,,,,,left,1,160,-30,130,1,3741.579527,3741.579527,3741.579527,None,None,2,0,0.5734267,,,,,,,,,,,,,,,,,,,10,2,1,2024-10-06_21h13.13.981,uWM_experiment,2022.2.3,59.99854803
,,,,,,,,,,,,,,,,,,,,6,0,6,0,13,0,13,0,,,,,,,,,,,,,,,,,,,,,,,,,,,,,,,,,,,,,,,,,,,,,,,,,,,,,,,,,,,,,,,,,,,,,,0.181028411,,,,,,,,,,,,,,,,,,,,,,,,,,,,left,0,40,30,70,1,3748.346493,3748.346493,3748.346493,None,None,2,0,1.0222715,,,,,,,,,,,,,,,,,,,10,2,1,2024-10-06_21h13.13.981,uWM_experiment,2022.2.3,59.99854803
,,,,,,,,,,,,,,,,,,,,6,0,6,0,14,0,14,0,,,,,,,,,,,,,,,,,,,,,,,,,,,,,,,,,,,,,,,,,,,,,,,,,,,,,,,,,,,,,,,,,,,,,,0.171028411,,,,,,,,,,,,,,,,,,,,,,,,,,,,left,1,10,-30,-20,1,3756.980199,3756.980199,3756.980199,None,None,1,1,1.8205158,,,,,,,,,,,,,,,,,,,10,2,1,2024-10-06_21h13.13.981,uWM_experiment,2022.2.3,59.99854803
,,,,,,,,,,,,,,,,,,,,6,0,6,0,15,0,15,0,,,,,,,,,,,,,,,,,,,,,,,,,,,,,,,,,,,,,,,,,,,,,,,,,,,,,,,,,,,,,,,,,,,,,,0.181028411,,,,,,,,,,,,,,,,,,,,,,,,,,,,left,0,40,30,70,1,3767.247314,3767.247314,3767.247314,None,None,1,1,0.8654501,,,,,,,,,,,,,,,,,,,10,2,1,2024-10-06_21h13.13.981,uWM_experiment,2022.2.3,59.99854803
,,,,,,,,,,,,,,,,,,,,6,0,6,0,16,0,16,0,,,,,,,,,,,,,,,,,,,,,,,,,,,,,,,,,,,,,,,,,,,,,,,,,,,,,,,,,,,,,,,,,,,,,,0.191028411,,,,,,,,,,,,,,,,,,,,,,,,,,,,left,1,70,-30,40,1,3774.947654,3774.947654,3774.947654,None,None,1,1,0.3891141,,,,,,,,,,,,,,,,,,,10,2,1,2024-10-06_21h13.13.981,uWM_experiment,2022.2.3,59.99854803
,,,,,,,,,,,,,,,,,,,,6,0,6,0,17,0,17,0,,,,,,,,,,,,,,,,,,,,,,,,,,,,,,,,,,,,,,,,,,,,,,,,,,,,,,,,,,,,,,,,,,,,,,0,,,,,,,,,,,,,,,,,,,,,,,,,,,,left,0,130,30,160,0,3787.514859,3787.514859,3787.514859,None,None,1,1,0.9338819,,,,,,,,,,,,,,,,,,,10,2,1,2024-10-06_21h13.13.981,uWM_experiment,2022.2.3,59.99854803
,,,,,,,,,,,,,,,,,,,,6,0,6,0,18,0,18,0,,,,,,,,,,,,,,,,,,,,,,,,,,,,,,,,,,,,,,,,,,,,,,,,,,,,,,,,,,,,,,,,,,,,,,0.201028411,,,,,,,,,,,,,,,,,,,,,,,,,,,,right,1,130,30,160,1,3795.148515,3795.148515,3795.148515,None,None,1,1,0.5243918,,,,,,,,,,,,,,,,,,,10,2,1,2024-10-06_21h13.13.981,uWM_experiment,2022.2.3,59.99854803
,,,,,,,,,,,,,,,,,,,,6,0,6,0,19,0,19,0,,,,,,,,,,,,,,,,,,,,,,,,,,,,,,,,,,,,,,,,,,,,,,,,,,,,,,,,,,,,,,,,,,,,,,0,,,,,,,,,,,,,,,,,,,,,,,,,,,,left,0,70,30,100,0,3802.848855,3802.848855,3802.848855,None,None,1,1,0.6319028,,,,,,,,,,,,,,,,,,,10,2,1,2024-10-06_21h13.13.981,uWM_experiment,2022.2.3,59.99854803
,,,,,,,,,,,,,,,,,,,,6,0,6,0,20,0,20,0,,,,,,,,,,,,,,,,,,,,,,,,,,,,,,,,,,,,,,,,,,,,,,,,,,,,,,,,,,,,,,,,,,,,,,0.211028411,,,,,,,,,,,,,,,,,,,,,,,,,,,,right,1,70,30,100,1,3811.465893,3811.465893,3811.465893,None,None,1,1,3.8388125,,,,,,,,,,,,,,,,,,,10,2,1,2024-10-06_21h13.13.981,uWM_experiment,2022.2.3,59.99854803
,,,,,,,,,,,,,,,,,,,,6,0,6,0,21,0,21,0,,,,,,,,,,,,,,,,,,,,,,,,,,,,,,,,,,,,,,,,,,,,,,,,,,,,,,,,,,,,,,,,,,,,,,0.221028411,,,,,,,,,,,,,,,,,,,,,,,,,,,,right,1,70,30,100,1,3827.966637,3827.966637,3827.966637,None,None,2,0,2.0261695,,,,,,,,,,,,,,,,,,,10,2,1,2024-10-06_21h13.13.981,uWM_experiment,2022.2.3,59.99854803
,,,,,,,,,,,,,,,,,,,,6,0,6,0,22,0,22,0,,,,,,,,,,,,,,,,,,,,,,,,,,,,,,,,,,,,,,,,,,,,,,,,,,,,,,,,,,,,,,,,,,,,,,0,,,,,,,,,,,,,,,,,,,,,,,,,,,,right,0,160,-30,130,0,3837.867069,3837.867069,3837.867069,None,None,1,1,0.5016334,,,,,,,,,,,,,,,,,,,10,2,1,2024-10-06_21h13.13.981,uWM_experiment,2022.2.3,59.99854803
,,,,,,,,,,,,,,,,,,,,6,0,6,0,23,0,23,0,,,,,,,,,,,,,,,,,,,,,,,,,,,,,,,,,,,,,,,,,,,,,,,,,,,,,,,,,,,,,,,,,,,,,,0.211028411,,,,,,,,,,,,,,,,,,,,,,,,,,,,right,1,130,30,160,1,3846.550774,3846.550774,3846.550774,None,None,2,0,1.4981537,,,,,,,,,,,,,,,,,,,10,2,1,2024-10-06_21h13.13.981,uWM_experiment,2022.2.3,59.99854803
,,,,,,,,,,,,,,,,,,,,6,0,6,0,,,,,0,0,0,0,,,,,,,,,,,,,,,,,,,,,,,,,,,,,,,,,,,,,,,,,,,,,,,,,,,,,,,,,,,,,,,,,,,,,,,,,,,,,,,,,,,,,,,,,,,,,,,,,,,,,,,,,,,,3848.067482,3848.067482,space,25.9494455,None,space,,,,,3874.035284,3874.035284,109.8856265,,,,,,10,2,1,2024-10-06_21h13.13.981,uWM_experiment,2022.2.3,59.99854803
,,,,,,,,,,,,,,,,,,,,6,0,6,0,,,,,1,0,1,0,,,,,,,,,,,,,,,,,,,,,,,,,,,,,,,,,,,,,,,,,,,,,,,,,,,,,,,,,,,,,,,,,,,,,,,,,,,,,,,,,,,,,,,,,,,,,,,,,,,,,,,,,,,,,,,,,,,,,,,,,,,,,,10,2,1,2024-10-06_21h13.13.981,uWM_experiment,2022.2.3,59.99854803
,,,,,,,,,,,,,,,,,,,,6,0,6,0,,,,,2,0,2,0,,,,,,,,,,,,,,,,,,,,,,,,,,,,,,,,,,,,,,,,,,,,,,,,,,,,,,,,,,,,,,,,,,,,,,,,,,,,,,,,,,,,,,,,,,,,,,,,,,,,,,,,,,,,,,,,,,,,,,,,,,,,,,10,2,1,2024-10-06_21h13.13.981,uWM_experiment,2022.2.3,59.99854803
,,,,,,,,,,,,,,,,,,,,7,0,7,0,0,0,0,0,,,,,,,,,,,,,,,,,,,,,,,,,,,,,,,,,,,,,,,,,,,,,,,,,,,,,,,,,,,,,,,,,,,,,,0.201028411,,,,,,,,,,,,,,,,,,,,4007.907814,4008.607846,4008.891192,4009.591215,4009.891236,4010.591268,4010.591268,4010.907953,right,0,70,-30,40,1,4019.341665,4019.341665,4019.341665,None,None,2,0,1.4029954,,,,,,,space,,,,,,,4001.624215,4001.624215,6.2646834,,,10,2,1,2024-10-06_21h13.13.981,uWM_experiment,2022.2.3,59.99854803
,,,,,,,,,,,,,,,,,,,,7,0,7,0,1,0,1,0,,,,,,,,,,,,,,,,,,,,,,,,,,,,,,,,,,,,,,,,,,,,,,,,,,,,,,,,,,,,,,,,,,,,,,0,,,,,,,,,,,,,,,,,,,,,,,,,,,,left,1,130,-30,100,0,4027.392008,4027.392008,4027.392008,None,None,1,1,0.4407589,,,,,,,,,,,,,,,,,,,10,2,1,2024-10-06_21h13.13.981,uWM_experiment,2022.2.3,59.99854803
,,,,,,,,,,,,,,,,,,,,7,0,7,0,2,0,2,0,,,,,,,,,,,,,,,,,,,,,,,,,,,,,,,,,,,,,,,,,,,,,,,,,,,,,,,,,,,,,,,,,,,,,,0,,,,,,,,,,,,,,,,,,,,,,,,,,,,right,0,10,-30,-20,0,4038.542489,4038.542489,4038.542489,None,None,1,1,0.4663756,,,,,,,,,,,,,,,,,,,10,2,1,2024-10-06_21h13.13.981,uWM_experiment,2022.2.3,59.99854803
,,,,,,,,,,,,,,,,,,,,7,0,7,0,3,0,3,0,,,,,,,,,,,,,,,,,,,,,,,,,,,,,,,,,,,,,,,,,,,,,,,,,,,,,,,,,,,,,,,,,,,,,,0.191028411,,,,,,,,,,,,,,,,,,,,,,,,,,,,left,0,130,30,160,1,4046.826191,4046.826191,4046.826191,None,None,2,0,1.6225708,,,,,,,,,,,,,,,,,,,10,2,1,2024-10-06_21h13.13.981,uWM_experiment,2022.2.3,59.99854803
,,,,,,,,,,,,,,,,,,,,7,0,7,0,4,0,4,0,,,,,,,,,,,,,,,,,,,,,,,,,,,,,,,,,,,,,,,,,,,,,,,,,,,,,,,,,,,,,,,,,,,,,,0.181028411,,,,,,,,,,,,,,,,,,,,,,,,,,,,right,0,160,-30,130,1,4056.593309,4056.593309,4056.593309,None,None,2,0,10.1274357,,,,,,,,,,,,,,,,,,,10,2,1,2024-10-06_21h13.13.981,uWM_experiment,2022.2.3,59.99854803
,,,,,,,,,,,,,,,,,,,,7,0,7,0,5,0,5,0,,,,,,,,,,,,,,,,,,,,,,,,,,,,,,,,,,,,,,,,,,,,,,,,,,,,,,,,,,,,,,,,,,,,,,0,,,,,,,,,,,,,,,,,,,,,,,,,,,,left,1,100,-30,70,0,4076.727489,4076.727489,4076.727489,None,None,1,1,0.7293389,,,,,,,,,,,,,,,,,,,10,2,1,2024-10-06_21h13.13.981,uWM_experiment,2022.2.3,59.99854803
,,,,,,,,,,,,,,,,,,,,7,0,7,0,6,0,6,0,,,,,,,,,,,,,,,,,,,,,,,,,,,,,,,,,,,,,,,,,,,,,,,,,,,,,,,,,,,,,,,,,,,,,,0.171028411,,,,,,,,,,,,,,,,,,,,,,,,,,,,right,0,130,-30,100,1,4088.294722,4088.294722,4088.294722,None,None,1,1,0.5941096,,,,,,,,,,,,,,,,,,,10,2,1,2024-10-06_21h13.13.981,uWM_experiment,2022.2.3,59.99854803
,,,,,,,,,,,,,,,,,,,,7,0,7,0,7,0,7,0,,,,,,,,,,,,,,,,,,,,,,,,,,,,,,,,,,,,,,,,,,,,,,,,,,,,,,,,,,,,,,,,,,,,,,0.181028411,,,,,,,,,,,,,,,,,,,,,,,,,,,,right,0,40,-30,10,1,4096.461692,4096.461692,4096.461692,None,None,1,1,0.5550558,,,,,,,,,,,,,,,,,,,10,2,1,2024-10-06_21h13.13.981,uWM_experiment,2022.2.3,59.99854803
,,,,,,,,,,,,,,,,,,,,7,0,7,0,8,0,8,0,,,,,,,,,,,,,,,,,,,,,,,,,,,,,,,,,,,,,,,,,,,,,,,,,,,,,,,,,,,,,,,,,,,,,,0.191028411,,,,,,,,,,,,,,,,,,,,,,,,,,,,right,0,100,-30,70,1,4102.811986,4102.811986,4102.811986,None,None,2,0,0.8687219,,,,,,,,,,,,,,,,,,,10,2,1,2024-10-06_21h13.13.981,uWM_experiment,2022.2.3,59.99854803
,,,,,,,,,,,,,,,,,,,,7,0,7,0,9,0,9,0,,,,,,,,,,,,,,,,,,,,,,,,,,,,,,,,,,,,,,,,,,,,,,,,,,,,,,,,,,,,,,,,,,,,,,0,,,,,,,,,,,,,,,,,,,,,,,,,,,,left,1,40,-30,10,0,4111.929021,4111.929021,4111.929021,None,None,1,1,1.6318352,,,,,,,,,,,,,,,,,,,10,2,1,2024-10-06_21h13.13.981,uWM_experiment,2022.2.3,59.99854803
,,,,,,,,,,,,,,,,,,,,7,0,7,0,10,0,10,0,,,,,,,,,,,,,,,,,,,,,,,,,,,,,,,,,,,,,,,,,,,,,,,,,,,,,,,,,,,,,,,,,,,,,,0.181028411,,,,,,,,,,,,,,,,,,,,,,,,,,,,right,1,160,30,190,1,4119.512699,4119.512699,4119.512699,None,None,3,0,2.7840053,,,,,,,,,,,,,,,,,,,10,2,1,2024-10-06_21h13.13.981,uWM_experiment,2022.2.3,59.99854803
,,,,,,,,,,,,,,,,,,,,7,0,7,0,11,0,11,0,,,,,,,,,,,,,,,,,,,,,,,,,,,,,,,,,,,,,,,,,,,,,,,,,,,,,,,,,,,,,,,,,,,,,,0.171028411,,,,,,,,,,,,,,,,,,,,,,,,,,,,left,1,130,-30,100,1,4128.646435,4128.646435,4128.646435,None,None,2,0,1.2183349,,,,,,,,,,,,,,,,,,,10,2,1,2024-10-06_21h13.13.981,uWM_experiment,2022.2.3,59.99854803
,,,,,,,,,,,,,,,,,,,,7,0,7,0,12,0,12,0,,,,,,,,,,,,,,,,,,,,,,,,,,,,,,,,,,,,,,,,,,,,,,,,,,,,,,,,,,,,,,,,,,,,,,0.161028411,,,,,,,,,,,,,,,,,,,,,,,,,,,,right,0,160,-30,130,1,4136.613455,4136.613455,4136.613455,None,None,2,0,2.5394045,,,,,,,,,,,,,,,,,,,10,2,1,2024-10-06_21h13.13.981,uWM_experiment,2022.2.3,59.99854803
,,,,,,,,,,,,,,,,,,,,7,0,7,0,13,0,13,0,,,,,,,,,,,,,,,,,,,,,,,,,,,,,,,,,,,,,,,,,,,,,,,,,,,,,,,,,,,,,,,,,,,,,,0.151028411,,,,,,,,,,,,,,,,,,,,,,,,,,,,left,0,160,30,190,1,4148.313964,4148.313964,4148.313964,None,None,2,0,1.3346609,,,,,,,,,,,,,,,,,,,10,2,1,2024-10-06_21h13.13.981,uWM_experiment,2022.2.3,59.99854803
,,,,,,,,,,,,,,,,,,,,7,0,7,0,14,0,14,0,,,,,,,,,,,,,,,,,,,,,,,,,,,,,,,,,,,,,,,,,,,,,,,,,,,,,,,,,,,,,,,,,,,,,,0.141028411,,,,,,,,,,,,,,,,,,,,,,,,,,,,left,1,130,-30,100,1,4156.130996,4156.130996,4156.130996,None,None,1,1,0.5978921,,,,,,,,,,,,,,,,,,,10,2,1,2024-10-06_21h13.13.981,uWM_experiment,2022.2.3,59.99854803
,,,,,,,,,,,,,,,,,,,,7,0,7,0,15,0,15,0,,,,,,,,,,,,,,,,,,,,,,,,,,,,,,,,,,,,,,,,,,,,,,,,,,,,,,,,,,,,,,,,,,,,,,0.151028411,,,,,,,,,,,,,,,,,,,,,,,,,,,,left,1,70,-30,40,1,4163.84795,4163.84795,4163.84795,None,None,2,0,2.4969018,,,,,,,,,,,,,,,,,,,10,2,1,2024-10-06_21h13.13.981,uWM_experiment,2022.2.3,59.99854803
,,,,,,,,,,,,,,,,,,,,7,0,7,0,16,0,16,0,,,,,,,,,,,,,,,,,,,,,,,,,,,,,,,,,,,,,,,,,,,,,,,,,,,,,,,,,,,,,,,,,,,,,,0.141028411,,,,,,,,,,,,,,,,,,,,,,,,,,,,right,1,10,30,40,1,4178.531958,4178.531958,4178.531958,None,None,2,0,2.6447734,,,,,,,,,,,,,,,,,,,10,2,1,2024-10-06_21h13.13.981,uWM_experiment,2022.2.3,59.99854803
,,,,,,,,,,,,,,,,,,,,7,0,7,0,17,0,17,0,,,,,,,,,,,,,,,,,,,,,,,,,,,,,,,,,,,,,,,,,,,,,,,,,,,,,,,,,,,,,,,,,,,,,,0.131028411,,,,,,,,,,,,,,,,,,,,,,,,,,,,left,0,130,30,160,1,4188.665717,4188.665717,4188.665717,None,None,1,1,4.3111474,,,,,,,,,,,,,,,,,,,10,2,1,2024-10-06_21h13.13.981,uWM_experiment,2022.2.3,59.99854803
,,,,,,,,,,,,,,,,,,,,7,0,7,0,18,0,18,0,,,,,,,,,,,,,,,,,,,,,,,,,,,,,,,,,,,,,,,,,,,,,,,,,,,,,,,,,,,,,,,,,,,,,,0.141028411,,,,,,,,,,,,,,,,,,,,,,,,,,,,right,1,70,30,100,1,4199.43288,4199.43288,4199.43288,None,None,2,0,2.2959705,,,,,,,,,,,,,,,,,,,10,2,1,2024-10-06_21h13.13.981,uWM_experiment,2022.2.3,59.99854803
,,,,,,,,,,,,,,,,,,,,7,0,7,0,19,0,19,0,,,,,,,,,,,,,,,,,,,,,,,,,,,,,,,,,,,,,,,,,,,,,,,,,,,,,,,,,,,,,,,,,,,,,,0.131028411,,,,,,,,,,,,,,,,,,,,,,,,,,,,right,0,10,-30,-20,1,4209.350009,4209.350009,4209.350009,None,None,1,1,1.5308353,,,,,,,,,,,,,,,,,,,10,2,1,2024-10-06_21h13.13.981,uWM_experiment,2022.2.3,59.99854803
,,,,,,,,,,,,,,,,,,,,7,0,7,0,20,0,20,0,,,,,,,,,,,,,,,,,,,,,,,,,,,,,,,,,,,,,,,,,,,,,,,,,,,,,,,,,,,,,,,,,,,,,,0.141028411,,,,,,,,,,,,,,,,,,,,,,,,,,,,left,0,160,30,190,1,4218.833714,4218.833714,4218.833714,None,None,2,0,1.6388962,,,,,,,,,,,,,,,,,,,10,2,1,2024-10-06_21h13.13.981,uWM_experiment,2022.2.3,59.99854803
,,,,,,,,,,,,,,,,,,,,7,0,7,0,21,0,21,0,,,,,,,,,,,,,,,,,,,,,,,,,,,,,,,,,,,,,,,,,,,,,,,,,,,,,,,,,,,,,,,,,,,,,,0.131028411,,,,,,,,,,,,,,,,,,,,,,,,,,,,left,0,10,30,40,1,4229.267513,4229.267513,4229.267513,None,None,2,0,1.0291192,,,,,,,,,,,,,,,,,,,10,2,1,2024-10-06_21h13.13.981,uWM_experiment,2022.2.3,59.99854803
,,,,,,,,,,,,,,,,,,,,7,0,7,0,22,0,22,0,,,,,,,,,,,,,,,,,,,,,,,,,,,,,,,,,,,,,,,,,,,,,,,,,,,,,,,,,,,,,,,,,,,,,,0.121028411,,,,,,,,,,,,,,,,,,,,,,,,,,,,right,0,40,-30,10,1,4236.017799,4236.017799,4236.017799,None,None,1,1,0.3749046,,,,,,,,,,,,,,,,,,,10,2,1,2024-10-06_21h13.13.981,uWM_experiment,2022.2.3,59.99854803
,,,,,,,,,,,,,,,,,,,,7,0,7,0,23,0,23,0,,,,,,,,,,,,,,,,,,,,,,,,,,,,,,,,,,,,,,,,,,,,,,,,,,,,,,,,,,,,,,,,,,,,,,0.131028411,,,,,,,,,,,,,,,,,,,,,,,,,,,,right,0,130,-30,100,1,4242.38475,4242.38475,4242.38475,None,None,1,1,0.4240906,,,,,,,,,,,,,,,,,,,10,2,1,2024-10-06_21h13.13.981,uWM_experiment,2022.2.3,59.99854803
,,,,,,,,,,,,,,,,,,,,7,0,7,0,,,,,0,0,0,0,,,,,,,,,,,,,,,,,,,,,,,,,,,,,,,,,,,,,,,,,,,,,,,,,,,,,,,,,,,,,,,,,,,,,,,,,,,,,,,,,,,,,,,,,,,,,,,,,,,,,,,,,,,,4242.834732,4242.834732,space,36.6541009,None,None,,,,,,,,,,,,,10,2,1,2024-10-06_21h13.13.981,uWM_experiment,2022.2.3,59.99854803
,,,,,,,,,,,,,,,,,,,,7,0,7,0,,,,,1,0,1,0,,,,,,,,,,,,,,,,,,,,,,,,,,,,,,,,,,,,,,,,,,,,,,,,,,,,,,,,,,,,,,,,,,,,,,,,,,,,,,,,,,,,,,,,,,,,,,,,,,,,,,,,,,,,,,,,,,,,,,,,,,,,,,10,2,1,2024-10-06_21h13.13.981,uWM_experiment,2022.2.3,59.99854803
,,,,,,,,,,,,,,,,,,,,7,0,7,0,,,,,2,0,2,0,,,,,,,,,,,,,,,,,,,,,,,,,,,,,,,,,,,,,,,,,,,,,,,,,,,,,,,,,,,,,,,,,,,,,,,,,,,,,,,,,,,,,,,,,,,,,,,,,,,,,,,,,,,,,,,,,,,,,,,,,,,,,,10,2,1,2024-10-06_21h13.13.981,uWM_experiment,2022.2.3,59.99854803
,,,,,,,,,,,,,,,,,,,,8,0,8,0,0,0,0,0,,,,,,,,,,,,,,,,,,,,,,,,,,,,,,,,,,,,,,,,,,,,,,,,,,,,,,,,,,,,,,,,,,,,,,0,,,,,,,,,,,,,,,,,,,,4279.519677,4280.219703,4280.519763,4281.219749,4281.51976,4282.219791,4282.219791,4282.536479,left,0,10,30,40,0,4290.570176,4290.570176,4290.570176,None,None,1,1,2.2306208,,,,,,,None,,,,,,,,,,,,10,2,1,2024-10-06_21h13.13.981,uWM_experiment,2022.2.3,59.99854803
,,,,,,,,,,,,,,,,,,,,8,0,8,0,1,0,1,0,,,,,,,,,,,,,,,,,,,,,,,,,,,,,,,,,,,,,,,,,,,,,,,,,,,,,,,,,,,,,,,,,,,,,,0.1,,,,,,,,,,,,,,,,,,,,,,,,,,,,left,1,70,-30,40,2,4301.870663,4301.870663,4301.870663,None,None,4,0,2.1301595,,,,,,,,,,,,,,,,,,,10,2,1,2024-10-06_21h13.13.981,uWM_experiment,2022.2.3,59.99854803
,,,,,,,,,,,,,,,,,,,,8,0,8,0,2,0,2,0,,,,,,,,,,,,,,,,,,,,,,,,,,,,,,,,,,,,,,,,,,,,,,,,,,,,,,,,,,,,,,,,,,,,,,0.141028411,,,,,,,,,,,,,,,,,,,,,,,,,,,,left,0,10,30,40,1,4313.071135,4313.071135,4313.071135,None,None,2,0,1.4337668,,,,,,,,,,,,,,,,,,,10,2,1,2024-10-06_21h13.13.981,uWM_experiment,2022.2.3,59.99854803
,,,,,,,,,,,,,,,,,,,,8,0,8,0,3,0,3,0,,,,,,,,,,,,,,,,,,,,,,,,,,,,,,,,,,,,,,,,,,,,,,,,,,,,,,,,,,,,,,,,,,,,,,0.131028411,,,,,,,,,,,,,,,,,,,,,,,,,,,,right,1,100,30,130,1,4320.738143,4320.738143,4320.738143,None,None,2,0,1.1264158,,,,,,,,,,,,,,,,,,,10,2,1,2024-10-06_21h13.13.981,uWM_experiment,2022.2.3,59.99854803
,,,,,,,,,,,,,,,,,,,,8,0,8,0,4,0,4,0,,,,,,,,,,,,,,,,,,,,,,,,,,,,,,,,,,,,,,,,,,,,,,,,,,,,,,,,,,,,,,,,,,,,,,0.121028411,,,,,,,,,,,,,,,,,,,,,,,,,,,,left,0,10,30,40,1,4329.788533,4329.788533,4329.788533,None,None,1,1,0.7402778,,,,,,,,,,,,,,,,,,,10,2,1,2024-10-06_21h13.13.981,uWM_experiment,2022.2.3,59.99854803
,,,,,,,,,,,,,,,,,,,,8,0,8,0,5,0,5,0,,,,,,,,,,,,,,,,,,,,,,,,,,,,,,,,,,,,,,,,,,,,,,,,,,,,,,,,,,,,,,,,,,,,,,0.131028411,,,,,,,,,,,,,,,,,,,,,,,,,,,,left,1,70,-30,40,1,4338.355552,4338.355552,4338.355552,None,None,2,0,1.2131252,,,,,,,,,,,,,,,,,,,10,2,1,2024-10-06_21h13.13.981,uWM_experiment,2022.2.3,59.99854803
,,,,,,,,,,,,,,,,,,,,8,0,8,0,6,0,6,0,,,,,,,,,,,,,,,,,,,,,,,,,,,,,,,,,,,,,,,,,,,,,,,,,,,,,,,,,,,,,,,,,,,,,,0.121028411,,,,,,,,,,,,,,,,,,,,,,,,,,,,right,1,10,30,40,1,4346.922589,4346.922589,4346.922589,None,None,2,0,0.7982125,,,,,,,,,,,,,,,,,,,10,2,1,2024-10-06_21h13.13.981,uWM_experiment,2022.2.3,59.99854803
,,,,,,,,,,,,,,,,,,,,8,0,8,0,7,0,7,0,,,,,,,,,,,,,,,,,,,,,,,,,,,,,,,,,,,,,,,,,,,,,,,,,,,,,,,,,,,,,,,,,,,,,,0.111028411,,,,,,,,,,,,,,,,,,,,,,,,,,,,left,0,40,30,70,1,4356.30634,4356.30634,4356.30634,None,None,1,1,1.6783476,,,,,,,,,,,,,,,,,,,10,2,1,2024-10-06_21h13.13.981,uWM_experiment,2022.2.3,59.99854803
,,,,,,,,,,,,,,,,,,,,8,0,8,0,8,0,8,0,,,,,,,,,,,,,,,,,,,,,,,,,,,,,,,,,,,,,,,,,,,,,,,,,,,,,,,,,,,,,,,,,,,,,,0,,,,,,,,,,,,,,,,,,,,,,,,,,,,right,0,130,-30,100,0,4368.656866,4368.656866,4368.656866,None,None,1,1,0.6158544,,,,,,,,,,,,,,,,,,,10,2,1,2024-10-06_21h13.13.981,uWM_experiment,2022.2.3,59.99854803
,,,,,,,,,,,,,,,,,,,,8,0,8,0,9,0,9,0,,,,,,,,,,,,,,,,,,,,,,,,,,,,,,,,,,,,,,,,,,,,,,,,,,,,,,,,,,,,,,,,,,,,,,0,,,,,,,,,,,,,,,,,,,,,,,,,,,,right,0,70,-30,40,0,4378.323975,4378.323975,4378.323975,None,None,1,1,0.4606611,,,,,,,,,,,,,,,,,,,10,2,1,2024-10-06_21h13.13.981,uWM_experiment,2022.2.3,59.99854803
,,,,,,,,,,,,,,,,,,,,8,0,8,0,10,0,10,0,,,,,,,,,,,,,,,,,,,,,,,,,,,,,,,,,,,,,,,,,,,,,,,,,,,,,,,,,,,,,,,,,,,,,,0.121028411,,,,,,,,,,,,,,,,,,,,,,,,,,,,left,1,10,-30,-20,1,4384.790944,4384.790944,4384.790944,None,None,1,1,0.5217634,,,,,,,,,,,,,,,,,,,10,2,1,2024-10-06_21h13.13.981,uWM_experiment,2022.2.3,59.99854803
,,,,,,,,,,,,,,,,,,,,8,0,8,0,11,0,11,0,,,,,,,,,,,,,,,,,,,,,,,,,,,,,,,,,,,,,,,,,,,,,,,,,,,,,,,,,,,,,,,,,,,,,,0.131028411,,,,,,,,,,,,,,,,,,,,,,,,,,,,right,0,70,-30,40,1,4395.891405,4395.891405,4395.891405,None,None,1,1,0.62124,,,,,,,,,,,,,,,,,,,10,2,1,2024-10-06_21h13.13.981,uWM_experiment,2022.2.3,59.99854803
,,,,,,,,,,,,,,,,,,,,8,0,8,0,12,0,12,0,,,,,,,,,,,,,,,,,,,,,,,,,,,,,,,,,,,,,,,,,,,,,,,,,,,,,,,,,,,,,,,,,,,,,,0.1,,,,,,,,,,,,,,,,,,,,,,,,,,,,left,1,70,-30,40,2,4403.991769,4403.991769,4403.991769,None,None,4,0,0.9048021,,,,,,,,,,,,,,,,,,,10,2,1,2024-10-06_21h13.13.981,uWM_experiment,2022.2.3,59.99854803
,,,,,,,,,,,,,,,,,,,,8,0,8,0,13,0,13,0,,,,,,,,,,,,,,,,,,,,,,,,,,,,,,,,,,,,,,,,,,,,,,,,,,,,,,,,,,,,,,,,,,,,,,0.141028411,,,,,,,,,,,,,,,,,,,,,,,,,,,,left,1,70,-30,40,1,4417.509003,4417.509003,4417.509003,None,None,1,1,0.9477887,,,,,,,,,,,,,,,,,,,10,2,1,2024-10-06_21h13.13.981,uWM_experiment,2022.2.3,59.99854803
,,,,,,,,,,,,,,,,,,,,8,0,8,0,14,0,14,0,,,,,,,,,,,,,,,,,,,,,,,,,,,,,,,,,,,,,,,,,,,,,,,,,,,,,,,,,,,,,,,,,,,,,,0.151028411,,,,,,,,,,,,,,,,,,,,,,,,,,,,right,0,100,-30,70,1,4424.125974,4424.125974,4424.125974,None,None,1,1,0.9948134,,,,,,,,,,,,,,,,,,,10,2,1,2024-10-06_21h13.13.981,uWM_experiment,2022.2.3,59.99854803
,,,,,,,,,,,,,,,,,,,,8,0,8,0,15,0,15,0,,,,,,,,,,,,,,,,,,,,,,,,,,,,,,,,,,,,,,,,,,,,,,,,,,,,,,,,,,,,,,,,,,,,,,0,,,,,,,,,,,,,,,,,,,,,,,,,,,,right,1,70,30,100,0,4433.443019,4433.443019,4433.443019,None,None,1,1,0.6297622,,,,,,,,,,,,,,,,,,,10,2,1,2024-10-06_21h13.13.981,uWM_experiment,2022.2.3,59.99854803
,,,,,,,,,,,,,,,,,,,,8,0,8,0,16,0,16,0,,,,,,,,,,,,,,,,,,,,,,,,,,,,,,,,,,,,,,,,,,,,,,,,,,,,,,,,,,,,,,,,,,,,,,0.161028411,,,,,,,,,,,,,,,,,,,,,,,,,,,,left,1,10,-30,-20,1,4440.210093,4440.210093,4440.210093,None,None,2,0,1.1344492,,,,,,,,,,,,,,,,,,,10,2,1,2024-10-06_21h13.13.981,uWM_experiment,2022.2.3,59.99854803
,,,,,,,,,,,,,,,,,,,,8,0,8,0,17,0,17,0,,,,,,,,,,,,,,,,,,,,,,,,,,,,,,,,,,,,,,,,,,,,,,,,,,,,,,,,,,,,,,,,,,,,,,0.151028411,,,,,,,,,,,,,,,,,,,,,,,,,,,,left,1,10,-30,-20,1,4447.243645,4447.243645,4447.243645,None,None,2,0,0.8049384,,,,,,,,,,,,,,,,,,,10,2,1,2024-10-06_21h13.13.981,uWM_experiment,2022.2.3,59.99854803
,,,,,,,,,,,,,,,,,,,,8,0,8,0,18,0,18,0,,,,,,,,,,,,,,,,,,,,,,,,,,,,,,,,,,,,,,,,,,,,,,,,,,,,,,,,,,,,,,,,,,,,,,0.141028411,,,,,,,,,,,,,,,,,,,,,,,,,,,,left,1,160,-30,130,1,4453.893938,4453.893938,4453.893938,None,None,1,1,0.5546174,,,,,,,,,,,,,,,,,,,10,2,1,2024-10-06_21h13.13.981,uWM_experiment,2022.2.3,59.99854803
,,,,,,,,,,,,,,,,,,,,8,0,8,0,19,0,19,0,,,,,,,,,,,,,,,,,,,,,,,,,,,,,,,,,,,,,,,,,,,,,,,,,,,,,,,,,,,,,,,,,,,,,,0.151028411,,,,,,,,,,,,,,,,,,,,,,,,,,,,right,1,160,30,190,1,4461.877609,4461.877609,4461.877609,None,None,2,0,0.7951687,,,,,,,,,,,,,,,,,,,10,2,1,2024-10-06_21h13.13.981,uWM_experiment,2022.2.3,59.99854803
,,,,,,,,,,,,,,,,,,,,8,0,8,0,20,0,20,0,,,,,,,,,,,,,,,,,,,,,,,,,,,,,,,,,,,,,,,,,,,,,,,,,,,,,,,,,,,,,,,,,,,,,,0,,,,,,,,,,,,,,,,,,,,,,,,,,,,right,0,100,-30,70,0,4469.244612,4469.244612,4469.244612,None,None,1,1,0.6281621,,,,,,,,,,,,,,,,,,,10,2,1,2024-10-06_21h13.13.981,uWM_experiment,2022.2.3,59.99854803
,,,,,,,,,,,,,,,,,,,,8,0,8,0,21,0,21,0,,,,,,,,,,,,,,,,,,,,,,,,,,,,,,,,,,,,,,,,,,,,,,,,,,,,,,,,,,,,,,,,,,,,,,0,,,,,,,,,,,,,,,,,,,,,,,,,,,,right,1,160,30,190,0,4478.545025,4478.545025,4478.545025,None,None,1,1,0.9355344,,,,,,,,,,,,,,,,,,,10,2,1,2024-10-06_21h13.13.981,uWM_experiment,2022.2.3,59.99854803
,,,,,,,,,,,,,,,,,,,,8,0,8,0,22,0,22,0,,,,,,,,,,,,,,,,,,,,,,,,,,,,,,,,,,,,,,,,,,,,,,,,,,,,,,,,,,,,,,,,,,,,,,0.1,,,,,,,,,,,,,,,,,,,,,,,,,,,,left,1,10,-30,-20,2,4485.81197,4485.81197,4485.81197,None,None,4,0,1.2767988,,,,,,,,,,,,,,,,,,,10,2,1,2024-10-06_21h13.13.981,uWM_experiment,2022.2.3,59.99854803
,,,,,,,,,,,,,,,,,,,,8,0,8,0,23,0,23,0,,,,,,,,,,,,,,,,,,,,,,,,,,,,,,,,,,,,,,,,,,,,,,,,,,,,,,,,,,,,,,,,,,,,,,0.141028411,,,,,,,,,,,,,,,,,,,,,,,,,,,,left,1,10,-30,-20,1,4495.179059,4495.179059,4495.179059,None,None,2,0,1.3975626,,,,,,,,,,,,,,,,,,,10,2,1,2024-10-06_21h13.13.981,uWM_experiment,2022.2.3,59.99854803
,,,,,,,,,,,,,,,,,,,,8,0,8,0,,,,,0,0,0,0,,,,,,,,,,,,,,,,,,,,,,,,,,,,,,,,,,,,,,,,,,,,,,,,,,,,,,,,,,,,,,,,,,,,,,,,,,,,,,,,,,,,,,,,,,,,,,,,,,,,,,,,,,,,4496.595779,4496.595779,space,41.4848754,space,None,,4538.097595,4538.097595,15.3350711,,,,,,,,,10,2,1,2024-10-06_21h13.13.981,uWM_experiment,2022.2.3,59.99854803
,,,,,,,,,,,,,,,,,,,,8,0,8,0,,,,,1,0,1,0,,,,,,,,,,,,,,,,,,,,,,,,,,,,,,,,,,,,,,,,,,,,,,,,,,,,,,,,,,,,,,,,,,,,,,,,,,,,,,,,,,,,,,,,,,,,,,,,,,,,,,,,,,,,,,,,,,,,,,,,,,,,,,10,2,1,2024-10-06_21h13.13.981,uWM_experiment,2022.2.3,59.99854803
,,,,,,,,,,,,,,,,,,,,8,0,8,0,,,,,2,0,2,0,,,,,,,,,,,,,,,,,,,,,,,,,,,,,,,,,,,,,,,,,,,,,,,,,,,,,,,,,,,,,,,,,,,,,,,,,,,,,,,,,,,,,,,,,,,,,,,,,,,,,,,,,,,,,,,,,,,,,,,,,,,,,,10,2,1,2024-10-06_21h13.13.981,uWM_experiment,2022.2.3,59.99854803
,,,,,,,,,,,,,,,,,,,,9,0,9,0,0,0,0,0,,,,,,,,,,,,,,,,,,,,,,,,,,,,,,,,,,,,,,,,,,,,,,,,,,,,,,,,,,,,,,,,,,,,,,0.131028411,,,,,,,,,,,,,,,,,,,,4553.464922,4554.164966,4554.464976,4555.165012,4555.465026,4556.165054,4556.165054,4556.481741,right,1,10,30,40,1,4562.281998,4562.281998,4562.281998,None,None,1,1,1.6705306,,,,,,,None,,,,,,,,,,,,10,2,1,2024-10-06_21h13.13.981,uWM_experiment,2022.2.3,59.99854803
,,,,,,,,,,,,,,,,,,,,9,0,9,0,1,0,1,0,,,,,,,,,,,,,,,,,,,,,,,,,,,,,,,,,,,,,,,,,,,,,,,,,,,,,,,,,,,,,,,,,,,,,,0,,,,,,,,,,,,,,,,,,,,,,,,,,,,left,0,70,30,100,0,4570.615706,4570.615706,4570.615706,None,None,1,1,1.1130195,,,,,,,,,,,,,,,,,,,10,2,1,2024-10-06_21h13.13.981,uWM_experiment,2022.2.3,59.99854803
,,,,,,,,,,,,,,,,,,,,9,0,9,0,2,0,2,0,,,,,,,,,,,,,,,,,,,,,,,,,,,,,,,,,,,,,,,,,,,,,,,,,,,,,,,,,,,,,,,,,,,,,,0.141028411,,,,,,,,,,,,,,,,,,,,,,,,,,,,left,1,40,-30,10,1,4577.699354,4577.699354,4577.699354,None,None,2,0,1.3653726,,,,,,,,,,,,,,,,,,,10,2,1,2024-10-06_21h13.13.981,uWM_experiment,2022.2.3,59.99854803
,,,,,,,,,,,,,,,,,,,,9,0,9,0,3,0,3,0,,,,,,,,,,,,,,,,,,,,,,,,,,,,,,,,,,,,,,,,,,,,,,,,,,,,,,,,,,,,,,,,,,,,,,0.131028411,,,,,,,,,,,,,,,,,,,,,,,,,,,,left,1,130,-30,100,1,4585.833021,4585.833021,4585.833021,None,None,2,0,1.5755694,,,,,,,,,,,,,,,,,,,10,2,1,2024-10-06_21h13.13.981,uWM_experiment,2022.2.3,59.99854803
,,,,,,,,,,,,,,,,,,,,9,0,9,0,4,0,4,0,,,,,,,,,,,,,,,,,,,,,,,,,,,,,,,,,,,,,,,,,,,,,,,,,,,,,,,,,,,,,,,,,,,,,,0.121028411,,,,,,,,,,,,,,,,,,,,,,,,,,,,left,1,10,-30,-20,1,4596.050135,4596.050135,4596.050135,None,None,2,0,1.5505139,,,,,,,,,,,,,,,,,,,10,2,1,2024-10-06_21h13.13.981,uWM_experiment,2022.2.3,59.99854803
,,,,,,,,,,,,,,,,,,,,9,0,9,0,5,0,5,0,,,,,,,,,,,,,,,,,,,,,,,,,,,,,,,,,,,,,,,,,,,,,,,,,,,,,,,,,,,,,,,,,,,,,,0.111028411,,,,,,,,,,,,,,,,,,,,,,,,,,,,left,0,130,30,160,1,4606.000558,4606.000558,4606.000558,None,None,1,1,1.3359565,,,,,,,,,,,,,,,,,,,10,2,1,2024-10-06_21h13.13.981,uWM_experiment,2022.2.3,59.99854803
,,,,,,,,,,,,,,,,,,,,9,0,9,0,6,0,6,0,,,,,,,,,,,,,,,,,,,,,,,,,,,,,,,,,,,,,,,,,,,,,,,,,,,,,,,,,,,,,,,,,,,,,,0.121028411,,,,,,,,,,,,,,,,,,,,,,,,,,,,right,0,100,-30,70,1,4619.517815,4619.517815,4619.517815,None,None,2,0,4.7469208,,,,,,,,,,,,,,,,,,,10,2,1,2024-10-06_21h13.13.981,uWM_experiment,2022.2.3,59.99854803
,,,,,,,,,,,,,,,,,,,,9,0,9,0,7,0,7,0,,,,,,,,,,,,,,,,,,,,,,,,,,,,,,,,,,,,,,,,,,,,,,,,,,,,,,,,,,,,,,,,,,,,,,0.111028411,,,,,,,,,,,,,,,,,,,,,,,,,,,,right,0,160,-30,130,1,4633.285092,4633.285092,4633.285092,None,None,2,0,4.0194132,,,,,,,,,,,,,,,,,,,10,2,1,2024-10-06_21h13.13.981,uWM_experiment,2022.2.3,59.99854803
