PreTrainingPAS4_loop.thisRepN,PreTrainingPAS4_loop.thisTrialN,PreTrainingPAS4_loop.thisN,PreTrainingPAS4_loop.thisIndex,PreTrainingPAS1_loop.thisRepN,PreTrainingPAS1_loop.thisTrialN,PreTrainingPAS1_loop.thisN,PreTrainingPAS1_loop.thisIndex,RepeatCV_loop.thisRepN,RepeatCV_loop.thisTrialN,RepeatCV_loop.thisN,RepeatCV_loop.thisIndex,TrainingCV_loop.thisRepN,TrainingCV_loop.thisTrialN,TrainingCV_loop.thisN,TrainingCV_loop.thisIndex,TrainingCAL_loop.thisRepN,TrainingCAL_loop.thisTrialN,TrainingCAL_loop.thisN,TrainingCAL_loop.thisIndex,blocks_loop.thisRepN,blocks_loop.thisTrialN,blocks_loop.thisN,blocks_loop.thisIndex,trials_loop.thisRepN,trials_loop.thisTrialN,trials_loop.thisN,trials_loop.thisIndex,TrainingPAS1_loop.thisRepN,TrainingPAS1_loop.thisTrialN,TrainingPAS1_loop.thisN,TrainingPAS1_loop.thisIndex,spacebarWelcome0.started,spacebarWelcome0.keys,spacebarWelcome0.rt,spacebarWelcome1.started,gaborWelcome1.started,maskWelcome1.started,textMaskWelcome1.started,spacebarWelcome1.keys,spacebarWelcome1.rt,spacebarWelcome2.started,spacebarWelcome2.keys,spacebarWelcome2.rt,textInst_PreTrainingPAS4.started,spacebarPreTrainingPAS4.started,spacebarPreTrainingPAS4.keys,spacebarPreTrainingPAS4.rt,textPreTrainingPAS1.started,spacebarPreTrainingPAS1.started,spacebarPreTrainingPAS1.keys,spacebarPreTrainingPAS1.rt,textQUEST0.started,spacebarQUEST0.started,spacebarQUEST0.keys,spacebarQUEST0.rt,spacebar0.started,spacebar0.keys,spacebar0.rt,spacebar1.started,spacebar1.keys,spacebar1.rt,textInstructions2.started,spacebar2.started,Gabor1Inst2.started,Gabor2Inst2.started,Gabor3Inst2.started,Gabor4Inst2.started,spacebar2.keys,spacebar2.rt,textInstructionsPAS.started,spacebarInstPAS.started,spacebarInstPAS.keys,spacebarInstPAS.rt,textInstructions3.started,spacebar3.started,spacebar3.keys,spacebar3.rt,WMresp_CV,WMresp_CV_acc,oriMemo_CV,gyre_CV,oriTest_CV,feedbackText.started,feedbackText.stopped,sliderCV.started,PAStextCV.started,PASkeyCV.started,sliderCV.response,sliderCV.rt,PASkeyCV.keys,PASkeyCV.corr,PASkeyCV.rt,TextInstructionsCAL.started,spacebarCAL.started,spacebarCAL.keys,spacebarCAL.rt,contrast,WMresp_CAL,WMresp_CAL_acc,oriMemo_CAL,gyre_CAL,oriTest_CAL,cue_CAL,sliderCAL.started,PAStextCAL.started,PASkeyCAL.started,sliderCAL.response,sliderCAL.rt,PASkeyCAL.keys,PASkeyCAL.corr,PASkeyCAL.rt,propUnseen_CAL,textStart.started,spacebar4.started,spacebar4.keys,spacebar4.rt,three.started,three.stopped,two.started,two.stopped,one.started,one.stopped,blank_countdown.started,blank_countdown.stopped,WMresp,WMresp_acc,oriMemo,gyre,oriTest,cue,slider.started,textPAS_firstGabor.started,PASkey.started,slider.response,slider.rt,PASkey.keys,PASkey.corr,PASkey.rt,spacebarContinue.started,textBreak.started,spacebarContinue.keys,spacebarContinue.rt,spacebar_reminder.keys,spacebar_TrainingPAS1.keys,spacebar_endpractice.keys,spacebar_reminder.started,textReminder.started,spacebar_reminder.rt,textInst_TrainingPAS1.started,spacebar_TrainingPAS1.started,spacebar_TrainingPAS1.rt,textend_practicePAS1.started,spacebar_endpractice.started,spacebar_endpractice.rt,textThanks.started,buttonURL.started,buttonURL.numClicks,buttonURL.timesOn,buttonURL.timesOff,laboratory,participant,session,date,expName,psychopyVersion,frameRate
,,,,,,,,,,,,,,,,,,,,,,,,,,,,,,,,56.1179551,space,128.1688902,,,,,,,,,,,,,,,,,,,,,,,,,,,,,,,,,,,,,,,,,,,,,,,,,,,,,,,,,,,,,,,,,,,,,,,,,,,,,,,,,,,,,,,,,,,,,,,,,,,,,,,,,,,,,,,,,,,,,,,,,,,,,,10,2,2,2024-10-14_21h00.12.626,uWM_experiment,2022.2.3,59.97821591
,,,,,,,,,,,,,,,,,,,,,,,,,,,,,,,,,,,184.3233261,184.3233261,184.3233261,184.3233261,space,15.81155,,,,,,,,,,,,,,,,,,,,,,,,,,,,,,,,,,,,,,,,,,,,,,,,,,,,,,,,,,,,,,,,,,,,,,,,,,,,,,,,,,,,,,,,,,,,,,,,,,,,,,,,,,,,,,,,,,,,,,,,10,2,2,2024-10-14_21h00.12.626,uWM_experiment,2022.2.3,59.97821591
,,,,,,,,,,,,,,,,,,,,,,,,,,,,,,,,,,,,,,,,,200.1573155,space,13.1455293,,,,,,,,,,,,,,,,,,,,,,,,,,,,,,,,,,,,,,,,,,,,,,,,,,,,,,,,,,,,,,,,,,,,,,,,,,,,,,,,,,,,,,,,,,,,,,,,,,,,,,,,,,,,,,,,,,,,,10,2,2,2024-10-14_21h00.12.626,uWM_experiment,2022.2.3,59.97821591
,,,,,,,,,,,,,,,,,,,,,,,,,,,,,,,,,,,,,,,,,,,,213.324573,213.324573,space,3.3621111,,,,,,,,,,,,,,,,,,,,,,,,,,,,,,,,,,,,,,,,,,,,,,,,,,,,,,,,,,,,,,,,,,,,,,,,,,,,,,,,,,,,,,,,,,,,,,,,,,,,,,,,,,,,,,,,,10,2,2,2024-10-14_21h00.12.626,uWM_experiment,2022.2.3,59.97821591
0,0,0,0,,,,,,,,,,,,,,,,,,,,,,,,,,,,,,,,,,,,,,,,,,,,,,,,,,,,,,,,,,,,,,,,,,,,,,,,,,,,,,,,,,,,,,,,,,,,,,,,,,,,,,,,,,,,,,,,,,,,,,,,,,,,,,,,,,,,,,,,,,,,,,,,,,,,,,,,,,,,,10,2,2,2024-10-14_21h00.12.626,uWM_experiment,2022.2.3,59.97821591
1,0,1,0,,,,,,,,,,,,,,,,,,,,,,,,,,,,,,,,,,,,,,,,,,,,,,,,,,,,,,,,,,,,,,,,,,,,,,,,,,,,,,,,,,,,,,,,,,,,,,,,,,,,,,,,,,,,,,,,,,,,,,,,,,,,,,,,,,,,,,,,,,,,,,,,,,,,,,,,,,,,,10,2,2,2024-10-14_21h00.12.626,uWM_experiment,2022.2.3,59.97821591
2,0,2,0,,,,,,,,,,,,,,,,,,,,,,,,,,,,,,,,,,,,,,,,,,,,,,,,,,,,,,,,,,,,,,,,,,,,,,,,,,,,,,,,,,,,,,,,,,,,,,,,,,,,,,,,,,,,,,,,,,,,,,,,,,,,,,,,,,,,,,,,,,,,,,,,,,,,,,,,,,,,,10,2,2,2024-10-14_21h00.12.626,uWM_experiment,2022.2.3,59.97821591
,,,,,,,,,,,,,,,,,,,,,,,,,,,,,,,,,,,,,,,,,,,,,,,,231.9087247,231.9087247,space,7.633932,,,,,,,,,,,,,,,,,,,,,,,,,,,,,,,,,,,,,,,,,,,,,,,,,,,,,,,,,,,,,,,,,,,,,,,,,,,,,,,,,,,,,,,,,,,,,,,,,,,,,,,,,,,,,10,2,2,2024-10-14_21h00.12.626,uWM_experiment,2022.2.3,59.97821591
,,,,0,0,0,0,,,,,,,,,,,,,,,,,,,,,,,,,,,,,,,,,,,,,,,,,,,,,,,,,,,,,,,,,,,,,,,,,,,,,,,,,,,,,,,,,,,,,,,,,,,,,,,,,,,,,,,,,,,,,,,,,,,,,,,,,,,,,,,,,,,,,,,,,,,,,,,,,,,,,,,,,10,2,2,2024-10-14_21h00.12.626,uWM_experiment,2022.2.3,59.97821591
,,,,1,0,1,0,,,,,,,,,,,,,,,,,,,,,,,,,,,,,,,,,,,,,,,,,,,,,,,,,,,,,,,,,,,,,,,,,,,,,,,,,,,,,,,,,,,,,,,,,,,,,,,,,,,,,,,,,,,,,,,,,,,,,,,,,,,,,,,,,,,,,,,,,,,,,,,,,,,,,,,,,10,2,2,2024-10-14_21h00.12.626,uWM_experiment,2022.2.3,59.97821591
,,,,2,0,2,0,,,,,,,,,,,,,,,,,,,,,,,,,,,,,,,,,,,,,,,,,,,,,,,,,,,,,,,,,,,,,,,,,,,,,,,,,,,,,,,,,,,,,,,,,,,,,,,,,,,,,,,,,,,,,,,,,,,,,,,,,,,,,,,,,,,,,,,,,,,,,,,,,,,,,,,,,10,2,2,2024-10-14_21h00.12.626,uWM_experiment,2022.2.3,59.97821591
,,,,,,,,,,,,,,,,,,,,,,,,,,,,,,,,,,,,,,,,,,,,,,,,,,,,246.759384,246.759384,space,1.2952681,,,,,,,,,,,,,,,,,,,,,,,,,,,,,,,,,,,,,,,,,,,,,,,,,,,,,,,,,,,,,,,,,,,,,,,,,,,,,,,,,,,,,,,,,,,,,,,,,,,,,,,,,10,2,2,2024-10-14_21h00.12.626,uWM_experiment,2022.2.3,59.97821591
,,,,,,,,,,,,,,,,,,,,,,,,,,,,,,,,,,,,,,,,,,,,,,,,,,,,,,,,396.2326477,space,51.5260774,,,,,,,,,,,,,,,,,,,,,,,,,,,,,,,,,,,,,,,,,,,,,,,,,,,,,,,,,,,,,,,,,,,,,,,,,,,,,,,,,,,,,,,,,,,,,,,,,,,,,,10,2,2,2024-10-14_21h00.12.626,uWM_experiment,2022.2.3,59.97821591
,,,,,,,,,,,,,,,,,,,,,,,,,,,,,,,,,,,,,,,,,,,,,,,,,,,,,,,,,,,447.7848943,space,76.1738359,,,,,,,,,,,,,,,,,,,,,,,,,,,,,,,,,,,,,,,,,,,,,,,,,,,,,,,,,,,,,,,,,,,,,,,,,,,,,,,,,,,,,,,,,,,,,,,,,,,10,2,2,2024-10-14_21h00.12.626,uWM_experiment,2022.2.3,59.97821591
,,,,,,,,,,,,,,,,,,,,,,,,,,,,,,,,,,,,,,,,,,,,,,,,,,,,,,,,,,,,,,523.9882481,523.9882481,523.9882481,523.9882481,523.9882481,523.9882481,space,20.618545,,,,,,,,,,,,,,,,,,,,,,,,,,,,,,,,,,,,,,,,,,,,,,,,,,,,,,,,,,,,,,,,,,,,,,,,,,,,,,,,,,,,,,,,,,,10,2,2,2024-10-14_21h00.12.626,uWM_experiment,2022.2.3,59.97821591
,,,,,,,,,,,,,,,,,,,,,,,,,,,,,,,,,,,,,,,,,,,,,,,,,,,,,,,,,,,,,,,,,,,,,,544.6391753,544.6391753,space,55.3115871,,,,,,,,,,,,,,,,,,,,,,,,,,,,,,,,,,,,,,,,,,,,,,,,,,,,,,,,,,,,,,,,,,,,,,,,,,,,,,,,,,,,,,,10,2,2,2024-10-14_21h00.12.626,uWM_experiment,2022.2.3,59.97821591
,,,,,,,,,,,,,,,,,,,,,,,,,,,,,,,,,,,,,,,,,,,,,,,,,,,,,,,,,,,,,,,,,,,,,,,,,,599.9749457,599.9749457,space,2.607966,,,,,,,,,,,,,,,,,,,,,,,,,,,,,,,,,,,,,,,,,,,,,,,,,,,,,,,,,,,,,,,,,,,,,,,,,,,,,,,,,,,10,2,2,2024-10-14_21h00.12.626,uWM_experiment,2022.2.3,59.97821591
,,,,,,,,0,0,0,0,0,0,0,0,,,,,,,,,,,,,,,,,,,,,,,,,,,,,,,,,,,,,,,,,,,,,,,,,,,,,,,,,,,,,,,right,0,40,-30,10,621.2925819,622.2926116,622.2926116,622.2926116,622.2926116,None,None,3,0,17.3942855,,,,,,,,,,,,,,,,,,,,,,,,,,,,,,,,,,,,,,,,,,,,,,,,,,,,,,,,,,,,,,,,,,,,10,2,2,2024-10-14_21h00.12.626,uWM_experiment,2022.2.3,59.97821591
,,,,,,,,0,0,0,0,1,0,1,0,,,,,,,,,,,,,,,,,,,,,,,,,,,,,,,,,,,,,,,,,,,,,,,,,,,,,,,,,,,,,,,left,0,100,30,130,649.3437994,650.3438431,650.3438431,650.3438431,650.3438431,None,None,4,0,5.4149317,,,,,,,,,,,,,,,,,,,,,,,,,,,,,,,,,,,,,,,,,,,,,,,,,,,,,,,,,,,,,,,,,,,,10,2,2,2024-10-14_21h00.12.626,uWM_experiment,2022.2.3,59.97821591
,,,,,,,,0,0,0,0,2,0,2,0,,,,,,,,,,,,,,,,,,,,,,,,,,,,,,,,,,,,,,,,,,,,,,,,,,,,,,,,,,,,,,,left,1,130,-30,100,662.5777105,,663.577749,663.577749,663.577749,None,None,4,0,1.9170117,,,,,,,,,,,,,,,,,,,,,,,,,,,,,,,,,,,,,,,,,,,,,,,,,,,,,,,,,,,,,,,,,,,,10,2,2,2024-10-14_21h00.12.626,uWM_experiment,2022.2.3,59.97821591
,,,,,,,,0,0,0,0,3,0,3,0,,,,,,,,,,,,,,,,,,,,,,,,,,,,,,,,,,,,,,,,,,,,,,,,,,,,,,,,,,,,,,,left,1,160,-30,130,673.7448883,674.7449047,674.7449047,674.7449047,674.7449047,None,None,4,0,2.8219112,,,,,,,,,,,,,,,,,,,,,,,,,,,,,,,,,,,,,,,,,,,,,,,,,,,,,,,,,,,,,,,,,,,,10,2,2,2024-10-14_21h00.12.626,uWM_experiment,2022.2.3,59.97821591
,,,,,,,,0,0,0,0,4,0,4,0,,,,,,,,,,,,,,,,,,,,,,,,,,,,,,,,,,,,,,,,,,,,,,,,,,,,,,,,,,,,,,,right,0,100,-30,70,683.8119673,684.8120265,684.8120265,684.8120265,684.8120265,None,None,4,0,2.8988206,,,,,,,,,,,,,,,,,,,,,,,,,,,,,,,,,,,,,,,,,,,,,,,,,,,,,,,,,,,,,,,,,,,,10,2,2,2024-10-14_21h00.12.626,uWM_experiment,2022.2.3,59.97821591
,,,,,,,,0,0,0,0,5,0,5,0,,,,,,,,,,,,,,,,,,,,,,,,,,,,,,,,,,,,,,,,,,,,,,,,,,,,,,,,,,,,,,,left,1,40,-30,10,693.9457736,694.945829,694.945829,694.945829,694.945829,None,None,4,0,0.5088897,,,,,,,,,,,,,,,,,,,,,,,,,,,,,,,,,,,,,,,,,,,,,,,,,,,,,,,,,,,,,,,,,,,,10,2,2,2024-10-14_21h00.12.626,uWM_experiment,2022.2.3,59.97821591
,,,,,,,,0,0,0,0,,,,,,,,,,,,,,,,,,,,,,,,,,,,,,,,,,,,,,,,,,,,,,,,,,,,,,,,,,,,,,,,,,,,,,,,,,,,,,,,,,,,,,,,,,,,,,,,,,,,,,,,,,,,,,,,,,,,,,,,,,,,,,,,,,,,,,,,,,,,,,,,,,,,,10,2,2,2024-10-14_21h00.12.626,uWM_experiment,2022.2.3,59.97821591
,,,,,,,,1,0,1,0,0,0,0,0,,,,,,,,,,,,,,,,,,,,,,,,,,,,,,,,,,,,,,,,,,,,,,,,,,,,,,,,,,,,,,,left,1,10,-30,-20,712.1465532,713.146606,713.146606,713.146606,713.146606,None,None,4,0,0.5242335,,,,,,,,,,,,,,,,,,,,,,,,,,,,,,,,,,,,,,,,,,,,,,,,,,,,,,,,,,,,,,,,,,,,10,2,2,2024-10-14_21h00.12.626,uWM_experiment,2022.2.3,59.97821591
,,,,,,,,1,0,1,0,1,0,1,0,,,,,,,,,,,,,,,,,,,,,,,,,,,,,,,,,,,,,,,,,,,,,,,,,,,,,,,,,,,,,,,right,1,160,30,190,719.630237,720.6302491,720.6302491,720.6302491,720.6302491,None,None,4,0,0.3445026,,,,,,,,,,,,,,,,,,,,,,,,,,,,,,,,,,,,,,,,,,,,,,,,,,,,,,,,,,,,,,,,,,,,10,2,2,2024-10-14_21h00.12.626,uWM_experiment,2022.2.3,59.97821591
,,,,,,,,1,0,1,0,2,0,2,0,,,,,,,,,,,,,,,,,,,,,,,,,,,,,,,,,,,,,,,,,,,,,,,,,,,,,,,,,,,,,,,right,1,130,30,160,727.3805594,728.3805925,728.3805925,728.3805925,728.3805925,None,None,4,0,0.0103309,,,,,,,,,,,,,,,,,,,,,,,,,,,,,,,,,,,,,,,,,,,,,,,,,,,,,,,,,,,,,,,,,,,,10,2,2,2024-10-14_21h00.12.626,uWM_experiment,2022.2.3,59.97821591
,,,,,,,,1,0,1,0,3,0,3,0,,,,,,,,,,,,,,,,,,,,,,,,,,,,,,,,,,,,,,,,,,,,,,,,,,,,,,,,,,,,,,,right,1,10,30,40,734.4142006,735.4142566,735.4142566,735.4142566,735.4142566,None,None,4,0,0.2646642,,,,,,,,,,,,,,,,,,,,,,,,,,,,,,,,,,,,,,,,,,,,,,,,,,,,,,,,,,,,,,,,,,,,10,2,2,2024-10-14_21h00.12.626,uWM_experiment,2022.2.3,59.97821591
,,,,,,,,1,0,1,0,4,0,4,0,,,,,,,,,,,,,,,,,,,,,,,,,,,,,,,,,,,,,,,,,,,,,,,,,,,,,,,,,,,,,,,right,1,70,30,100,743.8146375,744.8146559,744.8146559,744.8146559,744.8146559,None,None,4,0,1.5122559,,,,,,,,,,,,,,,,,,,,,,,,,,,,,,,,,,,,,,,,,,,,,,,,,,,,,,,,,,,,,,,,,,,,10,2,2,2024-10-14_21h00.12.626,uWM_experiment,2022.2.3,59.97821591
,,,,,,,,1,0,1,0,5,0,5,0,,,,,,,,,,,,,,,,,,,,,,,,,,,,,,,,,,,,,,,,,,,,,,,,,,,,,,,,,,,,,,,right,1,70,30,100,753.898416,754.8984211,754.8984211,754.8984211,754.8984211,None,None,4,0,0.6522981,,,,,,,,,,,,,,,,,,,,,,,,,,,,,,,,,,,,,,,,,,,,,,,,,,,,,,,,,,,,,,,,,,,,10,2,2,2024-10-14_21h00.12.626,uWM_experiment,2022.2.3,59.97821591
,,,,,,,,1,0,1,0,,,,,,,,,,,,,,,,,,,,,,,,,,,,,,,,,,,,,,,,,,,,,,,,,,,,,,,,,,,,,,,,,,,,,,,,,,,,,,,,,,,,,,,,,,,,,,,,,,,,,,,,,,,,,,,,,,,,,,,,,,,,,,,,,,,,,,,,,,,,,,,,,,,,,10,2,2,2024-10-14_21h00.12.626,uWM_experiment,2022.2.3,59.97821591
,,,,,,,,,,,,,,,,,,,,,,,,,,,,,,,,,,,,,,,,,,,,,,,,,,,,,,,,,,,,,,,,,,,,,,,,,,,,,,,,,,,,,,,,,,,,,755.5817749,755.5817749,space,4.9050333,,,,,,,,,,,,,,,,,,,,,,,,,,,,,,,,,,,,,,,,,,,,,,,,,,,,,,,,,,,,,,,,10,2,2,2024-10-14_21h00.12.626,uWM_experiment,2022.2.3,59.97821591
,,,,,,,,,,,,,,,,0,0,0,0,,,,,,,,,,,,,,,,,,,,,,,,,,,,,,,,,,,,,,,,,,,,,,,,,,,,,,,,,,,,,,,,,,,,,,,,,,,,,,0.0924781,left,1,70,-30,40,1,767.799022,767.799022,767.799022,None,None,4,0,1.8478903,,,,,,,,,,,,,,,,,,,,,,,,,,,,,,,,,,,,,,,,,,,,,,,,,10,2,2,2024-10-14_21h00.12.626,uWM_experiment,2022.2.3,59.97821591
,,,,,,,,,,,,,,,,1,0,1,0,,,,,,,,,,,,,,,,,,,,,,,,,,,,,,,,,,,,,,,,,,,,,,,,,,,,,,,,,,,,,,,,,,,,,,,,,,,,,,0.1,right,1,130,30,160,2,775.4826813,775.4826813,775.4826813,None,None,4,0,0.6199985,0,,,,,,,,,,,,,,,,,,,,,,,,,,,,,,,,,,,,,,,,,,,,,,,,10,2,2,2024-10-14_21h00.12.626,uWM_experiment,2022.2.3,59.97821591
,,,,,,,,,,,,,,,,2,0,2,0,,,,,,,,,,,,,,,,,,,,,,,,,,,,,,,,,,,,,,,,,,,,,,,,,,,,,,,,,,,,,,,,,,,,,,,,,,,,,,0.0824781,right,0,40,-30,10,1,783.3830519,783.3830519,783.3830519,None,None,1,1,1.6478499,0,,,,,,,,,,,,,,,,,,,,,,,,,,,,,,,,,,,,,,,,,,,,,,,,10,2,2,2024-10-14_21h00.12.626,uWM_experiment,2022.2.3,59.97821591
,,,,,,,,,,,,,,,,3,0,3,0,,,,,,,,,,,,,,,,,,,,,,,,,,,,,,,,,,,,,,,,,,,,,,,,,,,,,,,,,,,,,,,,,,,,,,,,,,,,,,0.1,left,1,160,-30,130,2,792.3834308,792.3834308,792.3834308,None,None,4,0,1.0953172,0.333333333,,,,,,,,,,,,,,,,,,,,,,,,,,,,,,,,,,,,,,,,,,,,,,,,10,2,2,2024-10-14_21h00.12.626,uWM_experiment,2022.2.3,59.97821591
,,,,,,,,,,,,,,,,4,0,4,0,,,,,,,,,,,,,,,,,,,,,,,,,,,,,,,,,,,,,,,,,,,,,,,,,,,,,,,,,,,,,,,,,,,,,,,,,,,,,,0.1,right,1,10,30,40,2,800.4837888,800.4837888,800.4837888,None,None,4,0,1.4269431,0.25,,,,,,,,,,,,,,,,,,,,,,,,,,,,,,,,,,,,,,,,,,,,,,,,10,2,2,2024-10-14_21h00.12.626,uWM_experiment,2022.2.3,59.97821591
,,,,,,,,,,,,,,,,5,0,5,0,,,,,,,,,,,,,,,,,,,,,,,,,,,,,,,,,,,,,,,,,,,,,,,,,,,,,,,,,,,,,,,,,,,,,,,,,,,,,,0.0924781,left,0,100,30,130,1,809.9342066,809.9342066,809.9342066,None,None,1,1,0.6885686,0.2,,,,,,,,,,,,,,,,,,,,,,,,,,,,,,,,,,,,,,,,,,,,,,,,10,2,2,2024-10-14_21h00.12.626,uWM_experiment,2022.2.3,59.97821591
,,,,,,,,,,,,,,,,,,,,,,,,,,,,,,,,,,,,,,,,,,,,,,,,,,,,,,,,,,,,,,,,,,,,,,,,,,,,,,,,,,,,,,,,,,,,,,,,,,,,,,,,,,,,,,,,,810.650874,811.6342487,space,10.7805601,,,,,,,,,,,,,,,,,,,,,,,,,,,,,,,,,,,,,,,,,,,,10,2,2,2024-10-14_21h00.12.626,uWM_experiment,2022.2.3,59.97821591
,,,,,,,,,,,,,,,,,,,,0,0,0,0,0,0,0,0,,,,,,,,,,,,,,,,,,,,,,,,,,,,,,,,,,,,,,,,,,,,,,,,,,,,,,,,,,,,,,,,,,,,,,0.0924781,,,,,,,,,,,,,,,,,,,,822.4347395,823.1347668,823.4180975,824.1181597,824.4181551,825.1181847,825.1181847,825.4682006,right,1,10,30,40,1,832.8685298,832.8685298,832.8685298,None,None,3,0,4.7701453,,,,,,,,,,,,,,,,,,,,,,10,2,2,2024-10-14_21h00.12.626,uWM_experiment,2022.2.3,59.97821591
,,,,,,,,,,,,,,,,,,,,0,0,0,0,1,0,1,0,,,,,,,,,,,,,,,,,,,,,,,,,,,,,,,,,,,,,,,,,,,,,,,,,,,,,,,,,,,,,,,,,,,,,,0.0824781,,,,,,,,,,,,,,,,,,,,,,,,,,,,right,0,160,-30,130,1,845.1357319,845.1357319,845.1357319,None,None,1,1,0.7510003,,,,,,,,,,,,,,,,,,,,,,10,2,2,2024-10-14_21h00.12.626,uWM_experiment,2022.2.3,59.97821591
,,,,,,,,,,,,,,,,,,,,0,0,0,0,2,0,2,0,,,,,,,,,,,,,,,,,,,,,,,,,,,,,,,,,,,,,,,,,,,,,,,,,,,,,,,,,,,,,,,,,,,,,,0.0924781,,,,,,,,,,,,,,,,,,,,,,,,,,,,right,0,100,-30,70,1,852.4360721,852.4360721,852.4360721,None,None,1,1,0.6666657,,,,,,,,,,,,,,,,,,,,,,10,2,2,2024-10-14_21h00.12.626,uWM_experiment,2022.2.3,59.97821591
,,,,,,,,,,,,,,,,,,,,0,0,0,0,3,0,3,0,,,,,,,,,,,,,,,,,,,,,,,,,,,,,,,,,,,,,,,,,,,,,,,,,,,,,,,,,,,,,,,,,,,,,,0.1024781,,,,,,,,,,,,,,,,,,,,,,,,,,,,right,0,40,-30,10,1,858.7030026,858.7030026,858.7030026,None,None,2,0,1.8077627,,,,,,,,,,,,,,,,,,,,,,10,2,2,2024-10-14_21h00.12.626,uWM_experiment,2022.2.3,59.97821591
,,,,,,,,,,,,,,,,,,,,0,0,0,0,4,0,4,0,,,,,,,,,,,,,,,,,,,,,,,,,,,,,,,,,,,,,,,,,,,,,,,,,,,,,,,,,,,,,,,,,,,,,,0.0924781,,,,,,,,,,,,,,,,,,,,,,,,,,,,right,1,70,30,100,1,866.7536117,866.7536117,866.7536117,None,None,2,0,1.1251946,,,,,,,,,,,,,,,,,,,,,,10,2,2,2024-10-14_21h00.12.626,uWM_experiment,2022.2.3,59.97821591
,,,,,,,,,,,,,,,,,,,,0,0,0,0,5,0,5,0,,,,,,,,,,,,,,,,,,,,,,,,,,,,,,,,,,,,,,,,,,,,,,,,,,,,,,,,,,,,,,,,,,,,,,0.0824781,,,,,,,,,,,,,,,,,,,,,,,,,,,,left,0,100,30,130,1,875.487095,875.487095,875.487095,None,None,1,1,0.535697,,,,,,,,,,,,,,,,,,,,,,10,2,2,2024-10-14_21h00.12.626,uWM_experiment,2022.2.3,59.97821591
,,,,,,,,,,,,,,,,,,,,0,0,0,0,6,0,6,0,,,,,,,,,,,,,,,,,,,,,,,,,,,,,,,,,,,,,,,,,,,,,,,,,,,,,,,,,,,,,,,,,,,,,,0.0924781,,,,,,,,,,,,,,,,,,,,,,,,,,,,right,0,40,-30,10,1,882.3707105,882.3707105,882.3707105,None,None,1,1,0.5401873,,,,,,,,,,,,,,,,,,,,,,10,2,2,2024-10-14_21h00.12.626,uWM_experiment,2022.2.3,59.97821591
,,,,,,,,,,,,,,,,,,,,0,0,0,0,7,0,7,0,,,,,,,,,,,,,,,,,,,,,,,,,,,,,,,,,,,,,,,,,,,,,,,,,,,,,,,,,,,,,,,,,,,,,,0.1024781,,,,,,,,,,,,,,,,,,,,,,,,,,,,right,1,40,30,70,1,888.6709793,888.6709793,888.6709793,None,None,1,1,0.4319424,,,,,,,,,,,,,,,,,,,,,,10,2,2,2024-10-14_21h00.12.626,uWM_experiment,2022.2.3,59.97821591
,,,,,,,,,,,,,,,,,,,,0,0,0,0,8,0,8,0,,,,,,,,,,,,,,,,,,,,,,,,,,,,,,,,,,,,,,,,,,,,,,,,,,,,,,,,,,,,,,,,,,,,,,0.1124781,,,,,,,,,,,,,,,,,,,,,,,,,,,,left,0,10,30,40,1,894.6379034,894.6379034,894.6379034,None,None,1,1,0.4968638,,,,,,,,,,,,,,,,,,,,,,10,2,2,2024-10-14_21h00.12.626,uWM_experiment,2022.2.3,59.97821591
,,,,,,,,,,,,,,,,,,,,0,0,0,0,9,0,9,0,,,,,,,,,,,,,,,,,,,,,,,,,,,,,,,,,,,,,,,,,,,,,,,,,,,,,,,,,,,,,,,,,,,,,,0.1224781,,,,,,,,,,,,,,,,,,,,,,,,,,,,left,0,130,30,160,1,900.7881651,900.7881651,900.7881651,None,None,2,0,0.8906405,,,,,,,,,,,,,,,,,,,,,,10,2,2,2024-10-14_21h00.12.626,uWM_experiment,2022.2.3,59.97821591
,,,,,,,,,,,,,,,,,,,,0,0,0,0,10,0,10,0,,,,,,,,,,,,,,,,,,,,,,,,,,,,,,,,,,,,,,,,,,,,,,,,,,,,,,,,,,,,,,,,,,,,,,0.1124781,,,,,,,,,,,,,,,,,,,,,,,,,,,,left,0,40,30,70,1,909.5886667,909.5886667,909.5886667,None,None,1,1,0.8741218,,,,,,,,,,,,,,,,,,,,,,10,2,2,2024-10-14_21h00.12.626,uWM_experiment,2022.2.3,59.97821591
,,,,,,,,,,,,,,,,,,,,0,0,0,0,11,0,11,0,,,,,,,,,,,,,,,,,,,,,,,,,,,,,,,,,,,,,,,,,,,,,,,,,,,,,,,,,,,,,,,,,,,,,,0.1224781,,,,,,,,,,,,,,,,,,,,,,,,,,,,right,0,130,-30,100,1,917.4889175,917.4889175,917.4889175,None,None,1,1,0.429997,,,,,,,,,,,,,,,,,,,,,,10,2,2,2024-10-14_21h00.12.626,uWM_experiment,2022.2.3,59.97821591
,,,,,,,,,,,,,,,,,,,,0,0,0,0,12,0,12,0,,,,,,,,,,,,,,,,,,,,,,,,,,,,,,,,,,,,,,,,,,,,,,,,,,,,,,,,,,,,,,,,,,,,,,0.1324781,,,,,,,,,,,,,,,,,,,,,,,,,,,,left,0,130,30,160,1,925.3059449,925.3059449,925.3059449,None,None,1,1,0.6208008,,,,,,,,,,,,,,,,,,,,,,10,2,2,2024-10-14_21h00.12.626,uWM_experiment,2022.2.3,59.97821591
,,,,,,,,,,,,,,,,,,,,0,0,0,0,13,0,13,0,,,,,,,,,,,,,,,,,,,,,,,,,,,,,,,,,,,,,,,,,,,,,,,,,,,,,,,,,,,,,,,,,,,,,,0.1424781,,,,,,,,,,,,,,,,,,,,,,,,,,,,right,0,100,-30,70,1,934.7230293,934.7230293,934.7230293,None,None,2,0,1.4838192,,,,,,,,,,,,,,,,,,,,,,10,2,2,2024-10-14_21h00.12.626,uWM_experiment,2022.2.3,59.97821591
,,,,,,,,,,,,,,,,,,,,0,0,0,0,14,0,14,0,,,,,,,,,,,,,,,,,,,,,,,,,,,,,,,,,,,,,,,,,,,,,,,,,,,,,,,,,,,,,,,,,,,,,,0.1324781,,,,,,,,,,,,,,,,,,,,,,,,,,,,right,1,130,30,160,1,943.3733855,943.3733855,943.3733855,None,None,2,0,1.3373185,,,,,,,,,,,,,,,,,,,,,,10,2,2,2024-10-14_21h00.12.626,uWM_experiment,2022.2.3,59.97821591
,,,,,,,,,,,,,,,,,,,,0,0,0,0,15,0,15,0,,,,,,,,,,,,,,,,,,,,,,,,,,,,,,,,,,,,,,,,,,,,,,,,,,,,,,,,,,,,,,,,,,,,,,0.1224781,,,,,,,,,,,,,,,,,,,,,,,,,,,,right,0,100,-30,70,1,950.6070361,950.6070361,950.6070361,None,None,2,0,1.4557608,,,,,,,,,,,,,,,,,,,,,,10,2,2,2024-10-14_21h00.12.626,uWM_experiment,2022.2.3,59.97821591
,,,,,,,,,,,,,,,,,,,,0,0,0,0,16,0,16,0,,,,,,,,,,,,,,,,,,,,,,,,,,,,,,,,,,,,,,,,,,,,,,,,,,,,,,,,,,,,,,,,,,,,,,0,,,,,,,,,,,,,,,,,,,,,,,,,,,,left,1,160,-30,130,0,957.7073604,957.7073604,957.7073604,None,None,1,1,0.4114546,,,,,,,,,,,,,,,,,,,,,,10,2,2,2024-10-14_21h00.12.626,uWM_experiment,2022.2.3,59.97821591
,,,,,,,,,,,,,,,,,,,,0,0,0,0,17,0,17,0,,,,,,,,,,,,,,,,,,,,,,,,,,,,,,,,,,,,,,,,,,,,,,,,,,,,,,,,,,,,,,,,,,,,,,0.1124781,,,,,,,,,,,,,,,,,,,,,,,,,,,,right,1,160,30,190,1,964.04096,964.04096,964.04096,None,None,2,0,1.2698354,,,,,,,,,,,,,,,,,,,,,,10,2,2,2024-10-14_21h00.12.626,uWM_experiment,2022.2.3,59.97821591
,,,,,,,,,,,,,,,,,,,,0,0,0,0,18,0,18,0,,,,,,,,,,,,,,,,,,,,,,,,,,,,,,,,,,,,,,,,,,,,,,,,,,,,,,,,,,,,,,,,,,,,,,0.1024781,,,,,,,,,,,,,,,,,,,,,,,,,,,,right,0,100,-30,70,1,971.4412983,971.4412983,971.4412983,None,None,3,0,1.981639,,,,,,,,,,,,,,,,,,,,,,10,2,2,2024-10-14_21h00.12.626,uWM_experiment,2022.2.3,59.97821591
,,,,,,,,,,,,,,,,,,,,0,0,0,0,19,0,19,0,,,,,,,,,,,,,,,,,,,,,,,,,,,,,,,,,,,,,,,,,,,,,,,,,,,,,,,,,,,,,,,,,,,,,,0.0924781,,,,,,,,,,,,,,,,,,,,,,,,,,,,right,1,40,30,70,1,980.6083764,980.6083764,980.6083764,None,None,1,1,0.5504615,,,,,,,,,,,,,,,,,,,,,,10,2,2,2024-10-14_21h00.12.626,uWM_experiment,2022.2.3,59.97821591
,,,,,,,,,,,,,,,,,,,,0,0,0,0,20,0,20,0,,,,,,,,,,,,,,,,,,,,,,,,,,,,,,,,,,,,,,,,,,,,,,,,,,,,,,,,,,,,,,,,,,,,,,0.1024781,,,,,,,,,,,,,,,,,,,,,,,,,,,,right,0,130,-30,100,1,988.0753384,988.0753384,988.0753384,None,None,1,1,1.131399,,,,,,,,,,,,,,,,,,,,,,10,2,2,2024-10-14_21h00.12.626,uWM_experiment,2022.2.3,59.97821591
,,,,,,,,,,,,,,,,,,,,0,0,0,0,21,0,21,0,,,,,,,,,,,,,,,,,,,,,,,,,,,,,,,,,,,,,,,,,,,,,,,,,,,,,,,,,,,,,,,,,,,,,,0.1124781,,,,,,,,,,,,,,,,,,,,,,,,,,,,left,0,70,30,100,1,995.425678,995.425678,995.425678,None,None,1,1,0.4772536,,,,,,,,,,,,,,,,,,,,,,10,2,2,2024-10-14_21h00.12.626,uWM_experiment,2022.2.3,59.97821591
,,,,,,,,,,,,,,,,,,,,0,0,0,0,22,0,22,0,,,,,,,,,,,,,,,,,,,,,,,,,,,,,,,,,,,,,,,,,,,,,,,,,,,,,,,,,,,,,,,,,,,,,,0,,,,,,,,,,,,,,,,,,,,,,,,,,,,right,0,40,-30,10,0,1001.809285,1001.809285,1001.809285,None,None,1,1,0.3495351,,,,,,,,,,,,,,,,,,,,,,10,2,2,2024-10-14_21h00.12.626,uWM_experiment,2022.2.3,59.97821591
,,,,,,,,,,,,,,,,,,,,0,0,0,0,23,0,23,0,,,,,,,,,,,,,,,,,,,,,,,,,,,,,,,,,,,,,,,,,,,,,,,,,,,,,,,,,,,,,,,,,,,,,,0,,,,,,,,,,,,,,,,,,,,,,,,,,,,left,0,10,30,40,0,1009.39296,1009.39296,1009.39296,None,None,1,1,0.4378328,,,,,,,,,,,,,,,,,,,,,,10,2,2,2024-10-14_21h00.12.626,uWM_experiment,2022.2.3,59.97821591
,,,,,,,,,,,,,,,,,,,,0,0,0,0,,,,,0,0,0,0,,,,,,,,,,,,,,,,,,,,,,,,,,,,,,,,,,,,,,,,,,,,,,,,,,,,,,,,,,,,,,,,,,,,,,,,,,,,,,,,,,,,,,,,,,,,,,,,,,,,,,,,,,,,1009.859645,1009.859645,space,32.5231837,None,None,,,,,,,,,,,,,,,,10,2,2,2024-10-14_21h00.12.626,uWM_experiment,2022.2.3,59.97821591
,,,,,,,,,,,,,,,,,,,,0,0,0,0,,,,,1,0,1,0,,,,,,,,,,,,,,,,,,,,,,,,,,,,,,,,,,,,,,,,,,,,,,,,,,,,,,,,,,,,,,,,,,,,,,,,,,,,,,,,,,,,,,,,,,,,,,,,,,,,,,,,,,,,,,,,,,,,,,,,,,,,,,,,,10,2,2,2024-10-14_21h00.12.626,uWM_experiment,2022.2.3,59.97821591
,,,,,,,,,,,,,,,,,,,,0,0,0,0,,,,,2,0,2,0,,,,,,,,,,,,,,,,,,,,,,,,,,,,,,,,,,,,,,,,,,,,,,,,,,,,,,,,,,,,,,,,,,,,,,,,,,,,,,,,,,,,,,,,,,,,,,,,,,,,,,,,,,,,,,,,,,,,,,,,,,,,,,,,,10,2,2,2024-10-14_21h00.12.626,uWM_experiment,2022.2.3,59.97821591
,,,,,,,,,,,,,,,,,,,,1,0,1,0,0,0,0,0,,,,,,,,,,,,,,,,,,,,,,,,,,,,,,,,,,,,,,,,,,,,,,,,,,,,,,,,,,,,,,,,,,,,,,0.1224781,,,,,,,,,,,,,,,,,,,,1042.411068,1043.111091,1043.411125,1044.111136,1044.41115,1045.111163,1045.111163,1045.427882,left,1,70,-30,40,1,1055.794992,1055.794992,1055.794992,None,None,2,0,1.9399538,,,,,,,None,,,,,,,,,,,,,,,10,2,2,2024-10-14_21h00.12.626,uWM_experiment,2022.2.3,59.97821591
,,,,,,,,,,,,,,,,,,,,1,0,1,0,1,0,1,0,,,,,,,,,,,,,,,,,,,,,,,,,,,,,,,,,,,,,,,,,,,,,,,,,,,,,,,,,,,,,,,,,,,,,,0.1124781,,,,,,,,,,,,,,,,,,,,,,,,,,,,left,0,40,30,70,1,1065.278729,1065.278729,1065.278729,None,None,1,1,0.4960958,,,,,,,,,,,,,,,,,,,,,,10,2,2,2024-10-14_21h00.12.626,uWM_experiment,2022.2.3,59.97821591
,,,,,,,,,,,,,,,,,,,,1,0,1,0,2,0,2,0,,,,,,,,,,,,,,,,,,,,,,,,,,,,,,,,,,,,,,,,,,,,,,,,,,,,,,,,,,,,,,,,,,,,,,0.1224781,,,,,,,,,,,,,,,,,,,,,,,,,,,,right,0,100,-30,70,1,1073.22911,1073.22911,1073.22911,None,None,1,1,0.6096309,,,,,,,,,,,,,,,,,,,,,,10,2,2,2024-10-14_21h00.12.626,uWM_experiment,2022.2.3,59.97821591
,,,,,,,,,,,,,,,,,,,,1,0,1,0,3,0,3,0,,,,,,,,,,,,,,,,,,,,,,,,,,,,,,,,,,,,,,,,,,,,,,,,,,,,,,,,,,,,,,,,,,,,,,0,,,,,,,,,,,,,,,,,,,,,,,,,,,,right,1,100,30,130,0,1080.846107,1080.846107,1080.846107,None,None,1,1,0.3127259,,,,,,,,,,,,,,,,,,,,,,10,2,2,2024-10-14_21h00.12.626,uWM_experiment,2022.2.3,59.97821591
,,,,,,,,,,,,,,,,,,,,1,0,1,0,4,0,4,0,,,,,,,,,,,,,,,,,,,,,,,,,,,,,,,,,,,,,,,,,,,,,,,,,,,,,,,,,,,,,,,,,,,,,,0.1324781,,,,,,,,,,,,,,,,,,,,,,,,,,,,right,1,160,30,190,1,1086.729694,1086.729694,1086.729694,None,None,2,0,0.8530716,,,,,,,,,,,,,,,,,,,,,,10,2,2,2024-10-14_21h00.12.626,uWM_experiment,2022.2.3,59.97821591
,,,,,,,,,,,,,,,,,,,,1,0,1,0,5,0,5,0,,,,,,,,,,,,,,,,,,,,,,,,,,,,,,,,,,,,,,,,,,,,,,,,,,,,,,,,,,,,,,,,,,,,,,0.1224781,,,,,,,,,,,,,,,,,,,,,,,,,,,,right,0,70,-30,40,1,1093.313298,1093.313298,1093.313298,None,None,2,0,0.8054309,,,,,,,,,,,,,,,,,,,,,,10,2,2,2024-10-14_21h00.12.626,uWM_experiment,2022.2.3,59.97821591
,,,,,,,,,,,,,,,,,,,,1,0,1,0,6,0,6,0,,,,,,,,,,,,,,,,,,,,,,,,,,,,,,,,,,,,,,,,,,,,,,,,,,,,,,,,,,,,,,,,,,,,,,0.1124781,,,,,,,,,,,,,,,,,,,,,,,,,,,,left,0,100,30,130,1,1100.180279,1100.180279,1100.180279,None,None,1,1,0.4265583,,,,,,,,,,,,,,,,,,,,,,10,2,2,2024-10-14_21h00.12.626,uWM_experiment,2022.2.3,59.97821591
,,,,,,,,,,,,,,,,,,,,1,0,1,0,7,0,7,0,,,,,,,,,,,,,,,,,,,,,,,,,,,,,,,,,,,,,,,,,,,,,,,,,,,,,,,,,,,,,,,,,,,,,,0.1,,,,,,,,,,,,,,,,,,,,,,,,,,,,left,1,160,-30,130,2,1106.980561,1106.980561,1106.980561,None,None,4,0,3.2341798,,,,,,,,,,,,,,,,,,,,,,10,2,2,2024-10-14_21h00.12.626,uWM_experiment,2022.2.3,59.97821591
,,,,,,,,,,,,,,,,,,,,1,0,1,0,8,0,8,0,,,,,,,,,,,,,,,,,,,,,,,,,,,,,,,,,,,,,,,,,,,,,,,,,,,,,,,,,,,,,,,,,,,,,,0,,,,,,,,,,,,,,,,,,,,,,,,,,,,left,1,40,-30,10,0,1118.597751,1118.597751,1118.597751,None,None,1,1,0.4572089,,,,,,,,,,,,,,,,,,,,,,10,2,2,2024-10-14_21h00.12.626,uWM_experiment,2022.2.3,59.97821591
,,,,,,,,,,,,,,,,,,,,1,0,1,0,9,0,9,0,,,,,,,,,,,,,,,,,,,,,,,,,,,,,,,,,,,,,,,,,,,,,,,,,,,,,,,,,,,,,,,,,,,,,,0.1224781,,,,,,,,,,,,,,,,,,,,,,,,,,,,left,1,100,-30,70,1,1126.014734,1126.014734,1126.014734,None,None,1,1,1.7762266,,,,,,,,,,,,,,,,,,,,,,10,2,2,2024-10-14_21h00.12.626,uWM_experiment,2022.2.3,59.97821591
,,,,,,,,,,,,,,,,,,,,1,0,1,0,10,0,10,0,,,,,,,,,,,,,,,,,,,,,,,,,,,,,,,,,,,,,,,,,,,,,,,,,,,,,,,,,,,,,,,,,,,,,,0,,,,,,,,,,,,,,,,,,,,,,,,,,,,left,1,130,-30,100,0,1136.281885,1136.281885,1136.281885,None,None,1,1,0.5328881,,,,,,,,,,,,,,,,,,,,,,10,2,2,2024-10-14_21h00.12.626,uWM_experiment,2022.2.3,59.97821591
,,,,,,,,,,,,,,,,,,,,1,0,1,0,11,0,11,0,,,,,,,,,,,,,,,,,,,,,,,,,,,,,,,,,,,,,,,,,,,,,,,,,,,,,,,,,,,,,,,,,,,,,,0.1324781,,,,,,,,,,,,,,,,,,,,,,,,,,,,right,1,10,30,40,1,1142.565474,1142.565474,1142.565474,None,None,1,1,0.3052993,,,,,,,,,,,,,,,,,,,,,,10,2,2,2024-10-14_21h00.12.626,uWM_experiment,2022.2.3,59.97821591
,,,,,,,,,,,,,,,,,,,,1,0,1,0,12,0,12,0,,,,,,,,,,,,,,,,,,,,,,,,,,,,,,,,,,,,,,,,,,,,,,,,,,,,,,,,,,,,,,,,,,,,,,0.1424781,,,,,,,,,,,,,,,,,,,,,,,,,,,,left,1,40,-30,10,1,1150.76586,1150.76586,1150.76586,None,None,2,0,1.6169496,,,,,,,,,,,,,,,,,,,,,,10,2,2,2024-10-14_21h00.12.626,uWM_experiment,2022.2.3,59.97821591
,,,,,,,,,,,,,,,,,,,,1,0,1,0,13,0,13,0,,,,,,,,,,,,,,,,,,,,,,,,,,,,,,,,,,,,,,,,,,,,,,,,,,,,,,,,,,,,,,,,,,,,,,0,,,,,,,,,,,,,,,,,,,,,,,,,,,,left,0,70,30,100,0,1158.849533,1158.849533,1158.849533,None,None,1,1,0.565429,,,,,,,,,,,,,,,,,,,,,,10,2,2,2024-10-14_21h00.12.626,uWM_experiment,2022.2.3,59.97821591
,,,,,,,,,,,,,,,,,,,,1,0,1,0,14,0,14,0,,,,,,,,,,,,,,,,,,,,,,,,,,,,,,,,,,,,,,,,,,,,,,,,,,,,,,,,,,,,,,,,,,,,,,0.1324781,,,,,,,,,,,,,,,,,,,,,,,,,,,,left,1,100,-30,70,1,1168.84999,1168.84999,1168.84999,None,None,2,0,0.4527506,,,,,,,,,,,,,,,,,,,,,,10,2,2,2024-10-14_21h00.12.626,uWM_experiment,2022.2.3,59.97821591
,,,,,,,,,,,,,,,,,,,,1,0,1,0,15,0,15,0,,,,,,,,,,,,,,,,,,,,,,,,,,,,,,,,,,,,,,,,,,,,,,,,,,,,,,,,,,,,,,,,,,,,,,0.1224781,,,,,,,,,,,,,,,,,,,,,,,,,,,,left,0,40,30,70,1,1177.350371,1177.350371,1177.350371,None,None,2,0,2.3363627,,,,,,,,,,,,,,,,,,,,,,10,2,2,2024-10-14_21h00.12.626,uWM_experiment,2022.2.3,59.97821591
,,,,,,,,,,,,,,,,,,,,1,0,1,0,16,0,16,0,,,,,,,,,,,,,,,,,,,,,,,,,,,,,,,,,,,,,,,,,,,,,,,,,,,,,,,,,,,,,,,,,,,,,,0,,,,,,,,,,,,,,,,,,,,,,,,,,,,right,0,40,-30,10,0,1186.117392,1186.117392,1186.117392,None,None,1,1,0.8014083,,,,,,,,,,,,,,,,,,,,,,10,2,2,2024-10-14_21h00.12.626,uWM_experiment,2022.2.3,59.97821591
,,,,,,,,,,,,,,,,,,,,1,0,1,0,17,0,17,0,,,,,,,,,,,,,,,,,,,,,,,,,,,,,,,,,,,,,,,,,,,,,,,,,,,,,,,,,,,,,,,,,,,,,,0,,,,,,,,,,,,,,,,,,,,,,,,,,,,right,1,10,30,40,0,1195.417811,1195.417811,1195.417811,None,None,1,1,0.3731509,,,,,,,,,,,,,,,,,,,,,,10,2,2,2024-10-14_21h00.12.626,uWM_experiment,2022.2.3,59.97821591
,,,,,,,,,,,,,,,,,,,,1,0,1,0,18,0,18,0,,,,,,,,,,,,,,,,,,,,,,,,,,,,,,,,,,,,,,,,,,,,,,,,,,,,,,,,,,,,,,,,,,,,,,0.1124781,,,,,,,,,,,,,,,,,,,,,,,,,,,,left,1,160,-30,130,1,1202.034757,1202.034757,1202.034757,None,None,2,0,0.6519847,,,,,,,,,,,,,,,,,,,,,,10,2,2,2024-10-14_21h00.12.626,uWM_experiment,2022.2.3,59.97821591
,,,,,,,,,,,,,,,,,,,,1,0,1,0,19,0,19,0,,,,,,,,,,,,,,,,,,,,,,,,,,,,,,,,,,,,,,,,,,,,,,,,,,,,,,,,,,,,,,,,,,,,,,0.1024781,,,,,,,,,,,,,,,,,,,,,,,,,,,,right,1,130,30,160,1,1211.001849,1211.001849,1211.001849,None,None,1,1,0.6209144,,,,,,,,,,,,,,,,,,,,,,10,2,2,2024-10-14_21h00.12.626,uWM_experiment,2022.2.3,59.97821591
,,,,,,,,,,,,,,,,,,,,1,0,1,0,20,0,20,0,,,,,,,,,,,,,,,,,,,,,,,,,,,,,,,,,,,,,,,,,,,,,,,,,,,,,,,,,,,,,,,,,,,,,,0.1124781,,,,,,,,,,,,,,,,,,,,,,,,,,,,left,0,130,30,160,1,1217.718811,1217.718811,1217.718811,None,None,1,1,0.3601238,,,,,,,,,,,,,,,,,,,,,,10,2,2,2024-10-14_21h00.12.626,uWM_experiment,2022.2.3,59.97821591
,,,,,,,,,,,,,,,,,,,,1,0,1,0,21,0,21,0,,,,,,,,,,,,,,,,,,,,,,,,,,,,,,,,,,,,,,,,,,,,,,,,,,,,,,,,,,,,,,,,,,,,,,0.1224781,,,,,,,,,,,,,,,,,,,,,,,,,,,,right,1,40,30,70,1,1229.152618,1229.152618,1229.152618,None,None,1,1,0.9742194,,,,,,,,,,,,,,,,,,,,,,10,2,2,2024-10-14_21h00.12.626,uWM_experiment,2022.2.3,59.97821591
,,,,,,,,,,,,,,,,,,,,1,0,1,0,22,0,22,0,,,,,,,,,,,,,,,,,,,,,,,,,,,,,,,,,,,,,,,,,,,,,,,,,,,,,,,,,,,,,,,,,,,,,,0.1324781,,,,,,,,,,,,,,,,,,,,,,,,,,,,right,1,40,30,70,1,1239.753128,1239.753128,1239.753128,None,None,1,1,0.7737342,,,,,,,,,,,,,,,,,,,,,,10,2,2,2024-10-14_21h00.12.626,uWM_experiment,2022.2.3,59.97821591
,,,,,,,,,,,,,,,,,,,,1,0,1,0,23,0,23,0,,,,,,,,,,,,,,,,,,,,,,,,,,,,,,,,,,,,,,,,,,,,,,,,,,,,,,,,,,,,,,,,,,,,,,0,,,,,,,,,,,,,,,,,,,,,,,,,,,,right,0,70,-30,40,0,1247.870143,1247.870143,1247.870143,None,None,1,1,0.2647266,,,,,,,,,,,,,,,,,,,,,,10,2,2,2024-10-14_21h00.12.626,uWM_experiment,2022.2.3,59.97821591
,,,,,,,,,,,,,,,,,,,,1,0,1,0,,,,,0,0,0,0,,,,,,,,,,,,,,,,,,,,,,,,,,,,,,,,,,,,,,,,,,,,,,,,,,,,,,,,,,,,,,,,,,,,,,,,,,,,,,,,,,,,,,,,,,,,,,,,,,,,,,,,,,,,1248.153457,1248.153457,space,305.8854539,None,None,,,,,,,,,,,,,,,,10,2,2,2024-10-14_21h00.12.626,uWM_experiment,2022.2.3,59.97821591
,,,,,,,,,,,,,,,,,,,,1,0,1,0,,,,,1,0,1,0,,,,,,,,,,,,,,,,,,,,,,,,,,,,,,,,,,,,,,,,,,,,,,,,,,,,,,,,,,,,,,,,,,,,,,,,,,,,,,,,,,,,,,,,,,,,,,,,,,,,,,,,,,,,,,,,,,,,,,,,,,,,,,,,,10,2,2,2024-10-14_21h00.12.626,uWM_experiment,2022.2.3,59.97821591
,,,,,,,,,,,,,,,,,,,,1,0,1,0,,,,,2,0,2,0,,,,,,,,,,,,,,,,,,,,,,,,,,,,,,,,,,,,,,,,,,,,,,,,,,,,,,,,,,,,,,,,,,,,,,,,,,,,,,,,,,,,,,,,,,,,,,,,,,,,,,,,,,,,,,,,,,,,,,,,,,,,,,,,,10,2,2,2024-10-14_21h00.12.626,uWM_experiment,2022.2.3,59.97821591
,,,,,,,,,,,,,,,,,,,,2,0,2,0,0,0,0,0,,,,,,,,,,,,,,,,,,,,,,,,,,,,,,,,,,,,,,,,,,,,,,,,,,,,,,,,,,,,,,,,,,,,,,0,,,,,,,,,,,,,,,,,,,,1554.066916,1554.766964,1555.066977,1555.766995,1556.067005,1556.76705,1556.76705,1557.083743,right,0,40,-30,10,0,1564.800755,1564.800755,1564.800755,None,None,1,1,4.0700364,,,,,,,None,,,,,,,,,,,,,,,10,2,2,2024-10-14_21h00.12.626,uWM_experiment,2022.2.3,59.97821591
,,,,,,,,,,,,,,,,,,,,2,0,2,0,1,0,1,0,,,,,,,,,,,,,,,,,,,,,,,,,,,,,,,,,,,,,,,,,,,,,,,,,,,,,,,,,,,,,,,,,,,,,,0.1424781,,,,,,,,,,,,,,,,,,,,,,,,,,,,left,0,100,30,130,1,1575.284559,1575.284559,1575.284559,None,None,1,1,0.6583393,,,,,,,,,,,,,,,,,,,,,,10,2,2,2024-10-14_21h00.12.626,uWM_experiment,2022.2.3,59.97821591
,,,,,,,,,,,,,,,,,,,,2,0,2,0,2,0,2,0,,,,,,,,,,,,,,,,,,,,,,,,,,,,,,,,,,,,,,,,,,,,,,,,,,,,,,,,,,,,,,,,,,,,,,0.1524781,,,,,,,,,,,,,,,,,,,,,,,,,,,,left,1,130,-30,100,1,1583.551553,1583.551553,1583.551553,None,None,2,0,0.8474567,,,,,,,,,,,,,,,,,,,,,,10,2,2,2024-10-14_21h00.12.626,uWM_experiment,2022.2.3,59.97821591
,,,,,,,,,,,,,,,,,,,,2,0,2,0,3,0,3,0,,,,,,,,,,,,,,,,,,,,,,,,,,,,,,,,,,,,,,,,,,,,,,,,,,,,,,,,,,,,,,,,,,,,,,0.1424781,,,,,,,,,,,,,,,,,,,,,,,,,,,,right,1,10,30,40,1,1590.535209,1590.535209,1590.535209,None,None,2,0,1.3597971,,,,,,,,,,,,,,,,,,,,,,10,2,2,2024-10-14_21h00.12.626,uWM_experiment,2022.2.3,59.97821591
,,,,,,,,,,,,,,,,,,,,2,0,2,0,4,0,4,0,,,,,,,,,,,,,,,,,,,,,,,,,,,,,,,,,,,,,,,,,,,,,,,,,,,,,,,,,,,,,,,,,,,,,,0.1324781,,,,,,,,,,,,,,,,,,,,,,,,,,,,right,1,160,30,190,1,1600.98568,1600.98568,1600.98568,None,None,3,0,2.1333423,,,,,,,,,,,,,,,,,,,,,,10,2,2,2024-10-14_21h00.12.626,uWM_experiment,2022.2.3,59.97821591
,,,,,,,,,,,,,,,,,,,,2,0,2,0,5,0,5,0,,,,,,,,,,,,,,,,,,,,,,,,,,,,,,,,,,,,,,,,,,,,,,,,,,,,,,,,,,,,,,,,,,,,,,0,,,,,,,,,,,,,,,,,,,,,,,,,,,,left,0,100,30,130,0,1610.369429,1610.369429,1610.369429,None,None,1,1,0.8294615,,,,,,,,,,,,,,,,,,,,,,10,2,2,2024-10-14_21h00.12.626,uWM_experiment,2022.2.3,59.97821591
,,,,,,,,,,,,,,,,,,,,2,0,2,0,6,0,6,0,,,,,,,,,,,,,,,,,,,,,,,,,,,,,,,,,,,,,,,,,,,,,,,,,,,,,,,,,,,,,,,,,,,,,,0,,,,,,,,,,,,,,,,,,,,,,,,,,,,right,0,160,-30,130,0,1621.003201,1621.003201,1621.003201,None,None,1,1,0.6278263,,,,,,,,,,,,,,,,,,,,,,10,2,2,2024-10-14_21h00.12.626,uWM_experiment,2022.2.3,59.97821591
,,,,,,,,,,,,,,,,,,,,2,0,2,0,7,0,7,0,,,,,,,,,,,,,,,,,,,,,,,,,,,,,,,,,,,,,,,,,,,,,,,,,,,,,,,,,,,,,,,,,,,,,,0.1224781,,,,,,,,,,,,,,,,,,,,,,,,,,,,left,0,130,30,160,1,1628.986914,1628.986914,1628.986914,None,None,1,1,0.4358981,,,,,,,,,,,,,,,,,,,,,,10,2,2,2024-10-14_21h00.12.626,uWM_experiment,2022.2.3,59.97821591
,,,,,,,,,,,,,,,,,,,,2,0,2,0,8,0,8,0,,,,,,,,,,,,,,,,,,,,,,,,,,,,,,,,,,,,,,,,,,,,,,,,,,,,,,,,,,,,,,,,,,,,,,0,,,,,,,,,,,,,,,,,,,,,,,,,,,,right,1,160,30,190,0,1636.537222,1636.537222,1636.537222,None,None,1,1,0.3496474,,,,,,,,,,,,,,,,,,,,,,10,2,2,2024-10-14_21h00.12.626,uWM_experiment,2022.2.3,59.97821591
,,,,,,,,,,,,,,,,,,,,2,0,2,0,9,0,9,0,,,,,,,,,,,,,,,,,,,,,,,,,,,,,,,,,,,,,,,,,,,,,,,,,,,,,,,,,,,,,,,,,,,,,,0.1324781,,,,,,,,,,,,,,,,,,,,,,,,,,,,right,0,100,-30,70,1,1642.570827,1642.570827,1642.570827,None,None,1,1,0.3160031,,,,,,,,,,,,,,,,,,,,,,10,2,2,2024-10-14_21h00.12.626,uWM_experiment,2022.2.3,59.97821591
,,,,,,,,,,,,,,,,,,,,2,0,2,0,10,0,10,0,,,,,,,,,,,,,,,,,,,,,,,,,,,,,,,,,,,,,,,,,,,,,,,,,,,,,,,,,,,,,,,,,,,,,,0,,,,,,,,,,,,,,,,,,,,,,,,,,,,right,1,40,30,70,0,1650.771175,1650.771175,1650.771175,None,None,1,1,0.3397194,,,,,,,,,,,,,,,,,,,,,,10,2,2,2024-10-14_21h00.12.626,uWM_experiment,2022.2.3,59.97821591
,,,,,,,,,,,,,,,,,,,,2,0,2,0,11,0,11,0,,,,,,,,,,,,,,,,,,,,,,,,,,,,,,,,,,,,,,,,,,,,,,,,,,,,,,,,,,,,,,,,,,,,,,0.1424781,,,,,,,,,,,,,,,,,,,,,,,,,,,,right,0,100,-30,70,1,1659.738271,1659.738271,1659.738271,None,None,2,0,1.5885385,,,,,,,,,,,,,,,,,,,,,,10,2,2,2024-10-14_21h00.12.626,uWM_experiment,2022.2.3,59.97821591
,,,,,,,,,,,,,,,,,,,,2,0,2,0,12,0,12,0,,,,,,,,,,,,,,,,,,,,,,,,,,,,,,,,,,,,,,,,,,,,,,,,,,,,,,,,,,,,,,,,,,,,,,0.1324781,,,,,,,,,,,,,,,,,,,,,,,,,,,,left,1,10,-30,-20,1,1667.088578,1667.088578,1667.088578,None,None,2,0,1.0463418,,,,,,,,,,,,,,,,,,,,,,10,2,2,2024-10-14_21h00.12.626,uWM_experiment,2022.2.3,59.97821591
,,,,,,,,,,,,,,,,,,,,2,0,2,0,13,0,13,0,,,,,,,,,,,,,,,,,,,,,,,,,,,,,,,,,,,,,,,,,,,,,,,,,,,,,,,,,,,,,,,,,,,,,,0.1224781,,,,,,,,,,,,,,,,,,,,,,,,,,,,right,0,70,-30,40,1,1676.238969,1676.238969,1676.238969,None,None,1,1,0.4879155,,,,,,,,,,,,,,,,,,,,,,10,2,2,2024-10-14_21h00.12.626,uWM_experiment,2022.2.3,59.97821591
,,,,,,,,,,,,,,,,,,,,2,0,2,0,14,0,14,0,,,,,,,,,,,,,,,,,,,,,,,,,,,,,,,,,,,,,,,,,,,,,,,,,,,,,,,,,,,,,,,,,,,,,,0.1324781,,,,,,,,,,,,,,,,,,,,,,,,,,,,right,1,40,30,70,1,1684.956024,1684.956024,1684.956024,None,None,1,1,0.1868338,,,,,,,,,,,,,,,,,,,,,,10,2,2,2024-10-14_21h00.12.626,uWM_experiment,2022.2.3,59.97821591
,,,,,,,,,,,,,,,,,,,,2,0,2,0,15,0,15,0,,,,,,,,,,,,,,,,,,,,,,,,,,,,,,,,,,,,,,,,,,,,,,,,,,,,,,,,,,,,,,,,,,,,,,0.1424781,,,,,,,,,,,,,,,,,,,,,,,,,,,,right,1,160,30,190,1,1690.689613,1690.689613,1690.689613,None,None,1,1,0.3654218,,,,,,,,,,,,,,,,,,,,,,10,2,2,2024-10-14_21h00.12.626,uWM_experiment,2022.2.3,59.97821591
,,,,,,,,,,,,,,,,,,,,2,0,2,0,16,0,16,0,,,,,,,,,,,,,,,,,,,,,,,,,,,,,,,,,,,,,,,,,,,,,,,,,,,,,,,,,,,,,,,,,,,,,,0.1524781,,,,,,,,,,,,,,,,,,,,,,,,,,,,right,1,100,30,130,1,1699.69002,1699.69002,1699.69002,None,None,1,1,0.4288518,,,,,,,,,,,,,,,,,,,,,,10,2,2,2024-10-14_21h00.12.626,uWM_experiment,2022.2.3,59.97821591
,,,,,,,,,,,,,,,,,,,,2,0,2,0,17,0,17,0,,,,,,,,,,,,,,,,,,,,,,,,,,,,,,,,,,,,,,,,,,,,,,,,,,,,,,,,,,,,,,,,,,,,,,0.1624781,,,,,,,,,,,,,,,,,,,,,,,,,,,,left,0,70,30,100,1,1707.807057,1707.807057,1707.807057,None,None,1,1,0.439972,,,,,,,,,,,,,,,,,,,,,,10,2,2,2024-10-14_21h00.12.626,uWM_experiment,2022.2.3,59.97821591
,,,,,,,,,,,,,,,,,,,,2,0,2,0,18,0,18,0,,,,,,,,,,,,,,,,,,,,,,,,,,,,,,,,,,,,,,,,,,,,,,,,,,,,,,,,,,,,,,,,,,,,,,0.1724781,,,,,,,,,,,,,,,,,,,,,,,,,,,,left,1,130,-30,100,1,1715.057378,1715.057378,1715.057378,None,None,1,1,0.2775588,,,,,,,,,,,,,,,,,,,,,,10,2,2,2024-10-14_21h00.12.626,uWM_experiment,2022.2.3,59.97821591
,,,,,,,,,,,,,,,,,,,,2,0,2,0,19,0,19,0,,,,,,,,,,,,,,,,,,,,,,,,,,,,,,,,,,,,,,,,,,,,,,,,,,,,,,,,,,,,,,,,,,,,,,0.1824781,,,,,,,,,,,,,,,,,,,,,,,,,,,,left,0,40,30,70,1,1721.707631,1721.707631,1721.707631,None,None,2,0,1.0351725,,,,,,,,,,,,,,,,,,,,,,10,2,2,2024-10-14_21h00.12.626,uWM_experiment,2022.2.3,59.97821591
,,,,,,,,,,,,,,,,,,,,2,0,2,0,20,0,20,0,,,,,,,,,,,,,,,,,,,,,,,,,,,,,,,,,,,,,,,,,,,,,,,,,,,,,,,,,,,,,,,,,,,,,,0.1724781,,,,,,,,,,,,,,,,,,,,,,,,,,,,left,1,70,-30,40,1,1728.924623,1728.924623,1728.924623,None,None,2,0,0.8022252,,,,,,,,,,,,,,,,,,,,,,10,2,2,2024-10-14_21h00.12.626,uWM_experiment,2022.2.3,59.97821591
,,,,,,,,,,,,,,,,,,,,2,0,2,0,21,0,21,0,,,,,,,,,,,,,,,,,,,,,,,,,,,,,,,,,,,,,,,,,,,,,,,,,,,,,,,,,,,,,,,,,,,,,,0.1624781,,,,,,,,,,,,,,,,,,,,,,,,,,,,left,0,10,30,40,1,1736.291621,1736.291621,1736.291621,None,None,2,0,0.307262,,,,,,,,,,,,,,,,,,,,,,10,2,2,2024-10-14_21h00.12.626,uWM_experiment,2022.2.3,59.97821591
,,,,,,,,,,,,,,,,,,,,2,0,2,0,22,0,22,0,,,,,,,,,,,,,,,,,,,,,,,,,,,,,,,,,,,,,,,,,,,,,,,,,,,,,,,,,,,,,,,,,,,,,,0.1524781,,,,,,,,,,,,,,,,,,,,,,,,,,,,left,1,160,-30,130,1,1742.475241,1742.475241,1742.475241,None,None,1,1,0.3078418,,,,,,,,,,,,,,,,,,,,,,10,2,2,2024-10-14_21h00.12.626,uWM_experiment,2022.2.3,59.97821591
,,,,,,,,,,,,,,,,,,,,2,0,2,0,23,0,23,0,,,,,,,,,,,,,,,,,,,,,,,,,,,,,,,,,,,,,,,,,,,,,,,,,,,,,,,,,,,,,,,,,,,,,,0.1624781,,,,,,,,,,,,,,,,,,,,,,,,,,,,left,1,70,-30,40,1,1750.108893,1750.108893,1750.108893,None,None,2,0,0.9939715,,,,,,,,,,,,,,,,,,,,,,10,2,2,2024-10-14_21h00.12.626,uWM_experiment,2022.2.3,59.97821591
,,,,,,,,,,,,,,,,,,,,2,0,2,0,,,,,0,0,0,0,,,,,,,,,,,,,,,,,,,,,,,,,,,,,,,,,,,,,,,,,,,,,,,,,,,,,,,,,,,,,,,,,,,,,,,,,,,,,,,,,,,,,,,,,,,,,,,,,,,,,,,,,,,,1751.125575,1751.125575,space,260.2014062,space,None,,2011.353691,2011.353691,15.0052925,,,,,,,,,,,,10,2,2,2024-10-14_21h00.12.626,uWM_experiment,2022.2.3,59.97821591
,,,,,,,,,,,,,,,,,,,,2,0,2,0,,,,,1,0,1,0,,,,,,,,,,,,,,,,,,,,,,,,,,,,,,,,,,,,,,,,,,,,,,,,,,,,,,,,,,,,,,,,,,,,,,,,,,,,,,,,,,,,,,,,,,,,,,,,,,,,,,,,,,,,,,,,,,,,,,,,,,,,,,,,,10,2,2,2024-10-14_21h00.12.626,uWM_experiment,2022.2.3,59.97821591
,,,,,,,,,,,,,,,,,,,,2,0,2,0,,,,,2,0,2,0,,,,,,,,,,,,,,,,,,,,,,,,,,,,,,,,,,,,,,,,,,,,,,,,,,,,,,,,,,,,,,,,,,,,,,,,,,,,,,,,,,,,,,,,,,,,,,,,,,,,,,,,,,,,,,,,,,,,,,,,,,,,,,,,,10,2,2,2024-10-14_21h00.12.626,uWM_experiment,2022.2.3,59.97821591
,,,,,,,,,,,,,,,,,,,,3,0,3,0,0,0,0,0,,,,,,,,,,,,,,,,,,,,,,,,,,,,,,,,,,,,,,,,,,,,,,,,,,,,,,,,,,,,,,,,,,,,,,0.1524781,,,,,,,,,,,,,,,,,,,,2026.387695,2027.087758,2027.387739,2028.087769,2028.387785,2029.087848,2029.087848,2029.40451,left,1,130,-30,100,1,2035.588109,2035.588109,2035.588109,None,None,1,1,4.0027358,,,,,,,None,,,,,,,,,,,,,,,10,2,2,2024-10-14_21h00.12.626,uWM_experiment,2022.2.3,59.97821591
,,,,,,,,,,,,,,,,,,,,3,0,3,0,1,0,1,0,,,,,,,,,,,,,,,,,,,,,,,,,,,,,,,,,,,,,,,,,,,,,,,,,,,,,,,,,,,,,,,,,,,,,,0,,,,,,,,,,,,,,,,,,,,,,,,,,,,left,0,160,30,190,0,2047.271946,2047.271946,2047.271946,None,None,1,1,0.6231432,,,,,,,,,,,,,,,,,,,,,,10,2,2,2024-10-14_21h00.12.626,uWM_experiment,2022.2.3,59.97821591
,,,,,,,,,,,,,,,,,,,,3,0,3,0,2,0,2,0,,,,,,,,,,,,,,,,,,,,,,,,,,,,,,,,,,,,,,,,,,,,,,,,,,,,,,,,,,,,,,,,,,,,,,0,,,,,,,,,,,,,,,,,,,,,,,,,,,,left,1,10,-30,-20,0,2057.305736,2057.305736,2057.305736,None,None,1,1,2.1653422,,,,,,,,,,,,,,,,,,,,,,10,2,2,2024-10-14_21h00.12.626,uWM_experiment,2022.2.3,59.97821591
,,,,,,,,,,,,,,,,,,,,3,0,3,0,3,0,3,0,,,,,,,,,,,,,,,,,,,,,,,,,,,,,,,,,,,,,,,,,,,,,,,,,,,,,,,,,,,,,,,,,,,,,,0.1624781,,,,,,,,,,,,,,,,,,,,,,,,,,,,left,1,100,-30,70,1,2069.07293,2069.07293,2069.07293,None,None,1,1,3.3741235,,,,,,,,,,,,,,,,,,,,,,10,2,2,2024-10-14_21h00.12.626,uWM_experiment,2022.2.3,59.97821591
,,,,,,,,,,,,,,,,,,,,3,0,3,0,4,0,4,0,,,,,,,,,,,,,,,,,,,,,,,,,,,,,,,,,,,,,,,,,,,,,,,,,,,,,,,,,,,,,,,,,,,,,,0.1724781,,,,,,,,,,,,,,,,,,,,,,,,,,,,left,1,100,-30,70,1,2081.52344,2081.52344,2081.52344,None,None,1,1,0.4674206,,,,,,,,,,,,,,,,,,,,,,10,2,2,2024-10-14_21h00.12.626,uWM_experiment,2022.2.3,59.97821591
,,,,,,,,,,,,,,,,,,,,3,0,3,0,5,0,5,0,,,,,,,,,,,,,,,,,,,,,,,,,,,,,,,,,,,,,,,,,,,,,,,,,,,,,,,,,,,,,,,,,,,,,,0.1824781,,,,,,,,,,,,,,,,,,,,,,,,,,,,right,1,160,30,190,1,2090.257186,2090.257186,2090.257186,None,None,1,1,0.5337499,,,,,,,,,,,,,,,,,,,,,,10,2,2,2024-10-14_21h00.12.626,uWM_experiment,2022.2.3,59.97821591
,,,,,,,,,,,,,,,,,,,,3,0,3,0,6,0,6,0,,,,,,,,,,,,,,,,,,,,,,,,,,,,,,,,,,,,,,,,,,,,,,,,,,,,,,,,,,,,,,,,,,,,,,0.1924781,,,,,,,,,,,,,,,,,,,,,,,,,,,,right,1,40,30,70,1,2100.557642,2100.557642,2100.557642,None,None,1,1,0.5372944,,,,,,,,,,,,,,,,,,,,,,10,2,2,2024-10-14_21h00.12.626,uWM_experiment,2022.2.3,59.97821591
,,,,,,,,,,,,,,,,,,,,3,0,3,0,7,0,7,0,,,,,,,,,,,,,,,,,,,,,,,,,,,,,,,,,,,,,,,,,,,,,,,,,,,,,,,,,,,,,,,,,,,,,,0.2024781,,,,,,,,,,,,,,,,,,,,,,,,,,,,right,0,100,-30,70,1,2109.491357,2109.491357,2109.491357,None,None,2,0,0.8996032,,,,,,,,,,,,,,,,,,,,,,10,2,2,2024-10-14_21h00.12.626,uWM_experiment,2022.2.3,59.97821591
,,,,,,,,,,,,,,,,,,,,3,0,3,0,8,0,8,0,,,,,,,,,,,,,,,,,,,,,,,,,,,,,,,,,,,,,,,,,,,,,,,,,,,,,,,,,,,,,,,,,,,,,,0.1924781,,,,,,,,,,,,,,,,,,,,,,,,,,,,right,1,160,30,190,1,2119.341786,2119.341786,2119.341786,None,None,1,1,1.2652795,,,,,,,,,,,,,,,,,,,,,,10,2,2,2024-10-14_21h00.12.626,uWM_experiment,2022.2.3,59.97821591
,,,,,,,,,,,,,,,,,,,,3,0,3,0,9,0,9,0,,,,,,,,,,,,,,,,,,,,,,,,,,,,,,,,,,,,,,,,,,,,,,,,,,,,,,,,,,,,,,,,,,,,,,0.2024781,,,,,,,,,,,,,,,,,,,,,,,,,,,,left,0,10,30,40,1,2128.975534,2128.975534,2128.975534,None,None,1,1,2.8075649,,,,,,,,,,,,,,,,,,,,,,10,2,2,2024-10-14_21h00.12.626,uWM_experiment,2022.2.3,59.97821591
,,,,,,,,,,,,,,,,,,,,3,0,3,0,10,0,10,0,,,,,,,,,,,,,,,,,,,,,,,,,,,,,,,,,,,,,,,,,,,,,,,,,,,,,,,,,,,,,,,,,,,,,,0.2124781,,,,,,,,,,,,,,,,,,,,,,,,,,,,left,0,70,30,100,1,2138.825964,2138.825964,2138.825964,None,None,1,1,0.50909,,,,,,,,,,,,,,,,,,,,,,10,2,2,2024-10-14_21h00.12.626,uWM_experiment,2022.2.3,59.97821591
,,,,,,,,,,,,,,,,,,,,3,0,3,0,11,0,11,0,,,,,,,,,,,,,,,,,,,,,,,,,,,,,,,,,,,,,,,,,,,,,,,,,,,,,,,,,,,,,,,,,,,,,,0,,,,,,,,,,,,,,,,,,,,,,,,,,,,left,1,10,-30,-20,0,2147.426362,2147.426362,2147.426362,None,None,1,1,0.6525161,,,,,,,,,,,,,,,,,,,,,,10,2,2,2024-10-14_21h00.12.626,uWM_experiment,2022.2.3,59.97821591
,,,,,,,,,,,,,,,,,,,,3,0,3,0,12,0,12,0,,,,,,,,,,,,,,,,,,,,,,,,,,,,,,,,,,,,,,,,,,,,,,,,,,,,,,,,,,,,,,,,,,,,,,0.2224781,,,,,,,,,,,,,,,,,,,,,,,,,,,,right,0,70,-30,40,1,2156.310081,2156.310081,2156.310081,None,None,1,1,0.456886,,,,,,,,,,,,,,,,,,,,,,10,2,2,2024-10-14_21h00.12.626,uWM_experiment,2022.2.3,59.97821591
,,,,,,,,,,,,,,,,,,,,3,0,3,0,13,0,13,0,,,,,,,,,,,,,,,,,,,,,,,,,,,,,,,,,,,,,,,,,,,,,,,,,,,,,,,,,,,,,,,,,,,,,,0.2324781,,,,,,,,,,,,,,,,,,,,,,,,,,,,right,0,160,-30,130,1,2165.860488,2165.860488,2165.860488,None,None,1,1,0.4343628,,,,,,,,,,,,,,,,,,,,,,10,2,2,2024-10-14_21h00.12.626,uWM_experiment,2022.2.3,59.97821591
,,,,,,,,,,,,,,,,,,,,3,0,3,0,14,0,14,0,,,,,,,,,,,,,,,,,,,,,,,,,,,,,,,,,,,,,,,,,,,,,,,,,,,,,,,,,,,,,,,,,,,,,,0.2424781,,,,,,,,,,,,,,,,,,,,,,,,,,,,right,1,10,30,40,1,2176.627707,2176.627707,2176.627707,None,None,1,1,1.3472997,,,,,,,,,,,,,,,,,,,,,,10,2,2,2024-10-14_21h00.12.626,uWM_experiment,2022.2.3,59.97821591
,,,,,,,,,,,,,,,,,,,,3,0,3,0,15,0,15,0,,,,,,,,,,,,,,,,,,,,,,,,,,,,,,,,,,,,,,,,,,,,,,,,,,,,,,,,,,,,,,,,,,,,,,0.2524781,,,,,,,,,,,,,,,,,,,,,,,,,,,,right,1,70,30,100,1,2184.111311,2184.111311,2184.111311,None,None,2,0,0.7596145,,,,,,,,,,,,,,,,,,,,,,10,2,2,2024-10-14_21h00.12.626,uWM_experiment,2022.2.3,59.97821591
,,,,,,,,,,,,,,,,,,,,3,0,3,0,16,0,16,0,,,,,,,,,,,,,,,,,,,,,,,,,,,,,,,,,,,,,,,,,,,,,,,,,,,,,,,,,,,,,,,,,,,,,,0.2424781,,,,,,,,,,,,,,,,,,,,,,,,,,,,left,1,70,-30,40,1,2193.061704,2193.061704,2193.061704,None,None,1,1,0.5133743,,,,,,,,,,,,,,,,,,,,,,10,2,2,2024-10-14_21h00.12.626,uWM_experiment,2022.2.3,59.97821591
,,,,,,,,,,,,,,,,,,,,3,0,3,0,17,0,17,0,,,,,,,,,,,,,,,,,,,,,,,,,,,,,,,,,,,,,,,,,,,,,,,,,,,,,,,,,,,,,,,,,,,,,,0.2524781,,,,,,,,,,,,,,,,,,,,,,,,,,,,right,1,70,30,100,1,2199.928652,2199.928652,2199.928652,None,None,1,1,0.430458,,,,,,,,,,,,,,,,,,,,,,10,2,2,2024-10-14_21h00.12.626,uWM_experiment,2022.2.3,59.97821591
,,,,,,,,,,,,,,,,,,,,3,0,3,0,18,0,18,0,,,,,,,,,,,,,,,,,,,,,,,,,,,,,,,,,,,,,,,,,,,,,,,,,,,,,,,,,,,,,,,,,,,,,,0.2624781,,,,,,,,,,,,,,,,,,,,,,,,,,,,right,1,130,30,160,1,2208.695729,2208.695729,2208.695729,None,None,1,1,0.7674224,,,,,,,,,,,,,,,,,,,,,,10,2,2,2024-10-14_21h00.12.626,uWM_experiment,2022.2.3,59.97821591
,,,,,,,,,,,,,,,,,,,,3,0,3,0,19,0,19,0,,,,,,,,,,,,,,,,,,,,,,,,,,,,,,,,,,,,,,,,,,,,,,,,,,,,,,,,,,,,,,,,,,,,,,0,,,,,,,,,,,,,,,,,,,,,,,,,,,,left,1,40,-30,10,0,2217.99611,2217.99611,2217.99611,None,None,1,1,0.5229272,,,,,,,,,,,,,,,,,,,,,,10,2,2,2024-10-14_21h00.12.626,uWM_experiment,2022.2.3,59.97821591
,,,,,,,,,,,,,,,,,,,,3,0,3,0,20,0,20,0,,,,,,,,,,,,,,,,,,,,,,,,,,,,,,,,,,,,,,,,,,,,,,,,,,,,,,,,,,,,,,,,,,,,,,0.2724781,,,,,,,,,,,,,,,,,,,,,,,,,,,,right,0,10,-30,-20,1,2226.613188,2226.613188,2226.613188,None,None,2,0,1.0017091,,,,,,,,,,,,,,,,,,,,,,10,2,2,2024-10-14_21h00.12.626,uWM_experiment,2022.2.3,59.97821591
,,,,,,,,,,,,,,,,,,,,3,0,3,0,21,0,21,0,,,,,,,,,,,,,,,,,,,,,,,,,,,,,,,,,,,,,,,,,,,,,,,,,,,,,,,,,,,,,,,,,,,,,,0.2624781,,,,,,,,,,,,,,,,,,,,,,,,,,,,left,1,10,-30,-20,1,2233.66346,2233.66346,2233.66346,None,None,2,0,0.759643,,,,,,,,,,,,,,,,,,,,,,10,2,2,2024-10-14_21h00.12.626,uWM_experiment,2022.2.3,59.97821591
,,,,,,,,,,,,,,,,,,,,3,0,3,0,22,0,22,0,,,,,,,,,,,,,,,,,,,,,,,,,,,,,,,,,,,,,,,,,,,,,,,,,,,,,,,,,,,,,,,,,,,,,,0.2524781,,,,,,,,,,,,,,,,,,,,,,,,,,,,left,1,70,-30,40,1,2241.913811,2241.913811,2241.913811,None,None,1,1,0.4131623,,,,,,,,,,,,,,,,,,,,,,10,2,2,2024-10-14_21h00.12.626,uWM_experiment,2022.2.3,59.97821591
,,,,,,,,,,,,,,,,,,,,3,0,3,0,23,0,23,0,,,,,,,,,,,,,,,,,,,,,,,,,,,,,,,,,,,,,,,,,,,,,,,,,,,,,,,,,,,,,,,,,,,,,,0.2624781,,,,,,,,,,,,,,,,,,,,,,,,,,,,left,0,10,30,40,1,2249.780854,2249.780854,2249.780854,None,None,2,0,0.6101515,,,,,,,,,,,,,,,,,,,,,,10,2,2,2024-10-14_21h00.12.626,uWM_experiment,2022.2.3,59.97821591
,,,,,,,,,,,,,,,,,,,,3,0,3,0,,,,,0,0,0,0,,,,,,,,,,,,,,,,,,,,,,,,,,,,,,,,,,,,,,,,,,,,,,,,,,,,,,,,,,,,,,,,,,,,,,,,,,,,,,,,,,,,,,,,,,,,,,,,,,,,,,,,,,,,2250.414207,2250.414207,space,187.6167888,None,None,,,,,,,,,,,,,,,,10,2,2,2024-10-14_21h00.12.626,uWM_experiment,2022.2.3,59.97821591
,,,,,,,,,,,,,,,,,,,,3,0,3,0,,,,,1,0,1,0,,,,,,,,,,,,,,,,,,,,,,,,,,,,,,,,,,,,,,,,,,,,,,,,,,,,,,,,,,,,,,,,,,,,,,,,,,,,,,,,,,,,,,,,,,,,,,,,,,,,,,,,,,,,,,,,,,,,,,,,,,,,,,,,,10,2,2,2024-10-14_21h00.12.626,uWM_experiment,2022.2.3,59.97821591
,,,,,,,,,,,,,,,,,,,,3,0,3,0,,,,,2,0,2,0,,,,,,,,,,,,,,,,,,,,,,,,,,,,,,,,,,,,,,,,,,,,,,,,,,,,,,,,,,,,,,,,,,,,,,,,,,,,,,,,,,,,,,,,,,,,,,,,,,,,,,,,,,,,,,,,,,,,,,,,,,,,,,,,,10,2,2,2024-10-14_21h00.12.626,uWM_experiment,2022.2.3,59.97821591
,,,,,,,,,,,,,,,,,,,,4,0,4,0,0,0,0,0,,,,,,,,,,,,,,,,,,,,,,,,,,,,,,,,,,,,,,,,,,,,,,,,,,,,,,,,,,,,,,,,,,,,,,0.2524781,,,,,,,,,,,,,,,,,,,,2438.055766,2438.755792,2439.055829,2439.755836,2440.055865,2440.755879,2440.755879,2441.072572,left,1,130,-30,100,1,2445.922807,2445.922807,2445.922807,None,None,3,0,1.9483558,,,,,,,None,,,,,,,,,,,,,,,10,2,2,2024-10-14_21h00.12.626,uWM_experiment,2022.2.3,59.97821591
,,,,,,,,,,,,,,,,,,,,4,0,4,0,1,0,1,0,,,,,,,,,,,,,,,,,,,,,,,,,,,,,,,,,,,,,,,,,,,,,,,,,,,,,,,,,,,,,,,,,,,,,,0.2424781,,,,,,,,,,,,,,,,,,,,,,,,,,,,right,1,40,30,70,1,2455.90655,2455.90655,2455.90655,None,None,2,0,0.9563983,,,,,,,,,,,,,,,,,,,,,,10,2,2,2024-10-14_21h00.12.626,uWM_experiment,2022.2.3,59.97821591
,,,,,,,,,,,,,,,,,,,,4,0,4,0,2,0,2,0,,,,,,,,,,,,,,,,,,,,,,,,,,,,,,,,,,,,,,,,,,,,,,,,,,,,,,,,,,,,,,,,,,,,,,0.2324781,,,,,,,,,,,,,,,,,,,,,,,,,,,,right,0,130,-30,100,1,2469.073806,2469.073806,2469.073806,None,None,2,0,2.4051834,,,,,,,,,,,,,,,,,,,,,,10,2,2,2024-10-14_21h00.12.626,uWM_experiment,2022.2.3,59.97821591
,,,,,,,,,,,,,,,,,,,,4,0,4,0,3,0,3,0,,,,,,,,,,,,,,,,,,,,,,,,,,,,,,,,,,,,,,,,,,,,,,,,,,,,,,,,,,,,,,,,,,,,,,0.2224781,,,,,,,,,,,,,,,,,,,,,,,,,,,,right,0,130,-30,100,1,2480.891002,2480.891002,2480.891002,None,None,2,0,0.2279378,,,,,,,,,,,,,,,,,,,,,,10,2,2,2024-10-14_21h00.12.626,uWM_experiment,2022.2.3,59.97821591
,,,,,,,,,,,,,,,,,,,,4,0,4,0,4,0,4,0,,,,,,,,,,,,,,,,,,,,,,,,,,,,,,,,,,,,,,,,,,,,,,,,,,,,,,,,,,,,,,,,,,,,,,0,,,,,,,,,,,,,,,,,,,,,,,,,,,,right,0,10,-30,-20,0,2487.307943,2487.307943,2487.307943,None,None,1,1,0.4831641,,,,,,,,,,,,,,,,,,,,,,10,2,2,2024-10-14_21h00.12.626,uWM_experiment,2022.2.3,59.97821591
,,,,,,,,,,,,,,,,,,,,4,0,4,0,5,0,5,0,,,,,,,,,,,,,,,,,,,,,,,,,,,,,,,,,,,,,,,,,,,,,,,,,,,,,,,,,,,,,,,,,,,,,,0,,,,,,,,,,,,,,,,,,,,,,,,,,,,left,0,10,30,40,0,2496.175,2496.175,2496.175,None,None,1,1,0.4559592,,,,,,,,,,,,,,,,,,,,,,10,2,2,2024-10-14_21h00.12.626,uWM_experiment,2022.2.3,59.97821591
,,,,,,,,,,,,,,,,,,,,4,0,4,0,6,0,6,0,,,,,,,,,,,,,,,,,,,,,,,,,,,,,,,,,,,,,,,,,,,,,,,,,,,,,,,,,,,,,,,,,,,,,,0.2124781,,,,,,,,,,,,,,,,,,,,,,,,,,,,right,1,160,30,190,1,2504.192004,2504.192004,2504.192004,None,None,1,1,0.4549776,,,,,,,,,,,,,,,,,,,,,,10,2,2,2024-10-14_21h00.12.626,uWM_experiment,2022.2.3,59.97821591
,,,,,,,,,,,,,,,,,,,,4,0,4,0,7,0,7,0,,,,,,,,,,,,,,,,,,,,,,,,,,,,,,,,,,,,,,,,,,,,,,,,,,,,,,,,,,,,,,,,,,,,,,0.2224781,,,,,,,,,,,,,,,,,,,,,,,,,,,,left,1,130,-30,100,1,2511.258982,2511.258982,2511.258982,None,None,2,0,2.3320476,,,,,,,,,,,,,,,,,,,,,,10,2,2,2024-10-14_21h00.12.626,uWM_experiment,2022.2.3,59.97821591
,,,,,,,,,,,,,,,,,,,,4,0,4,0,8,0,8,0,,,,,,,,,,,,,,,,,,,,,,,,,,,,,,,,,,,,,,,,,,,,,,,,,,,,,,,,,,,,,,,,,,,,,,0.2124781,,,,,,,,,,,,,,,,,,,,,,,,,,,,left,1,70,-30,40,1,2519.859344,2519.859344,2519.859344,None,None,2,0,0.9477561,,,,,,,,,,,,,,,,,,,,,,10,2,2,2024-10-14_21h00.12.626,uWM_experiment,2022.2.3,59.97821591
,,,,,,,,,,,,,,,,,,,,4,0,4,0,9,0,9,0,,,,,,,,,,,,,,,,,,,,,,,,,,,,,,,,,,,,,,,,,,,,,,,,,,,,,,,,,,,,,,,,,,,,,,0,,,,,,,,,,,,,,,,,,,,,,,,,,,,right,1,10,30,40,0,2529.44314,2529.44314,2529.44314,None,None,1,1,0.7878026,,,,,,,,,,,,,,,,,,,,,,10,2,2,2024-10-14_21h00.12.626,uWM_experiment,2022.2.3,59.97821591
,,,,,,,,,,,,,,,,,,,,4,0,4,0,10,0,10,0,,,,,,,,,,,,,,,,,,,,,,,,,,,,,,,,,,,,,,,,,,,,,,,,,,,,,,,,,,,,,,,,,,,,,,0,,,,,,,,,,,,,,,,,,,,,,,,,,,,left,0,130,30,160,0,2538.610172,2538.610172,2538.610172,None,None,1,1,0.3328545,,,,,,,,,,,,,,,,,,,,,,10,2,2,2024-10-14_21h00.12.626,uWM_experiment,2022.2.3,59.97821591
,,,,,,,,,,,,,,,,,,,,4,0,4,0,11,0,11,0,,,,,,,,,,,,,,,,,,,,,,,,,,,,,,,,,,,,,,,,,,,,,,,,,,,,,,,,,,,,,,,,,,,,,,0.2024781,,,,,,,,,,,,,,,,,,,,,,,,,,,,right,0,100,-30,70,1,2551.044043,2551.044043,2551.044043,None,None,1,1,1.0669796,,,,,,,,,,,,,,,,,,,,,,10,2,2,2024-10-14_21h00.12.626,uWM_experiment,2022.2.3,59.97821591
,,,,,,,,,,,,,,,,,,,,4,0,4,0,12,0,12,0,,,,,,,,,,,,,,,,,,,,,,,,,,,,,,,,,,,,,,,,,,,,,,,,,,,,,,,,,,,,,,,,,,,,,,0.2124781,,,,,,,,,,,,,,,,,,,,,,,,,,,,left,0,160,30,190,1,2559.377834,2559.377834,2559.377834,None,None,2,0,1.2133152,,,,,,,,,,,,,,,,,,,,,,10,2,2,2024-10-14_21h00.12.626,uWM_experiment,2022.2.3,59.97821591
,,,,,,,,,,,,,,,,,,,,4,0,4,0,13,0,13,0,,,,,,,,,,,,,,,,,,,,,,,,,,,,,,,,,,,,,,,,,,,,,,,,,,,,,,,,,,,,,,,,,,,,,,0.2024781,,,,,,,,,,,,,,,,,,,,,,,,,,,,left,1,40,-30,10,1,2566.478077,2566.478077,2566.478077,None,None,1,1,0.5528542,,,,,,,,,,,,,,,,,,,,,,10,2,2,2024-10-14_21h00.12.626,uWM_experiment,2022.2.3,59.97821591
,,,,,,,,,,,,,,,,,,,,4,0,4,0,14,0,14,0,,,,,,,,,,,,,,,,,,,,,,,,,,,,,,,,,,,,,,,,,,,,,,,,,,,,,,,,,,,,,,,,,,,,,,0.2124781,,,,,,,,,,,,,,,,,,,,,,,,,,,,right,1,160,30,190,1,2573.611746,2573.611746,2573.611746,None,None,2,0,0.987175,,,,,,,,,,,,,,,,,,,,,,10,2,2,2024-10-14_21h00.12.626,uWM_experiment,2022.2.3,59.97821591
,,,,,,,,,,,,,,,,,,,,4,0,4,0,15,0,15,0,,,,,,,,,,,,,,,,,,,,,,,,,,,,,,,,,,,,,,,,,,,,,,,,,,,,,,,,,,,,,,,,,,,,,,0.2024781,,,,,,,,,,,,,,,,,,,,,,,,,,,,left,1,70,-30,40,1,2582.328773,2582.328773,2582.328773,None,None,3,0,1.9103768,,,,,,,,,,,,,,,,,,,,,,10,2,2,2024-10-14_21h00.12.626,uWM_experiment,2022.2.3,59.97821591
,,,,,,,,,,,,,,,,,,,,4,0,4,0,16,0,16,0,,,,,,,,,,,,,,,,,,,,,,,,,,,,,,,,,,,,,,,,,,,,,,,,,,,,,,,,,,,,,,,,,,,,,,0.1924781,,,,,,,,,,,,,,,,,,,,,,,,,,,,left,1,70,-30,40,1,2592.329211,2592.329211,2592.329211,None,None,2,0,0.3257592,,,,,,,,,,,,,,,,,,,,,,10,2,2,2024-10-14_21h00.12.626,uWM_experiment,2022.2.3,59.97821591
,,,,,,,,,,,,,,,,,,,,4,0,4,0,17,0,17,0,,,,,,,,,,,,,,,,,,,,,,,,,,,,,,,,,,,,,,,,,,,,,,,,,,,,,,,,,,,,,,,,,,,,,,0.1824781,,,,,,,,,,,,,,,,,,,,,,,,,,,,left,1,40,-30,10,1,2598.362791,2598.362791,2598.362791,None,None,3,0,1.11626,,,,,,,,,,,,,,,,,,,,,,10,2,2,2024-10-14_21h00.12.626,uWM_experiment,2022.2.3,59.97821591
,,,,,,,,,,,,,,,,,,,,4,0,4,0,18,0,18,0,,,,,,,,,,,,,,,,,,,,,,,,,,,,,,,,,,,,,,,,,,,,,,,,,,,,,,,,,,,,,,,,,,,,,,0.1724781,,,,,,,,,,,,,,,,,,,,,,,,,,,,right,1,160,30,190,1,2605.346477,2605.346477,2605.346477,None,None,3,0,1.0285732,,,,,,,,,,,,,,,,,,,,,,10,2,2,2024-10-14_21h00.12.626,uWM_experiment,2022.2.3,59.97821591
,,,,,,,,,,,,,,,,,,,,4,0,4,0,19,0,19,0,,,,,,,,,,,,,,,,,,,,,,,,,,,,,,,,,,,,,,,,,,,,,,,,,,,,,,,,,,,,,,,,,,,,,,0,,,,,,,,,,,,,,,,,,,,,,,,,,,,right,1,160,30,190,0,2612.913446,2612.913446,2612.913446,None,None,2,0,0.445565,,,,,,,,,,,,,,,,,,,,,,10,2,2,2024-10-14_21h00.12.626,uWM_experiment,2022.2.3,59.97821591
,,,,,,,,,,,,,,,,,,,,4,0,4,0,20,0,20,0,,,,,,,,,,,,,,,,,,,,,,,,,,,,,,,,,,,,,,,,,,,,,,,,,,,,,,,,,,,,,,,,,,,,,,0.1624781,,,,,,,,,,,,,,,,,,,,,,,,,,,,left,1,10,-30,-20,1,2621.247155,2621.247155,2621.247155,None,None,1,1,0.7838246,,,,,,,,,,,,,,,,,,,,,,10,2,2,2024-10-14_21h00.12.626,uWM_experiment,2022.2.3,59.97821591
,,,,,,,,,,,,,,,,,,,,4,0,4,0,21,0,21,0,,,,,,,,,,,,,,,,,,,,,,,,,,,,,,,,,,,,,,,,,,,,,,,,,,,,,,,,,,,,,,,,,,,,,,0.1724781,,,,,,,,,,,,,,,,,,,,,,,,,,,,right,1,160,30,190,1,2628.580784,2628.580784,2628.580784,None,None,2,0,1.8663812,,,,,,,,,,,,,,,,,,,,,,10,2,2,2024-10-14_21h00.12.626,uWM_experiment,2022.2.3,59.97821591
,,,,,,,,,,,,,,,,,,,,4,0,4,0,22,0,22,0,,,,,,,,,,,,,,,,,,,,,,,,,,,,,,,,,,,,,,,,,,,,,,,,,,,,,,,,,,,,,,,,,,,,,,0.1624781,,,,,,,,,,,,,,,,,,,,,,,,,,,,left,1,40,-30,10,1,2636.331145,2636.331145,2636.331145,None,None,2,0,0.2999942,,,,,,,,,,,,,,,,,,,,,,10,2,2,2024-10-14_21h00.12.626,uWM_experiment,2022.2.3,59.97821591
,,,,,,,,,,,,,,,,,,,,4,0,4,0,23,0,23,0,,,,,,,,,,,,,,,,,,,,,,,,,,,,,,,,,,,,,,,,,,,,,,,,,,,,,,,,,,,,,,,,,,,,,,0.1,,,,,,,,,,,,,,,,,,,,,,,,,,,,left,1,10,-30,-20,2,2642.514747,2642.514747,2642.514747,None,None,4,0,1.5484146,,,,,,,,,,,,,,,,,,,,,,10,2,2,2024-10-14_21h00.12.626,uWM_experiment,2022.2.3,59.97821591
,,,,,,,,,,,,,,,,,,,,4,0,4,0,,,,,0,0,0,0,,,,,,,,,,,,,,,,,,,,,,,,,,,,,,,,,,,,,,,,,,,,,,,,,,,,,,,,,,,,,,,,,,,,,,,,,,,,,,,,,,,,,,,,,,,,,,,,,,,,,,,,,,,,2644.081467,2644.081467,space,155.4056202,None,None,,,,,,,,,,,,,,,,10,2,2,2024-10-14_21h00.12.626,uWM_experiment,2022.2.3,59.97821591
,,,,,,,,,,,,,,,,,,,,4,0,4,0,,,,,1,0,1,0,,,,,,,,,,,,,,,,,,,,,,,,,,,,,,,,,,,,,,,,,,,,,,,,,,,,,,,,,,,,,,,,,,,,,,,,,,,,,,,,,,,,,,,,,,,,,,,,,,,,,,,,,,,,,,,,,,,,,,,,,,,,,,,,,10,2,2,2024-10-14_21h00.12.626,uWM_experiment,2022.2.3,59.97821591
,,,,,,,,,,,,,,,,,,,,4,0,4,0,,,,,2,0,2,0,,,,,,,,,,,,,,,,,,,,,,,,,,,,,,,,,,,,,,,,,,,,,,,,,,,,,,,,,,,,,,,,,,,,,,,,,,,,,,,,,,,,,,,,,,,,,,,,,,,,,,,,,,,,,,,,,,,,,,,,,,,,,,,,,10,2,2,2024-10-14_21h00.12.626,uWM_experiment,2022.2.3,59.97821591
,,,,,,,,,,,,,,,,,,,,5,0,5,0,0,0,0,0,,,,,,,,,,,,,,,,,,,,,,,,,,,,,,,,,,,,,,,,,,,,,,,,,,,,,,,,,,,,,,,,,,,,,,0.1524781,,,,,,,,,,,,,,,,,,,,2799.505002,2800.204991,2800.505009,2801.205036,2801.50505,2802.20508,2802.20508,2802.521768,right,0,70,-30,40,1,2807.288646,2807.288646,2807.288646,None,None,3,0,1.8383103,,,,,,,None,,,,,,,,,,,,,,,10,2,2,2024-10-14_21h00.12.626,uWM_experiment,2022.2.3,59.97821591
,,,,,,,,,,,,,,,,,,,,5,0,5,0,1,0,1,0,,,,,,,,,,,,,,,,,,,,,,,,,,,,,,,,,,,,,,,,,,,,,,,,,,,,,,,,,,,,,,,,,,,,,,0.1424781,,,,,,,,,,,,,,,,,,,,,,,,,,,,right,0,100,-30,70,1,2814.855668,2814.855668,2814.855668,None,None,2,0,1.679512,,,,,,,,,,,,,,,,,,,,,,10,2,2,2024-10-14_21h00.12.626,uWM_experiment,2022.2.3,59.97821591
,,,,,,,,,,,,,,,,,,,,5,0,5,0,2,0,2,0,,,,,,,,,,,,,,,,,,,,,,,,,,,,,,,,,,,,,,,,,,,,,,,,,,,,,,,,,,,,,,,,,,,,,,0.1324781,,,,,,,,,,,,,,,,,,,,,,,,,,,,left,1,130,-30,100,1,2822.239279,2822.239279,2822.239279,None,None,3,0,1.3119089,,,,,,,,,,,,,,,,,,,,,,10,2,2,2024-10-14_21h00.12.626,uWM_experiment,2022.2.3,59.97821591
,,,,,,,,,,,,,,,,,,,,5,0,5,0,3,0,3,0,,,,,,,,,,,,,,,,,,,,,,,,,,,,,,,,,,,,,,,,,,,,,,,,,,,,,,,,,,,,,,,,,,,,,,0.1224781,,,,,,,,,,,,,,,,,,,,,,,,,,,,right,1,160,30,190,1,2830.089657,2830.089657,2830.089657,None,None,3,0,1.4213584,,,,,,,,,,,,,,,,,,,,,,10,2,2,2024-10-14_21h00.12.626,uWM_experiment,2022.2.3,59.97821591
,,,,,,,,,,,,,,,,,,,,5,0,5,0,4,0,4,0,,,,,,,,,,,,,,,,,,,,,,,,,,,,,,,,,,,,,,,,,,,,,,,,,,,,,,,,,,,,,,,,,,,,,,0.1124781,,,,,,,,,,,,,,,,,,,,,,,,,,,,right,0,70,-30,40,1,2837.739978,2837.739978,2837.739978,None,None,1,1,1.2272116,,,,,,,,,,,,,,,,,,,,,,10,2,2,2024-10-14_21h00.12.626,uWM_experiment,2022.2.3,59.97821591
,,,,,,,,,,,,,,,,,,,,5,0,5,0,5,0,5,0,,,,,,,,,,,,,,,,,,,,,,,,,,,,,,,,,,,,,,,,,,,,,,,,,,,,,,,,,,,,,,,,,,,,,,0.1224781,,,,,,,,,,,,,,,,,,,,,,,,,,,,left,1,10,-30,-20,1,2844.673611,2844.673611,2844.673611,None,None,3,0,1.2135825,,,,,,,,,,,,,,,,,,,,,,10,2,2,2024-10-14_21h00.12.626,uWM_experiment,2022.2.3,59.97821591
,,,,,,,,,,,,,,,,,,,,5,0,5,0,6,0,6,0,,,,,,,,,,,,,,,,,,,,,,,,,,,,,,,,,,,,,,,,,,,,,,,,,,,,,,,,,,,,,,,,,,,,,,0.1124781,,,,,,,,,,,,,,,,,,,,,,,,,,,,right,1,160,30,190,1,2855.15745,2855.15745,2855.15745,None,None,1,1,1.2977283,,,,,,,,,,,,,,,,,,,,,,10,2,2,2024-10-14_21h00.12.626,uWM_experiment,2022.2.3,59.97821591
,,,,,,,,,,,,,,,,,,,,5,0,5,0,7,0,7,0,,,,,,,,,,,,,,,,,,,,,,,,,,,,,,,,,,,,,,,,,,,,,,,,,,,,,,,,,,,,,,,,,,,,,,0.1224781,,,,,,,,,,,,,,,,,,,,,,,,,,,,left,1,130,-30,100,1,2862.874435,2862.874435,2862.874435,None,None,2,0,1.0845377,,,,,,,,,,,,,,,,,,,,,,10,2,2,2024-10-14_21h00.12.626,uWM_experiment,2022.2.3,59.97821591
,,,,,,,,,,,,,,,,,,,,5,0,5,0,8,0,8,0,,,,,,,,,,,,,,,,,,,,,,,,,,,,,,,,,,,,,,,,,,,,,,,,,,,,,,,,,,,,,,,,,,,,,,0,,,,,,,,,,,,,,,,,,,,,,,,,,,,left,1,130,-30,100,0,2871.374788,2871.374788,2871.374788,None,None,1,1,1.1283063,,,,,,,,,,,,,,,,,,,,,,10,2,2,2024-10-14_21h00.12.626,uWM_experiment,2022.2.3,59.97821591
,,,,,,,,,,,,,,,,,,,,5,0,5,0,9,0,9,0,,,,,,,,,,,,,,,,,,,,,,,,,,,,,,,,,,,,,,,,,,,,,,,,,,,,,,,,,,,,,,,,,,,,,,0.1124781,,,,,,,,,,,,,,,,,,,,,,,,,,,,left,1,100,-30,70,1,2878.741778,2878.741778,2878.741778,None,None,2,0,1.0494197,,,,,,,,,,,,,,,,,,,,,,10,2,2,2024-10-14_21h00.12.626,uWM_experiment,2022.2.3,59.97821591
,,,,,,,,,,,,,,,,,,,,5,0,5,0,10,0,10,0,,,,,,,,,,,,,,,,,,,,,,,,,,,,,,,,,,,,,,,,,,,,,,,,,,,,,,,,,,,,,,,,,,,,,,0.1024781,,,,,,,,,,,,,,,,,,,,,,,,,,,,right,1,160,30,190,1,2885.658744,2885.658744,2885.658744,None,None,3,0,1.4444509,,,,,,,,,,,,,,,,,,,,,,10,2,2,2024-10-14_21h00.12.626,uWM_experiment,2022.2.3,59.97821591
,,,,,,,,,,,,,,,,,,,,5,0,5,0,11,0,11,0,,,,,,,,,,,,,,,,,,,,,,,,,,,,,,,,,,,,,,,,,,,,,,,,,,,,,,,,,,,,,,,,,,,,,,0.0924781,,,,,,,,,,,,,,,,,,,,,,,,,,,,left,1,160,-30,130,1,2893.142433,2893.142433,2893.142433,None,None,2,0,1.4967683,,,,,,,,,,,,,,,,,,,,,,10,2,2,2024-10-14_21h00.12.626,uWM_experiment,2022.2.3,59.97821591
,,,,,,,,,,,,,,,,,,,,5,0,5,0,12,0,12,0,,,,,,,,,,,,,,,,,,,,,,,,,,,,,,,,,,,,,,,,,,,,,,,,,,,,,,,,,,,,,,,,,,,,,,0.0824781,,,,,,,,,,,,,,,,,,,,,,,,,,,,right,1,40,30,70,1,2904.809586,2904.809586,2904.809586,None,None,2,0,0.5814949,,,,,,,,,,,,,,,,,,,,,,10,2,2,2024-10-14_21h00.12.626,uWM_experiment,2022.2.3,59.97821591
,,,,,,,,,,,,,,,,,,,,5,0,5,0,13,0,13,0,,,,,,,,,,,,,,,,,,,,,,,,,,,,,,,,,,,,,,,,,,,,,,,,,,,,,,,,,,,,,,,,,,,,,,0.0724781,,,,,,,,,,,,,,,,,,,,,,,,,,,,left,1,10,-30,-20,1,2912.526579,2912.526579,2912.526579,None,None,1,1,0.936371,,,,,,,,,,,,,,,,,,,,,,10,2,2,2024-10-14_21h00.12.626,uWM_experiment,2022.2.3,59.97821591
,,,,,,,,,,,,,,,,,,,,5,0,5,0,14,0,14,0,,,,,,,,,,,,,,,,,,,,,,,,,,,,,,,,,,,,,,,,,,,,,,,,,,,,,,,,,,,,,,,,,,,,,,0,,,,,,,,,,,,,,,,,,,,,,,,,,,,right,0,100,-30,70,0,2923.327093,2923.327093,2923.327093,None,None,1,1,1.2159435,,,,,,,,,,,,,,,,,,,,,,10,2,2,2024-10-14_21h00.12.626,uWM_experiment,2022.2.3,59.97821591
,,,,,,,,,,,,,,,,,,,,5,0,5,0,15,0,15,0,,,,,,,,,,,,,,,,,,,,,,,,,,,,,,,,,,,,,,,,,,,,,,,,,,,,,,,,,,,,,,,,,,,,,,0,,,,,,,,,,,,,,,,,,,,,,,,,,,,left,0,40,30,70,0,2933.760863,2933.760863,2933.760863,None,None,1,1,1.1261999,,,,,,,,,,,,,,,,,,,,,,10,2,2,2024-10-14_21h00.12.626,uWM_experiment,2022.2.3,59.97821591
,,,,,,,,,,,,,,,,,,,,5,0,5,0,16,0,16,0,,,,,,,,,,,,,,,,,,,,,,,,,,,,,,,,,,,,,,,,,,,,,,,,,,,,,,,,,,,,,,,,,,,,,,0.0824781,,,,,,,,,,,,,,,,,,,,,,,,,,,,left,0,70,30,100,1,2942.194572,2942.194572,2942.194572,None,None,1,1,0.7564423,,,,,,,,,,,,,,,,,,,,,,10,2,2,2024-10-14_21h00.12.626,uWM_experiment,2022.2.3,59.97821591
,,,,,,,,,,,,,,,,,,,,5,0,5,0,17,0,17,0,,,,,,,,,,,,,,,,,,,,,,,,,,,,,,,,,,,,,,,,,,,,,,,,,,,,,,,,,,,,,,,,,,,,,,0.0924781,,,,,,,,,,,,,,,,,,,,,,,,,,,,right,0,130,-30,100,1,2950.06157,2950.06157,2950.06157,None,None,1,1,7.4256644,,,,,,,,,,,,,,,,,,,,,,10,2,2,2024-10-14_21h00.12.626,uWM_experiment,2022.2.3,59.97821591
,,,,,,,,,,,,,,,,,,,,5,0,5,0,18,0,18,0,,,,,,,,,,,,,,,,,,,,,,,,,,,,,,,,,,,,,,,,,,,,,,,,,,,,,,,,,,,,,,,,,,,,,,0.1024781,,,,,,,,,,,,,,,,,,,,,,,,,,,,left,1,100,-30,70,1,2967.012331,2967.012331,2967.012331,None,None,2,0,3.002647,,,,,,,,,,,,,,,,,,,,,,10,2,2,2024-10-14_21h00.12.626,uWM_experiment,2022.2.3,59.97821591
,,,,,,,,,,,,,,,,,,,,5,0,5,0,19,0,19,0,,,,,,,,,,,,,,,,,,,,,,,,,,,,,,,,,,,,,,,,,,,,,,,,,,,,,,,,,,,,,,,,,,,,,,0.1,,,,,,,,,,,,,,,,,,,,,,,,,,,,right,1,160,30,190,2,2977.029413,2977.029413,2977.029413,None,None,4,0,0.6737547,,,,,,,,,,,,,,,,,,,,,,10,2,2,2024-10-14_21h00.12.626,uWM_experiment,2022.2.3,59.97821591
,,,,,,,,,,,,,,,,,,,,5,0,5,0,20,0,20,0,,,,,,,,,,,,,,,,,,,,,,,,,,,,,,,,,,,,,,,,,,,,,,,,,,,,,,,,,,,,,,,,,,,,,,0.0924781,,,,,,,,,,,,,,,,,,,,,,,,,,,,left,0,130,30,160,1,2985.596484,2985.596484,2985.596484,None,None,1,1,0.8906026,,,,,,,,,,,,,,,,,,,,,,10,2,2,2024-10-14_21h00.12.626,uWM_experiment,2022.2.3,59.97821591
,,,,,,,,,,,,,,,,,,,,5,0,5,0,21,0,21,0,,,,,,,,,,,,,,,,,,,,,,,,,,,,,,,,,,,,,,,,,,,,,,,,,,,,,,,,,,,,,,,,,,,,,,0.1024781,,,,,,,,,,,,,,,,,,,,,,,,,,,,left,0,70,30,100,1,2993.196795,2993.196795,2993.196795,None,None,1,1,1.4341853,,,,,,,,,,,,,,,,,,,,,,10,2,2,2024-10-14_21h00.12.626,uWM_experiment,2022.2.3,59.97821591
,,,,,,,,,,,,,,,,,,,,5,0,5,0,22,0,22,0,,,,,,,,,,,,,,,,,,,,,,,,,,,,,,,,,,,,,,,,,,,,,,,,,,,,,,,,,,,,,,,,,,,,,,0,,,,,,,,,,,,,,,,,,,,,,,,,,,,left,0,130,30,160,0,3001.380507,3001.380507,3001.380507,None,None,1,1,0.9544822,,,,,,,,,,,,,,,,,,,,,,10,2,2,2024-10-14_21h00.12.626,uWM_experiment,2022.2.3,59.97821591
,,,,,,,,,,,,,,,,,,,,5,0,5,0,23,0,23,0,,,,,,,,,,,,,,,,,,,,,,,,,,,,,,,,,,,,,,,,,,,,,,,,,,,,,,,,,,,,,,,,,,,,,,0,,,,,,,,,,,,,,,,,,,,,,,,,,,,left,0,100,30,130,0,3013.197691,3013.197691,3013.197691,None,None,1,1,0.3294499,,,,,,,,,,,,,,,,,,,,,,10,2,2,2024-10-14_21h00.12.626,uWM_experiment,2022.2.3,59.97821591
,,,,,,,,,,,,,,,,,,,,5,0,5,0,,,,,0,0,0,0,,,,,,,,,,,,,,,,,,,,,,,,,,,,,,,,,,,,,,,,,,,,,,,,,,,,,,,,,,,,,,,,,,,,,,,,,,,,,,,,,,,,,,,,,,,,,,,,,,,,,,,,,,,,3013.547709,3013.547709,space,109.4994131,space,None,,3123.069157,3123.069157,14.1859488,,,,,,,,,,,,10,2,2,2024-10-14_21h00.12.626,uWM_experiment,2022.2.3,59.97821591
,,,,,,,,,,,,,,,,,,,,5,0,5,0,,,,,1,0,1,0,,,,,,,,,,,,,,,,,,,,,,,,,,,,,,,,,,,,,,,,,,,,,,,,,,,,,,,,,,,,,,,,,,,,,,,,,,,,,,,,,,,,,,,,,,,,,,,,,,,,,,,,,,,,,,,,,,,,,,,,,,,,,,,,,10,2,2,2024-10-14_21h00.12.626,uWM_experiment,2022.2.3,59.97821591
,,,,,,,,,,,,,,,,,,,,5,0,5,0,,,,,2,0,2,0,,,,,,,,,,,,,,,,,,,,,,,,,,,,,,,,,,,,,,,,,,,,,,,,,,,,,,,,,,,,,,,,,,,,,,,,,,,,,,,,,,,,,,,,,,,,,,,,,,,,,,,,,,,,,,,,,,,,,,,,,,,,,,,,,10,2,2,2024-10-14_21h00.12.626,uWM_experiment,2022.2.3,59.97821591
,,,,,,,,,,,,,,,,,,,,6,0,6,0,0,0,0,0,,,,,,,,,,,,,,,,,,,,,,,,,,,,,,,,,,,,,,,,,,,,,,,,,,,,,,,,,,,,,,,,,,,,,,0.1124781,,,,,,,,,,,,,,,,,,,,3137.286445,3137.986473,3138.286487,3138.986513,3139.286545,3139.986556,3139.986556,3140.303257,left,0,40,30,70,1,3146.620192,3146.620192,3146.620192,None,None,3,0,2.7868063,,,,,,,None,,,,,,,,,,,,,,,10,2,2,2024-10-14_21h00.12.626,uWM_experiment,2022.2.3,59.97821591
,,,,,,,,,,,,,,,,,,,,6,0,6,0,1,0,1,0,,,,,,,,,,,,,,,,,,,,,,,,,,,,,,,,,,,,,,,,,,,,,,,,,,,,,,,,,,,,,,,,,,,,,,0.1024781,,,,,,,,,,,,,,,,,,,,,,,,,,,,left,1,10,-30,-20,1,3155.003891,3155.003891,3155.003891,None,None,2,0,1.2993372,,,,,,,,,,,,,,,,,,,,,,10,2,2,2024-10-14_21h00.12.626,uWM_experiment,2022.2.3,59.97821591
,,,,,,,,,,,,,,,,,,,,6,0,6,0,2,0,2,0,,,,,,,,,,,,,,,,,,,,,,,,,,,,,,,,,,,,,,,,,,,,,,,,,,,,,,,,,,,,,,,,,,,,,,0.1,,,,,,,,,,,,,,,,,,,,,,,,,,,,left,0,40,30,70,2,3169.871213,3169.871213,3169.871213,None,None,2,0,7.4398812,,,,,,,,,,,,,,,,,,,,,,10,2,2,2024-10-14_21h00.12.626,uWM_experiment,2022.2.3,59.97821591
,,,,,,,,,,,,,,,,,,,,6,0,6,0,3,0,3,0,,,,,,,,,,,,,,,,,,,,,,,,,,,,,,,,,,,,,,,,,,,,,,,,,,,,,,,,,,,,,,,,,,,,,,0.0924781,,,,,,,,,,,,,,,,,,,,,,,,,,,,left,1,10,-30,-20,1,3184.755209,3184.755209,3184.755209,None,None,1,1,2.0919441,,,,,,,,,,,,,,,,,,,,,,10,2,2,2024-10-14_21h00.12.626,uWM_experiment,2022.2.3,59.97821591
,,,,,,,,,,,,,,,,,,,,6,0,6,0,4,0,4,0,,,,,,,,,,,,,,,,,,,,,,,,,,,,,,,,,,,,,,,,,,,,,,,,,,,,,,,,,,,,,,,,,,,,,,0,,,,,,,,,,,,,,,,,,,,,,,,,,,,right,1,100,30,130,0,3193.888923,3193.888923,3193.888923,None,None,1,1,1.1021587,,,,,,,,,,,,,,,,,,,,,,10,2,2,2024-10-14_21h00.12.626,uWM_experiment,2022.2.3,59.97821591
,,,,,,,,,,,,,,,,,,,,6,0,6,0,5,0,5,0,,,,,,,,,,,,,,,,,,,,,,,,,,,,,,,,,,,,,,,,,,,,,,,,,,,,,,,,,,,,,,,,,,,,,,0.1024781,,,,,,,,,,,,,,,,,,,,,,,,,,,,left,0,100,30,130,1,3208.772942,3208.772942,3208.772942,None,None,1,1,0.7782583,,,,,,,,,,,,,,,,,,,,,,10,2,2,2024-10-14_21h00.12.626,uWM_experiment,2022.2.3,59.97821591
,,,,,,,,,,,,,,,,,,,,6,0,6,0,6,0,6,0,,,,,,,,,,,,,,,,,,,,,,,,,,,,,,,,,,,,,,,,,,,,,,,,,,,,,,,,,,,,,,,,,,,,,,0.1124781,,,,,,,,,,,,,,,,,,,,,,,,,,,,right,1,160,30,190,1,3218.456665,3218.456665,3218.456665,None,None,1,1,0.5183797,,,,,,,,,,,,,,,,,,,,,,10,2,2,2024-10-14_21h00.12.626,uWM_experiment,2022.2.3,59.97821591
,,,,,,,,,,,,,,,,,,,,6,0,6,0,7,0,7,0,,,,,,,,,,,,,,,,,,,,,,,,,,,,,,,,,,,,,,,,,,,,,,,,,,,,,,,,,,,,,,,,,,,,,,0.1224781,,,,,,,,,,,,,,,,,,,,,,,,,,,,left,1,160,-30,130,1,3226.223709,3226.223709,3226.223709,None,None,1,1,0.647406,,,,,,,,,,,,,,,,,,,,,,10,2,2,2024-10-14_21h00.12.626,uWM_experiment,2022.2.3,59.97821591
,,,,,,,,,,,,,,,,,,,,6,0,6,0,8,0,8,0,,,,,,,,,,,,,,,,,,,,,,,,,,,,,,,,,,,,,,,,,,,,,,,,,,,,,,,,,,,,,,,,,,,,,,0.1324781,,,,,,,,,,,,,,,,,,,,,,,,,,,,right,1,10,30,40,1,3233.290684,3233.290684,3233.290684,None,None,2,0,0.6524106,,,,,,,,,,,,,,,,,,,,,,10,2,2,2024-10-14_21h00.12.626,uWM_experiment,2022.2.3,59.97821591
,,,,,,,,,,,,,,,,,,,,6,0,6,0,9,0,9,0,,,,,,,,,,,,,,,,,,,,,,,,,,,,,,,,,,,,,,,,,,,,,,,,,,,,,,,,,,,,,,,,,,,,,,0,,,,,,,,,,,,,,,,,,,,,,,,,,,,left,1,160,-30,130,0,3240.457629,3240.457629,3240.457629,None,None,1,1,1.0936266,,,,,,,,,,,,,,,,,,,,,,10,2,2,2024-10-14_21h00.12.626,uWM_experiment,2022.2.3,59.97821591
,,,,,,,,,,,,,,,,,,,,6,0,6,0,10,0,10,0,,,,,,,,,,,,,,,,,,,,,,,,,,,,,,,,,,,,,,,,,,,,,,,,,,,,,,,,,,,,,,,,,,,,,,0,,,,,,,,,,,,,,,,,,,,,,,,,,,,right,1,10,30,40,0,3247.907974,3247.907974,3247.907974,None,None,1,1,0.7311548,,,,,,,,,,,,,,,,,,,,,,10,2,2,2024-10-14_21h00.12.626,uWM_experiment,2022.2.3,59.97821591
,,,,,,,,,,,,,,,,,,,,6,0,6,0,11,0,11,0,,,,,,,,,,,,,,,,,,,,,,,,,,,,,,,,,,,,,,,,,,,,,,,,,,,,,,,,,,,,,,,,,,,,,,0.1224781,,,,,,,,,,,,,,,,,,,,,,,,,,,,left,1,100,-30,70,1,3257.358384,3257.358384,3257.358384,None,None,1,1,1.3607427,,,,,,,,,,,,,,,,,,,,,,10,2,2,2024-10-14_21h00.12.626,uWM_experiment,2022.2.3,59.97821591
,,,,,,,,,,,,,,,,,,,,6,0,6,0,12,0,12,0,,,,,,,,,,,,,,,,,,,,,,,,,,,,,,,,,,,,,,,,,,,,,,,,,,,,,,,,,,,,,,,,,,,,,,0.1324781,,,,,,,,,,,,,,,,,,,,,,,,,,,,left,0,160,30,190,1,3267.375479,3267.375479,3267.375479,None,None,1,1,0.6956221,,,,,,,,,,,,,,,,,,,,,,10,2,2,2024-10-14_21h00.12.626,uWM_experiment,2022.2.3,59.97821591
,,,,,,,,,,,,,,,,,,,,6,0,6,0,13,0,13,0,,,,,,,,,,,,,,,,,,,,,,,,,,,,,,,,,,,,,,,,,,,,,,,,,,,,,,,,,,,,,,,,,,,,,,0.1424781,,,,,,,,,,,,,,,,,,,,,,,,,,,,right,1,130,30,160,1,3273.759113,3273.759113,3273.759113,None,None,2,0,1.903906,,,,,,,,,,,,,,,,,,,,,,10,2,2,2024-10-14_21h00.12.626,uWM_experiment,2022.2.3,59.97821591
,,,,,,,,,,,,,,,,,,,,6,0,6,0,14,0,14,0,,,,,,,,,,,,,,,,,,,,,,,,,,,,,,,,,,,,,,,,,,,,,,,,,,,,,,,,,,,,,,,,,,,,,,0,,,,,,,,,,,,,,,,,,,,,,,,,,,,left,0,100,30,130,0,3284.276252,3284.276252,3284.276252,None,None,1,1,1.2270194,,,,,,,,,,,,,,,,,,,,,,10,2,2,2024-10-14_21h00.12.626,uWM_experiment,2022.2.3,59.97821591
,,,,,,,,,,,,,,,,,,,,6,0,6,0,15,0,15,0,,,,,,,,,,,,,,,,,,,,,,,,,,,,,,,,,,,,,,,,,,,,,,,,,,,,,,,,,,,,,,,,,,,,,,0,,,,,,,,,,,,,,,,,,,,,,,,,,,,right,0,100,-30,70,0,3293.076658,3293.076658,3293.076658,None,None,1,1,0.7064153,,,,,,,,,,,,,,,,,,,,,,10,2,2,2024-10-14_21h00.12.626,uWM_experiment,2022.2.3,59.97821591
,,,,,,,,,,,,,,,,,,,,6,0,6,0,16,0,16,0,,,,,,,,,,,,,,,,,,,,,,,,,,,,,,,,,,,,,,,,,,,,,,,,,,,,,,,,,,,,,,,,,,,,,,0.1324781,,,,,,,,,,,,,,,,,,,,,,,,,,,,left,1,160,-30,130,1,3300.610286,3300.610286,3300.610286,None,None,2,0,2.5409661,,,,,,,,,,,,,,,,,,,,,,10,2,2,2024-10-14_21h00.12.626,uWM_experiment,2022.2.3,59.97821591
,,,,,,,,,,,,,,,,,,,,6,0,6,0,17,0,17,0,,,,,,,,,,,,,,,,,,,,,,,,,,,,,,,,,,,,,,,,,,,,,,,,,,,,,,,,,,,,,,,,,,,,,,0.1224781,,,,,,,,,,,,,,,,,,,,,,,,,,,,left,1,130,-30,100,1,3309.543996,3309.543996,3309.543996,None,None,1,1,0.6951432,,,,,,,,,,,,,,,,,,,,,,10,2,2,2024-10-14_21h00.12.626,uWM_experiment,2022.2.3,59.97821591
,,,,,,,,,,,,,,,,,,,,6,0,6,0,18,0,18,0,,,,,,,,,,,,,,,,,,,,,,,,,,,,,,,,,,,,,,,,,,,,,,,,,,,,,,,,,,,,,,,,,,,,,,0,,,,,,,,,,,,,,,,,,,,,,,,,,,,right,0,100,-30,70,0,3317.994356,3317.994356,3317.994356,None,None,1,1,0.4206837,,,,,,,,,,,,,,,,,,,,,,10,2,2,2024-10-14_21h00.12.626,uWM_experiment,2022.2.3,59.97821591
,,,,,,,,,,,,,,,,,,,,6,0,6,0,19,0,19,0,,,,,,,,,,,,,,,,,,,,,,,,,,,,,,,,,,,,,,,,,,,,,,,,,,,,,,,,,,,,,,,,,,,,,,0,,,,,,,,,,,,,,,,,,,,,,,,,,,,left,1,160,-30,130,0,3325.994728,3325.994728,3325.994728,None,None,1,1,0.3643558,,,,,,,,,,,,,,,,,,,,,,10,2,2,2024-10-14_21h00.12.626,uWM_experiment,2022.2.3,59.97821591
,,,,,,,,,,,,,,,,,,,,6,0,6,0,20,0,20,0,,,,,,,,,,,,,,,,,,,,,,,,,,,,,,,,,,,,,,,,,,,,,,,,,,,,,,,,,,,,,,,,,,,,,,0.1,,,,,,,,,,,,,,,,,,,,,,,,,,,,left,1,40,-30,10,2,3332.528332,3332.528332,3332.528332,None,None,4,0,0.4789157,,,,,,,,,,,,,,,,,,,,,,10,2,2,2024-10-14_21h00.12.626,uWM_experiment,2022.2.3,59.97821591
,,,,,,,,,,,,,,,,,,,,6,0,6,0,21,0,21,0,,,,,,,,,,,,,,,,,,,,,,,,,,,,,,,,,,,,,,,,,,,,,,,,,,,,,,,,,,,,,,,,,,,,,,0.1324781,,,,,,,,,,,,,,,,,,,,,,,,,,,,right,1,160,30,190,1,3339.461999,3339.461999,3339.461999,None,None,4,0,1.049138,,,,,,,,,,,,,,,,,,,,,,10,2,2,2024-10-14_21h00.12.626,uWM_experiment,2022.2.3,59.97821591
,,,,,,,,,,,,,,,,,,,,6,0,6,0,22,0,22,0,,,,,,,,,,,,,,,,,,,,,,,,,,,,,,,,,,,,,,,,,,,,,,,,,,,,,,,,,,,,,,,,,,,,,,0,,,,,,,,,,,,,,,,,,,,,,,,,,,,right,1,70,30,100,0,3347.195656,3347.195656,3347.195656,None,None,1,1,0.451409,,,,,,,,,,,,,,,,,,,,,,10,2,2,2024-10-14_21h00.12.626,uWM_experiment,2022.2.3,59.97821591
,,,,,,,,,,,,,,,,,,,,6,0,6,0,23,0,23,0,,,,,,,,,,,,,,,,,,,,,,,,,,,,,,,,,,,,,,,,,,,,,,,,,,,,,,,,,,,,,,,,,,,,,,0,,,,,,,,,,,,,,,,,,,,,,,,,,,,right,0,100,-30,70,0,3356.379404,3356.379404,3356.379404,None,None,1,1,2.7798604,,,,,,,,,,,,,,,,,,,,,,10,2,2,2024-10-14_21h00.12.626,uWM_experiment,2022.2.3,59.97821591
,,,,,,,,,,,,,,,,,,,,6,0,6,0,,,,,0,0,0,0,,,,,,,,,,,,,,,,,,,,,,,,,,,,,,,,,,,,,,,,,,,,,,,,,,,,,,,,,,,,,,,,,,,,,,,,,,,,,,,,,,,,,,,,,,,,,,,,,,,,,,,,,,,,3359.179488,3359.179488,space,169.5156982,None,space,,,,,3528.720268,3528.720268,24.175086,,,,,,,,,10,2,2,2024-10-14_21h00.12.626,uWM_experiment,2022.2.3,59.97821591
,,,,,,,,,,,,,,,,,,,,6,0,6,0,,,,,1,0,1,0,,,,,,,,,,,,,,,,,,,,,,,,,,,,,,,,,,,,,,,,,,,,,,,,,,,,,,,,,,,,,,,,,,,,,,,,,,,,,,,,,,,,,,,,,,,,,,,,,,,,,,,,,,,,,,,,,,,,,,,,,,,,,,,,,10,2,2,2024-10-14_21h00.12.626,uWM_experiment,2022.2.3,59.97821591
,,,,,,,,,,,,,,,,,,,,6,0,6,0,,,,,2,0,2,0,,,,,,,,,,,,,,,,,,,,,,,,,,,,,,,,,,,,,,,,,,,,,,,,,,,,,,,,,,,,,,,,,,,,,,,,,,,,,,,,,,,,,,,,,,,,,,,,,,,,,,,,,,,,,,,,,,,,,,,,,,,,,,,,,10,2,2,2024-10-14_21h00.12.626,uWM_experiment,2022.2.3,59.97821591
,,,,,,,,,,,,,,,,,,,,7,0,7,0,0,0,0,0,,,,,,,,,,,,,,,,,,,,,,,,,,,,,,,,,,,,,,,,,,,,,,,,,,,,,,,,,,,,,,,,,,,,,,0.1224781,,,,,,,,,,,,,,,,,,,,3568.505357,3569.205373,3569.488737,3570.188776,3570.488794,3571.1888,3571.1888,3571.505498,right,1,10,30,40,1,3577.439101,3577.439101,3577.439101,None,None,1,1,0.376196,,,,,,,space,,,,,,,3561.905068,3561.905068,6.5822216,,,,,,10,2,2,2024-10-14_21h00.12.626,uWM_experiment,2022.2.3,59.97821591
,,,,,,,,,,,,,,,,,,,,7,0,7,0,1,0,1,0,,,,,,,,,,,,,,,,,,,,,,,,,,,,,,,,,,,,,,,,,,,,,,,,,,,,,,,,,,,,,,,,,,,,,,0.1324781,,,,,,,,,,,,,,,,,,,,,,,,,,,,right,1,10,30,40,1,3586.622811,3586.622811,3586.622811,None,None,2,0,0.3523852,,,,,,,,,,,,,,,,,,,,,,10,2,2,2024-10-14_21h00.12.626,uWM_experiment,2022.2.3,59.97821591
,,,,,,,,,,,,,,,,,,,,7,0,7,0,2,0,2,0,,,,,,,,,,,,,,,,,,,,,,,,,,,,,,,,,,,,,,,,,,,,,,,,,,,,,,,,,,,,,,,,,,,,,,0.1224781,,,,,,,,,,,,,,,,,,,,,,,,,,,,right,1,70,30,100,1,3593.139763,3593.139763,3593.139763,None,None,2,0,0.9474224,,,,,,,,,,,,,,,,,,,,,,10,2,2,2024-10-14_21h00.12.626,uWM_experiment,2022.2.3,59.97821591
,,,,,,,,,,,,,,,,,,,,7,0,7,0,3,0,3,0,,,,,,,,,,,,,,,,,,,,,,,,,,,,,,,,,,,,,,,,,,,,,,,,,,,,,,,,,,,,,,,,,,,,,,0,,,,,,,,,,,,,,,,,,,,,,,,,,,,left,0,160,30,190,0,3600.856797,3600.856797,3600.856797,None,None,1,1,0.9265231,,,,,,,,,,,,,,,,,,,,,,10,2,2,2024-10-14_21h00.12.626,uWM_experiment,2022.2.3,59.97821591
,,,,,,,,,,,,,,,,,,,,7,0,7,0,4,0,4,0,,,,,,,,,,,,,,,,,,,,,,,,,,,,,,,,,,,,,,,,,,,,,,,,,,,,,,,,,,,,,,,,,,,,,,0.1124781,,,,,,,,,,,,,,,,,,,,,,,,,,,,left,1,10,-30,-20,1,3609.04048,3609.04048,3609.04048,None,None,1,1,1.1428252,,,,,,,,,,,,,,,,,,,,,,10,2,2,2024-10-14_21h00.12.626,uWM_experiment,2022.2.3,59.97821591
,,,,,,,,,,,,,,,,,,,,7,0,7,0,5,0,5,0,,,,,,,,,,,,,,,,,,,,,,,,,,,,,,,,,,,,,,,,,,,,,,,,,,,,,,,,,,,,,,,,,,,,,,0.1,,,,,,,,,,,,,,,,,,,,,,,,,,,,right,1,160,30,190,2,3616.30745,3616.30745,3616.30745,None,None,4,0,0.4837676,,,,,,,,,,,,,,,,,,,,,,10,2,2,2024-10-14_21h00.12.626,uWM_experiment,2022.2.3,59.97821591
,,,,,,,,,,,,,,,,,,,,7,0,7,0,6,0,6,0,,,,,,,,,,,,,,,,,,,,,,,,,,,,,,,,,,,,,,,,,,,,,,,,,,,,,,,,,,,,,,,,,,,,,,0.1224781,,,,,,,,,,,,,,,,,,,,,,,,,,,,right,0,40,-30,10,1,3624.67452,3624.67452,3624.67452,None,None,2,0,0.9006144,,,,,,,,,,,,,,,,,,,,,,10,2,2,2024-10-14_21h00.12.626,uWM_experiment,2022.2.3,59.97821591
,,,,,,,,,,,,,,,,,,,,7,0,7,0,7,0,7,0,,,,,,,,,,,,,,,,,,,,,,,,,,,,,,,,,,,,,,,,,,,,,,,,,,,,,,,,,,,,,,,,,,,,,,0,,,,,,,,,,,,,,,,,,,,,,,,,,,,left,0,70,30,100,0,3633.808245,3633.808245,3633.808245,None,None,1,1,4.5909135,,,,,,,,,,,,,,,,,,,,,,10,2,2,2024-10-14_21h00.12.626,uWM_experiment,2022.2.3,59.97821591
,,,,,,,,,,,,,,,,,,,,7,0,7,0,8,0,8,0,,,,,,,,,,,,,,,,,,,,,,,,,,,,,,,,,,,,,,,,,,,,,,,,,,,,,,,,,,,,,,,,,,,,,,0,,,,,,,,,,,,,,,,,,,,,,,,,,,,right,1,40,30,70,0,3645.975422,3645.975422,3645.975422,None,None,1,1,0.5117003,,,,,,,,,,,,,,,,,,,,,,10,2,2,2024-10-14_21h00.12.626,uWM_experiment,2022.2.3,59.97821591
,,,,,,,,,,,,,,,,,,,,7,0,7,0,9,0,9,0,,,,,,,,,,,,,,,,,,,,,,,,,,,,,,,,,,,,,,,,,,,,,,,,,,,,,,,,,,,,,,,,,,,,,,0,,,,,,,,,,,,,,,,,,,,,,,,,,,,left,1,10,-30,-20,0,3657.025915,3657.025915,3657.025915,None,None,1,1,0.7092714,,,,,,,,,,,,,,,,,,,,,,10,2,2,2024-10-14_21h00.12.626,uWM_experiment,2022.2.3,59.97821591
,,,,,,,,,,,,,,,,,,,,7,0,7,0,10,0,10,0,,,,,,,,,,,,,,,,,,,,,,,,,,,,,,,,,,,,,,,,,,,,,,,,,,,,,,,,,,,,,,,,,,,,,,0.1124781,,,,,,,,,,,,,,,,,,,,,,,,,,,,right,0,70,-30,40,1,3664.79292,3664.79292,3664.79292,None,None,1,1,0.4701837,,,,,,,,,,,,,,,,,,,,,,10,2,2,2024-10-14_21h00.12.626,uWM_experiment,2022.2.3,59.97821591
,,,,,,,,,,,,,,,,,,,,7,0,7,0,11,0,11,0,,,,,,,,,,,,,,,,,,,,,,,,,,,,,,,,,,,,,,,,,,,,,,,,,,,,,,,,,,,,,,,,,,,,,,0.1224781,,,,,,,,,,,,,,,,,,,,,,,,,,,,right,1,10,30,40,1,3672.559943,3672.559943,3672.559943,None,None,1,1,0.4792556,,,,,,,,,,,,,,,,,,,,,,10,2,2,2024-10-14_21h00.12.626,uWM_experiment,2022.2.3,59.97821591
,,,,,,,,,,,,,,,,,,,,7,0,7,0,12,0,12,0,,,,,,,,,,,,,,,,,,,,,,,,,,,,,,,,,,,,,,,,,,,,,,,,,,,,,,,,,,,,,,,,,,,,,,0.1324781,,,,,,,,,,,,,,,,,,,,,,,,,,,,left,1,160,-30,130,1,3680.926978,3680.926978,3680.926978,None,None,2,0,0.9842347,,,,,,,,,,,,,,,,,,,,,,10,2,2,2024-10-14_21h00.12.626,uWM_experiment,2022.2.3,59.97821591
,,,,,,,,,,,,,,,,,,,,7,0,7,0,13,0,13,0,,,,,,,,,,,,,,,,,,,,,,,,,,,,,,,,,,,,,,,,,,,,,,,,,,,,,,,,,,,,,,,,,,,,,,0,,,,,,,,,,,,,,,,,,,,,,,,,,,,left,0,70,30,100,0,3688.643976,3688.643976,3688.643976,None,None,1,1,1.2911567,,,,,,,,,,,,,,,,,,,,,,10,2,2,2024-10-14_21h00.12.626,uWM_experiment,2022.2.3,59.97821591
,,,,,,,,,,,,,,,,,,,,7,0,7,0,14,0,14,0,,,,,,,,,,,,,,,,,,,,,,,,,,,,,,,,,,,,,,,,,,,,,,,,,,,,,,,,,,,,,,,,,,,,,,0.1224781,,,,,,,,,,,,,,,,,,,,,,,,,,,,right,0,130,-30,100,1,3697.92772,3697.92772,3697.92772,None,None,1,1,1.4234092,,,,,,,,,,,,,,,,,,,,,,10,2,2,2024-10-14_21h00.12.626,uWM_experiment,2022.2.3,59.97821591
,,,,,,,,,,,,,,,,,,,,7,0,7,0,15,0,15,0,,,,,,,,,,,,,,,,,,,,,,,,,,,,,,,,,,,,,,,,,,,,,,,,,,,,,,,,,,,,,,,,,,,,,,0,,,,,,,,,,,,,,,,,,,,,,,,,,,,right,0,70,-30,40,0,3707.378124,3707.378124,3707.378124,None,None,1,1,0.4050459,,,,,,,,,,,,,,,,,,,,,,10,2,2,2024-10-14_21h00.12.626,uWM_experiment,2022.2.3,59.97821591
,,,,,,,,,,,,,,,,,,,,7,0,7,0,16,0,16,0,,,,,,,,,,,,,,,,,,,,,,,,,,,,,,,,,,,,,,,,,,,,,,,,,,,,,,,,,,,,,,,,,,,,,,0.1324781,,,,,,,,,,,,,,,,,,,,,,,,,,,,left,1,130,-30,100,1,3713.778405,3713.778405,3713.778405,None,None,1,1,0.6526883,,,,,,,,,,,,,,,,,,,,,,10,2,2,2024-10-14_21h00.12.626,uWM_experiment,2022.2.3,59.97821591
,,,,,,,,,,,,,,,,,,,,7,0,7,0,17,0,17,0,,,,,,,,,,,,,,,,,,,,,,,,,,,,,,,,,,,,,,,,,,,,,,,,,,,,,,,,,,,,,,,,,,,,,,0.1424781,,,,,,,,,,,,,,,,,,,,,,,,,,,,left,1,130,-30,100,1,3721.145389,3721.145389,3721.145389,None,None,2,0,0.645807,,,,,,,,,,,,,,,,,,,,,,10,2,2,2024-10-14_21h00.12.626,uWM_experiment,2022.2.3,59.97821591
,,,,,,,,,,,,,,,,,,,,7,0,7,0,18,0,18,0,,,,,,,,,,,,,,,,,,,,,,,,,,,,,,,,,,,,,,,,,,,,,,,,,,,,,,,,,,,,,,,,,,,,,,0.1324781,,,,,,,,,,,,,,,,,,,,,,,,,,,,right,1,40,30,70,1,3728.462377,3728.462377,3728.462377,None,None,3,0,0.984812,,,,,,,,,,,,,,,,,,,,,,10,2,2,2024-10-14_21h00.12.626,uWM_experiment,2022.2.3,59.97821591
,,,,,,,,,,,,,,,,,,,,7,0,7,0,19,0,19,0,,,,,,,,,,,,,,,,,,,,,,,,,,,,,,,,,,,,,,,,,,,,,,,,,,,,,,,,,,,,,,,,,,,,,,0,,,,,,,,,,,,,,,,,,,,,,,,,,,,left,1,160,-30,130,0,3735.712713,3735.712713,3735.712713,None,None,1,1,0.9105851,,,,,,,,,,,,,,,,,,,,,,10,2,2,2024-10-14_21h00.12.626,uWM_experiment,2022.2.3,59.97821591
,,,,,,,,,,,,,,,,,,,,7,0,7,0,20,0,20,0,,,,,,,,,,,,,,,,,,,,,,,,,,,,,,,,,,,,,,,,,,,,,,,,,,,,,,,,,,,,,,,,,,,,,,0.1224781,,,,,,,,,,,,,,,,,,,,,,,,,,,,right,1,70,30,100,1,3742.963015,3742.963015,3742.963015,None,None,1,1,0.5162709,,,,,,,,,,,,,,,,,,,,,,10,2,2,2024-10-14_21h00.12.626,uWM_experiment,2022.2.3,59.97821591
,,,,,,,,,,,,,,,,,,,,7,0,7,0,21,0,21,0,,,,,,,,,,,,,,,,,,,,,,,,,,,,,,,,,,,,,,,,,,,,,,,,,,,,,,,,,,,,,,,,,,,,,,0,,,,,,,,,,,,,,,,,,,,,,,,,,,,right,0,70,-30,40,0,3750.363353,3750.363353,3750.363353,None,None,1,1,0.3158049,,,,,,,,,,,,,,,,,,,,,,10,2,2,2024-10-14_21h00.12.626,uWM_experiment,2022.2.3,59.97821591
,,,,,,,,,,,,,,,,,,,,7,0,7,0,22,0,22,0,,,,,,,,,,,,,,,,,,,,,,,,,,,,,,,,,,,,,,,,,,,,,,,,,,,,,,,,,,,,,,,,,,,,,,0.1324781,,,,,,,,,,,,,,,,,,,,,,,,,,,,left,1,70,-30,40,1,3757.04699,3757.04699,3757.04699,None,None,3,0,2.0083479,,,,,,,,,,,,,,,,,,,,,,10,2,2,2024-10-14_21h00.12.626,uWM_experiment,2022.2.3,59.97821591
,,,,,,,,,,,,,,,,,,,,7,0,7,0,23,0,23,0,,,,,,,,,,,,,,,,,,,,,,,,,,,,,,,,,,,,,,,,,,,,,,,,,,,,,,,,,,,,,,,,,,,,,,0.1224781,,,,,,,,,,,,,,,,,,,,,,,,,,,,right,1,160,30,190,1,3764.697303,3764.697303,3764.697303,None,None,4,0,1.06201,,,,,,,,,,,,,,,,,,,,,,10,2,2,2024-10-14_21h00.12.626,uWM_experiment,2022.2.3,59.97821591
,,,,,,,,,,,,,,,,,,,,7,0,7,0,,,,,0,0,0,0,,,,,,,,,,,,,,,,,,,,,,,,,,,,,,,,,,,,,,,,,,,,,,,,,,,,,,,,,,,,,,,,,,,,,,,,,,,,,,,,,,,,,,,,,,,,,,,,,,,,,,,,,,,,3765.780658,3765.780658,space,86.2906822,None,None,,,,,,,,,,,,,,,,10,2,2,2024-10-14_21h00.12.626,uWM_experiment,2022.2.3,59.97821591
,,,,,,,,,,,,,,,,,,,,7,0,7,0,,,,,1,0,1,0,,,,,,,,,,,,,,,,,,,,,,,,,,,,,,,,,,,,,,,,,,,,,,,,,,,,,,,,,,,,,,,,,,,,,,,,,,,,,,,,,,,,,,,,,,,,,,,,,,,,,,,,,,,,,,,,,,,,,,,,,,,,,,,,,10,2,2,2024-10-14_21h00.12.626,uWM_experiment,2022.2.3,59.97821591
,,,,,,,,,,,,,,,,,,,,7,0,7,0,,,,,2,0,2,0,,,,,,,,,,,,,,,,,,,,,,,,,,,,,,,,,,,,,,,,,,,,,,,,,,,,,,,,,,,,,,,,,,,,,,,,,,,,,,,,,,,,,,,,,,,,,,,,,,,,,,,,,,,,,,,,,,,,,,,,,,,,,,,,,10,2,2,2024-10-14_21h00.12.626,uWM_experiment,2022.2.3,59.97821591
,,,,,,,,,,,,,,,,,,,,8,0,8,0,0,0,0,0,,,,,,,,,,,,,,,,,,,,,,,,,,,,,,,,,,,,,,,,,,,,,,,,,,,,,,,,,,,,,,,,,,,,,,0.1124781,,,,,,,,,,,,,,,,,,,,3852.101179,3852.801155,3853.101166,3853.8012,3854.101215,3854.80123,3854.80123,3855.117943,left,0,130,30,160,1,3861.084859,3861.084859,3861.084859,None,None,1,1,1.5222822,,,,,,,None,,,,,,,,,,,,,,,10,2,2,2024-10-14_21h00.12.626,uWM_experiment,2022.2.3,59.97821591
,,,,,,,,,,,,,,,,,,,,8,0,8,0,1,0,1,0,,,,,,,,,,,,,,,,,,,,,,,,,,,,,,,,,,,,,,,,,,,,,,,,,,,,,,,,,,,,,,,,,,,,,,0.1224781,,,,,,,,,,,,,,,,,,,,,,,,,,,,left,1,10,-30,-20,1,3868.301832,3868.301832,3868.301832,None,None,3,0,1.2573784,,,,,,,,,,,,,,,,,,,,,,10,2,2,2024-10-14_21h00.12.626,uWM_experiment,2022.2.3,59.97821591
,,,,,,,,,,,,,,,,,,,,8,0,8,0,2,0,2,0,,,,,,,,,,,,,,,,,,,,,,,,,,,,,,,,,,,,,,,,,,,,,,,,,,,,,,,,,,,,,,,,,,,,,,0.1,,,,,,,,,,,,,,,,,,,,,,,,,,,,left,0,40,30,70,2,3879.952347,3879.952347,3879.952347,None,None,4,0,0.8949349,,,,,,,,,,,,,,,,,,,,,,10,2,2,2024-10-14_21h00.12.626,uWM_experiment,2022.2.3,59.97821591
,,,,,,,,,,,,,,,,,,,,8,0,8,0,3,0,3,0,,,,,,,,,,,,,,,,,,,,,,,,,,,,,,,,,,,,,,,,,,,,,,,,,,,,,,,,,,,,,,,,,,,,,,0,,,,,,,,,,,,,,,,,,,,,,,,,,,,left,0,70,30,100,0,3888.369402,3888.369402,3888.369402,None,None,1,1,0.6537252,,,,,,,,,,,,,,,,,,,,,,10,2,2,2024-10-14_21h00.12.626,uWM_experiment,2022.2.3,59.97821591
,,,,,,,,,,,,,,,,,,,,8,0,8,0,4,0,4,0,,,,,,,,,,,,,,,,,,,,,,,,,,,,,,,,,,,,,,,,,,,,,,,,,,,,,,,,,,,,,,,,,,,,,,0.1124781,,,,,,,,,,,,,,,,,,,,,,,,,,,,left,0,100,30,130,1,3895.869721,3895.869721,3895.869721,None,None,1,1,0.8338859,,,,,,,,,,,,,,,,,,,,,,10,2,2,2024-10-14_21h00.12.626,uWM_experiment,2022.2.3,59.97821591
,,,,,,,,,,,,,,,,,,,,8,0,8,0,5,0,5,0,,,,,,,,,,,,,,,,,,,,,,,,,,,,,,,,,,,,,,,,,,,,,,,,,,,,,,,,,,,,,,,,,,,,,,0,,,,,,,,,,,,,,,,,,,,,,,,,,,,right,1,40,30,70,0,3902.953376,3902.953376,3902.953376,None,None,1,1,0.4058355,,,,,,,,,,,,,,,,,,,,,,10,2,2,2024-10-14_21h00.12.626,uWM_experiment,2022.2.3,59.97821591
,,,,,,,,,,,,,,,,,,,,8,0,8,0,6,0,6,0,,,,,,,,,,,,,,,,,,,,,,,,,,,,,,,,,,,,,,,,,,,,,,,,,,,,,,,,,,,,,,,,,,,,,,0.1224781,,,,,,,,,,,,,,,,,,,,,,,,,,,,left,0,100,30,130,1,3909.036955,3909.036955,3909.036955,None,None,1,1,0.5381871,,,,,,,,,,,,,,,,,,,,,,10,2,2,2024-10-14_21h00.12.626,uWM_experiment,2022.2.3,59.97821591
,,,,,,,,,,,,,,,,,,,,8,0,8,0,7,0,7,0,,,,,,,,,,,,,,,,,,,,,,,,,,,,,,,,,,,,,,,,,,,,,,,,,,,,,,,,,,,,,,,,,,,,,,0.1324781,,,,,,,,,,,,,,,,,,,,,,,,,,,,right,1,160,30,190,1,3917.020658,3917.020658,3917.020658,None,None,2,0,1.0905074,,,,,,,,,,,,,,,,,,,,,,10,2,2,2024-10-14_21h00.12.626,uWM_experiment,2022.2.3,59.97821591
,,,,,,,,,,,,,,,,,,,,8,0,8,0,8,0,8,0,,,,,,,,,,,,,,,,,,,,,,,,,,,,,,,,,,,,,,,,,,,,,,,,,,,,,,,,,,,,,,,,,,,,,,0,,,,,,,,,,,,,,,,,,,,,,,,,,,,right,0,40,-30,10,0,3924.670985,3924.670985,3924.670985,None,None,1,1,0.7360931,,,,,,,,,,,,,,,,,,,,,,10,2,2,2024-10-14_21h00.12.626,uWM_experiment,2022.2.3,59.97821591
,,,,,,,,,,,,,,,,,,,,8,0,8,0,9,0,9,0,,,,,,,,,,,,,,,,,,,,,,,,,,,,,,,,,,,,,,,,,,,,,,,,,,,,,,,,,,,,,,,,,,,,,,0.1224781,,,,,,,,,,,,,,,,,,,,,,,,,,,,right,0,70,-30,40,1,3932.804659,3932.804659,3932.804659,None,None,1,1,0.5864474,,,,,,,,,,,,,,,,,,,,,,10,2,2,2024-10-14_21h00.12.626,uWM_experiment,2022.2.3,59.97821591
,,,,,,,,,,,,,,,,,,,,8,0,8,0,10,0,10,0,,,,,,,,,,,,,,,,,,,,,,,,,,,,,,,,,,,,,,,,,,,,,,,,,,,,,,,,,,,,,,,,,,,,,,0.1324781,,,,,,,,,,,,,,,,,,,,,,,,,,,,left,1,10,-30,-20,1,3939.988318,3939.988318,3939.988318,None,None,2,0,1.9470173,,,,,,,,,,,,,,,,,,,,,,10,2,2,2024-10-14_21h00.12.626,uWM_experiment,2022.2.3,59.97821591
,,,,,,,,,,,,,,,,,,,,8,0,8,0,11,0,11,0,,,,,,,,,,,,,,,,,,,,,,,,,,,,,,,,,,,,,,,,,,,,,,,,,,,,,,,,,,,,,,,,,,,,,,0.1224781,,,,,,,,,,,,,,,,,,,,,,,,,,,,right,0,40,-30,10,1,3950.922105,3950.922105,3950.922105,None,None,1,1,0.8452068,,,,,,,,,,,,,,,,,,,,,,10,2,2,2024-10-14_21h00.12.626,uWM_experiment,2022.2.3,59.97821591
,,,,,,,,,,,,,,,,,,,,8,0,8,0,12,0,12,0,,,,,,,,,,,,,,,,,,,,,,,,,,,,,,,,,,,,,,,,,,,,,,,,,,,,,,,,,,,,,,,,,,,,,,0.1324781,,,,,,,,,,,,,,,,,,,,,,,,,,,,left,1,160,-30,130,1,3959.239216,3959.239216,3959.239216,None,None,2,0,2.5441101,,,,,,,,,,,,,,,,,,,,,,10,2,2,2024-10-14_21h00.12.626,uWM_experiment,2022.2.3,59.97821591
,,,,,,,,,,,,,,,,,,,,8,0,8,0,13,0,13,0,,,,,,,,,,,,,,,,,,,,,,,,,,,,,,,,,,,,,,,,,,,,,,,,,,,,,,,,,,,,,,,,,,,,,,0,,,,,,,,,,,,,,,,,,,,,,,,,,,,right,1,40,30,70,0,3968.439585,3968.439585,3968.439585,None,None,1,1,0.3276289,,,,,,,,,,,,,,,,,,,,,,10,2,2,2024-10-14_21h00.12.626,uWM_experiment,2022.2.3,59.97821591
,,,,,,,,,,,,,,,,,,,,8,0,8,0,14,0,14,0,,,,,,,,,,,,,,,,,,,,,,,,,,,,,,,,,,,,,,,,,,,,,,,,,,,,,,,,,,,,,,,,,,,,,,0,,,,,,,,,,,,,,,,,,,,,,,,,,,,right,0,70,-30,40,0,3980.006735,3980.006735,3980.006735,None,None,1,1,0.5044551,,,,,,,,,,,,,,,,,,,,,,10,2,2,2024-10-14_21h00.12.626,uWM_experiment,2022.2.3,59.97821591
,,,,,,,,,,,,,,,,,,,,8,0,8,0,15,0,15,0,,,,,,,,,,,,,,,,,,,,,,,,,,,,,,,,,,,,,,,,,,,,,,,,,,,,,,,,,,,,,,,,,,,,,,0.1224781,,,,,,,,,,,,,,,,,,,,,,,,,,,,left,1,10,-30,-20,1,3986.073662,3986.073662,3986.073662,None,None,4,0,1.5735653,,,,,,,,,,,,,,,,,,,,,,10,2,2,2024-10-14_21h00.12.626,uWM_experiment,2022.2.3,59.97821591
,,,,,,,,,,,,,,,,,,,,8,0,8,0,16,0,16,0,,,,,,,,,,,,,,,,,,,,,,,,,,,,,,,,,,,,,,,,,,,,,,,,,,,,,,,,,,,,,,,,,,,,,,0.1124781,,,,,,,,,,,,,,,,,,,,,,,,,,,,right,1,130,30,160,1,3994.657396,3994.657396,3994.657396,None,None,1,1,0.4377669,,,,,,,,,,,,,,,,,,,,,,10,2,2,2024-10-14_21h00.12.626,uWM_experiment,2022.2.3,59.97821591
,,,,,,,,,,,,,,,,,,,,8,0,8,0,17,0,17,0,,,,,,,,,,,,,,,,,,,,,,,,,,,,,,,,,,,,,,,,,,,,,,,,,,,,,,,,,,,,,,,,,,,,,,0.1224781,,,,,,,,,,,,,,,,,,,,,,,,,,,,left,1,10,-30,-20,1,4002.3244,4002.3244,4002.3244,None,None,2,0,0.4908041,,,,,,,,,,,,,,,,,,,,,,10,2,2,2024-10-14_21h00.12.626,uWM_experiment,2022.2.3,59.97821591
,,,,,,,,,,,,,,,,,,,,8,0,8,0,18,0,18,0,,,,,,,,,,,,,,,,,,,,,,,,,,,,,,,,,,,,,,,,,,,,,,,,,,,,,,,,,,,,,,,,,,,,,,0.1124781,,,,,,,,,,,,,,,,,,,,,,,,,,,,right,0,70,-30,40,1,4010.724752,4010.724752,4010.724752,None,None,2,0,0.9864006,,,,,,,,,,,,,,,,,,,,,,10,2,2,2024-10-14_21h00.12.626,uWM_experiment,2022.2.3,59.97821591
,,,,,,,,,,,,,,,,,,,,8,0,8,0,19,0,19,0,,,,,,,,,,,,,,,,,,,,,,,,,,,,,,,,,,,,,,,,,,,,,,,,,,,,,,,,,,,,,,,,,,,,,,0.1024781,,,,,,,,,,,,,,,,,,,,,,,,,,,,right,0,70,-30,40,1,4017.691735,4017.691735,4017.691735,None,None,1,1,0.9796154,,,,,,,,,,,,,,,,,,,,,,10,2,2,2024-10-14_21h00.12.626,uWM_experiment,2022.2.3,59.97821591
,,,,,,,,,,,,,,,,,,,,8,0,8,0,20,0,20,0,,,,,,,,,,,,,,,,,,,,,,,,,,,,,,,,,,,,,,,,,,,,,,,,,,,,,,,,,,,,,,,,,,,,,,0.1124781,,,,,,,,,,,,,,,,,,,,,,,,,,,,right,1,10,30,40,1,4025.875427,4025.875427,4025.875427,None,None,1,1,0.2917381,,,,,,,,,,,,,,,,,,,,,,10,2,2,2024-10-14_21h00.12.626,uWM_experiment,2022.2.3,59.97821591
,,,,,,,,,,,,,,,,,,,,8,0,8,0,21,0,21,0,,,,,,,,,,,,,,,,,,,,,,,,,,,,,,,,,,,,,,,,,,,,,,,,,,,,,,,,,,,,,,,,,,,,,,0,,,,,,,,,,,,,,,,,,,,,,,,,,,,left,0,160,30,190,0,4032.042328,4032.042328,4032.042328,None,None,1,1,0.3650462,,,,,,,,,,,,,,,,,,,,,,10,2,2,2024-10-14_21h00.12.626,uWM_experiment,2022.2.3,59.97821591
,,,,,,,,,,,,,,,,,,,,8,0,8,0,22,0,22,0,,,,,,,,,,,,,,,,,,,,,,,,,,,,,,,,,,,,,,,,,,,,,,,,,,,,,,,,,,,,,,,,,,,,,,0.1224781,,,,,,,,,,,,,,,,,,,,,,,,,,,,left,1,100,-30,70,1,4043.076185,4043.076185,4043.076185,None,None,2,0,1.4991766,,,,,,,,,,,,,,,,,,,,,,10,2,2,2024-10-14_21h00.12.626,uWM_experiment,2022.2.3,59.97821591
,,,,,,,,,,,,,,,,,,,,8,0,8,0,23,0,23,0,,,,,,,,,,,,,,,,,,,,,,,,,,,,,,,,,,,,,,,,,,,,,,,,,,,,,,,,,,,,,,,,,,,,,,0.1124781,,,,,,,,,,,,,,,,,,,,,,,,,,,,right,0,70,-30,40,1,4050.676512,4050.676512,4050.676512,None,None,1,1,0.434662,,,,,,,,,,,,,,,,,,,,,,10,2,2,2024-10-14_21h00.12.626,uWM_experiment,2022.2.3,59.97821591
,,,,,,,,,,,,,,,,,,,,8,0,8,0,,,,,0,0,0,0,,,,,,,,,,,,,,,,,,,,,,,,,,,,,,,,,,,,,,,,,,,,,,,,,,,,,,,,,,,,,,,,,,,,,,,,,,,,,,,,,,,,,,,,,,,,,,,,,,,,,,,,,,,,4051.143168,4051.143168,space,107.8721407,space,None,,4159.047902,4159.047902,13.7196332,,,,,,,,,,,,10,2,2,2024-10-14_21h00.12.626,uWM_experiment,2022.2.3,59.97821591
,,,,,,,,,,,,,,,,,,,,8,0,8,0,,,,,1,0,1,0,,,,,,,,,,,,,,,,,,,,,,,,,,,,,,,,,,,,,,,,,,,,,,,,,,,,,,,,,,,,,,,,,,,,,,,,,,,,,,,,,,,,,,,,,,,,,,,,,,,,,,,,,,,,,,,,,,,,,,,,,,,,,,,,,10,2,2,2024-10-14_21h00.12.626,uWM_experiment,2022.2.3,59.97821591
,,,,,,,,,,,,,,,,,,,,8,0,8,0,,,,,2,0,2,0,,,,,,,,,,,,,,,,,,,,,,,,,,,,,,,,,,,,,,,,,,,,,,,,,,,,,,,,,,,,,,,,,,,,,,,,,,,,,,,,,,,,,,,,,,,,,,,,,,,,,,,,,,,,,,,,,,,,,,,,,,,,,,,,,10,2,2,2024-10-14_21h00.12.626,uWM_experiment,2022.2.3,59.97821591
,,,,,,,,,,,,,,,,,,,,9,0,9,0,0,0,0,0,,,,,,,,,,,,,,,,,,,,,,,,,,,,,,,,,,,,,,,,,,,,,,,,,,,,,,,,,,,,,,,,,,,,,,0.1224781,,,,,,,,,,,,,,,,,,,,4172.798523,4173.498531,4173.798548,4174.498577,4174.798593,4175.49862,4175.49862,4175.815326,left,0,100,30,130,1,4184.732353,4184.732353,4184.732353,None,None,1,1,0.5867914,,,,,,,None,,,,,,,,,,,,,,,10,2,2,2024-10-14_21h00.12.626,uWM_experiment,2022.2.3,59.97821591
,,,,,,,,,,,,,,,,,,,,9,0,9,0,1,0,1,0,,,,,,,,,,,,,,,,,,,,,,,,,,,,,,,,,,,,,,,,,,,,,,,,,,,,,,,,,,,,,,,,,,,,,,0,,,,,,,,,,,,,,,,,,,,,,,,,,,,right,0,130,-30,100,0,4193.366068,4193.366068,4193.366068,None,None,1,1,1.1371717,,,,,,,,,,,,,,,,,,,,,,10,2,2,2024-10-14_21h00.12.626,uWM_experiment,2022.2.3,59.97821591
,,,,,,,,,,,,,,,,,,,,9,0,9,0,2,0,2,0,,,,,,,,,,,,,,,,,,,,,,,,,,,,,,,,,,,,,,,,,,,,,,,,,,,,,,,,,,,,,,,,,,,,,,0.1324781,,,,,,,,,,,,,,,,,,,,,,,,,,,,left,0,10,30,40,1,4200.949754,4200.949754,4200.949754,None,None,2,0,4.2894087,,,,,,,,,,,,,,,,,,,,,,10,2,2,2024-10-14_21h00.12.626,uWM_experiment,2022.2.3,59.97821591
,,,,,,,,,,,,,,,,,,,,9,0,9,0,3,0,3,0,,,,,,,,,,,,,,,,,,,,,,,,,,,,,,,,,,,,,,,,,,,,,,,,,,,,,,,,,,,,,,,,,,,,,,0.1224781,,,,,,,,,,,,,,,,,,,,,,,,,,,,right,0,10,-30,-20,1,4217.733841,4217.733841,4217.733841,None,None,2,0,0.8574133,,,,,,,,,,,,,,,,,,,,,,10,2,2,2024-10-14_21h00.12.626,uWM_experiment,2022.2.3,59.97821591
,,,,,,,,,,,,,,,,,,,,9,0,9,0,4,0,4,0,,,,,,,,,,,,,,,,,,,,,,,,,,,,,,,,,,,,,,,,,,,,,,,,,,,,,,,,,,,,,,,,,,,,,,0,,,,,,,,,,,,,,,,,,,,,,,,,,,,right,0,100,-30,70,0,4228.46761,4228.46761,4228.46761,None,None,1,1,0.4276503,,,,,,,,,,,,,,,,,,,,,,10,2,2,2024-10-14_21h00.12.626,uWM_experiment,2022.2.3,59.97821591
,,,,,,,,,,,,,,,,,,,,9,0,9,0,5,0,5,0,,,,,,,,,,,,,,,,,,,,,,,,,,,,,,,,,,,,,,,,,,,,,,,,,,,,,,,,,,,,,,,,,,,,,,0.1124781,,,,,,,,,,,,,,,,,,,,,,,,,,,,left,1,10,-30,-20,1,4234.551211,4234.551211,4234.551211,None,None,2,0,1.7921479,,,,,,,,,,,,,,,,,,,,,,10,2,2,2024-10-14_21h00.12.626,uWM_experiment,2022.2.3,59.97821591
,,,,,,,,,,,,,,,,,,,,9,0,9,0,6,0,6,0,,,,,,,,,,,,,,,,,,,,,,,,,,,,,,,,,,,,,,,,,,,,,,,,,,,,,,,,,,,,,,,,,,,,,,0.1024781,,,,,,,,,,,,,,,,,,,,,,,,,,,,left,1,70,-30,40,1,4242.71824,4242.71824,4242.71824,None,None,2,0,1.952968,,,,,,,,,,,,,,,,,,,,,,10,2,2,2024-10-14_21h00.12.626,uWM_experiment,2022.2.3,59.97821591
,,,,,,,,,,,,,,,,,,,,9,0,9,0,7,0,7,0,,,,,,,,,,,,,,,,,,,,,,,,,,,,,,,,,,,,,,,,,,,,,,,,,,,,,,,,,,,,,,,,,,,,,,0.0924781,,,,,,,,,,,,,,,,,,,,,,,,,,,,left,0,100,30,130,1,4252.785389,4252.785389,4252.785389,None,None,1,1,0.4779688,,,,,,,,,,,,,,,,,,,,,,10,2,2,2024-10-14_21h00.12.626,uWM_experiment,2022.2.3,59.97821591
,,,,,,,,,,,,,,,,,,,,9,0,9,0,8,0,8,0,,,,,,,,,,,,,,,,,,,,,,,,,,,,,,,,,,,,,,,,,,,,,,,,,,,,,,,,,,,,,,,,,,,,,,0.1024781,,,,,,,,,,,,,,,,,,,,,,,,,,,,right,1,10,30,40,1,4260.569031,4260.569031,4260.569031,None,None,1,1,0.2943283,,,,,,,,,,,,,,,,,,,,,,10,2,2,2024-10-14_21h00.12.626,uWM_experiment,2022.2.3,59.97821591
,,,,,,,,,,,,,,,,,,,,9,0,9,0,9,0,9,0,,,,,,,,,,,,,,,,,,,,,,,,,,,,,,,,,,,,,,,,,,,,,,,,,,,,,,,,,,,,,,,,,,,,,,0.1124781,,,,,,,,,,,,,,,,,,,,,,,,,,,,right,0,130,-30,100,1,4268.269368,4268.269368,4268.269368,None,None,1,1,0.2738928,,,,,,,,,,,,,,,,,,,,,,10,2,2,2024-10-14_21h00.12.626,uWM_experiment,2022.2.3,59.97821591
,,,,,,,,,,,,,,,,,,,,9,0,9,0,10,0,10,0,,,,,,,,,,,,,,,,,,,,,,,,,,,,,,,,,,,,,,,,,,,,,,,,,,,,,,,,,,,,,,,,,,,,,,0.1224781,,,,,,,,,,,,,,,,,,,,,,,,,,,,right,1,10,30,40,1,4278.653143,4278.653143,4278.653143,None,None,1,1,0.3540163,,,,,,,,,,,,,,,,,,,,,,10,2,2,2024-10-14_21h00.12.626,uWM_experiment,2022.2.3,59.97821591
,,,,,,,,,,,,,,,,,,,,9,0,9,0,11,0,11,0,,,,,,,,,,,,,,,,,,,,,,,,,,,,,,,,,,,,,,,,,,,,,,,,,,,,,,,,,,,,,,,,,,,,,,0,,,,,,,,,,,,,,,,,,,,,,,,,,,,left,1,160,-30,130,0,4285.970151,4285.970151,4285.970151,None,None,1,1,0.7332492,,,,,,,,,,,,,,,,,,,,,,10,2,2,2024-10-14_21h00.12.626,uWM_experiment,2022.2.3,59.97821591
,,,,,,,,,,,,,,,,,,,,9,0,9,0,12,0,12,0,,,,,,,,,,,,,,,,,,,,,,,,,,,,,,,,,,,,,,,,,,,,,,,,,,,,,,,,,,,,,,,,,,,,,,0.1324781,,,,,,,,,,,,,,,,,,,,,,,,,,,,right,1,100,30,130,1,4294.670502,4294.670502,4294.670502,None,None,1,1,0.6569209,,,,,,,,,,,,,,,,,,,,,,10,2,2,2024-10-14_21h00.12.626,uWM_experiment,2022.2.3,59.97821591
,,,,,,,,,,,,,,,,,,,,9,0,9,0,13,0,13,0,,,,,,,,,,,,,,,,,,,,,,,,,,,,,,,,,,,,,,,,,,,,,,,,,,,,,,,,,,,,,,,,,,,,,,0,,,,,,,,,,,,,,,,,,,,,,,,,,,,left,0,70,30,100,0,4302.420868,4302.420868,4302.420868,None,None,1,1,1.1063674,,,,,,,,,,,,,,,,,,,,,,10,2,2,2024-10-14_21h00.12.626,uWM_experiment,2022.2.3,59.97821591
,,,,,,,,,,,,,,,,,,,,9,0,9,0,14,0,14,0,,,,,,,,,,,,,,,,,,,,,,,,,,,,,,,,,,,,,,,,,,,,,,,,,,,,,,,,,,,,,,,,,,,,,,0.1424781,,,,,,,,,,,,,,,,,,,,,,,,,,,,left,0,100,30,130,1,4311.771278,4311.771278,4311.771278,None,None,1,1,0.6279339,,,,,,,,,,,,,,,,,,,,,,10,2,2,2024-10-14_21h00.12.626,uWM_experiment,2022.2.3,59.97821591
,,,,,,,,,,,,,,,,,,,,9,0,9,0,15,0,15,0,,,,,,,,,,,,,,,,,,,,,,,,,,,,,,,,,,,,,,,,,,,,,,,,,,,,,,,,,,,,,,,,,,,,,,0.1524781,,,,,,,,,,,,,,,,,,,,,,,,,,,,right,1,160,30,190,1,4318.154901,4318.154901,4318.154901,None,None,1,1,0.7324892,,,,,,,,,,,,,,,,,,,,,,10,2,2,2024-10-14_21h00.12.626,uWM_experiment,2022.2.3,59.97821591
,,,,,,,,,,,,,,,,,,,,9,0,9,0,16,0,16,0,,,,,,,,,,,,,,,,,,,,,,,,,,,,,,,,,,,,,,,,,,,,,,,,,,,,,,,,,,,,,,,,,,,,,,0.1624781,,,,,,,,,,,,,,,,,,,,,,,,,,,,right,0,70,-30,40,1,4324.555171,4324.555171,4324.555171,None,None,2,0,0.7641967,,,,,,,,,,,,,,,,,,,,,,10,2,2,2024-10-14_21h00.12.626,uWM_experiment,2022.2.3,59.97821591
,,,,,,,,,,,,,,,,,,,,9,0,9,0,17,0,17,0,,,,,,,,,,,,,,,,,,,,,,,,,,,,,,,,,,,,,,,,,,,,,,,,,,,,,,,,,,,,,,,,,,,,,,0,,,,,,,,,,,,,,,,,,,,,,,,,,,,right,1,130,30,160,0,4333.822248,4333.822248,4333.822248,None,None,1,1,0.744964,,,,,,,,,,,,,,,,,,,,,,10,2,2,2024-10-14_21h00.12.626,uWM_experiment,2022.2.3,59.97821591
,,,,,,,,,,,,,,,,,,,,9,0,9,0,18,0,18,0,,,,,,,,,,,,,,,,,,,,,,,,,,,,,,,,,,,,,,,,,,,,,,,,,,,,,,,,,,,,,,,,,,,,,,0.1524781,,,,,,,,,,,,,,,,,,,,,,,,,,,,right,1,40,30,70,1,4341.389253,4341.389253,4341.389253,None,None,1,1,0.2739779,,,,,,,,,,,,,,,,,,,,,,10,2,2,2024-10-14_21h00.12.626,uWM_experiment,2022.2.3,59.97821591
,,,,,,,,,,,,,,,,,,,,9,0,9,0,19,0,19,0,,,,,,,,,,,,,,,,,,,,,,,,,,,,,,,,,,,,,,,,,,,,,,,,,,,,,,,,,,,,,,,,,,,,,,0.1624781,,,,,,,,,,,,,,,,,,,,,,,,,,,,left,0,100,30,130,1,4347.706161,4347.706161,4347.706161,None,None,1,1,0.3411342,,,,,,,,,,,,,,,,,,,,,,10,2,2,2024-10-14_21h00.12.626,uWM_experiment,2022.2.3,59.97821591
,,,,,,,,,,,,,,,,,,,,9,0,9,0,20,0,20,0,,,,,,,,,,,,,,,,,,,,,,,,,,,,,,,,,,,,,,,,,,,,,,,,,,,,,,,,,,,,,,,,,,,,,,0,,,,,,,,,,,,,,,,,,,,,,,,,,,,right,1,40,30,70,0,4355.023158,4355.023158,4355.023158,None,None,1,1,0.3282141,,,,,,,,,,,,,,,,,,,,,,10,2,2,2024-10-14_21h00.12.626,uWM_experiment,2022.2.3,59.97821591
,,,,,,,,,,,,,,,,,,,,9,0,9,0,21,0,21,0,,,,,,,,,,,,,,,,,,,,,,,,,,,,,,,,,,,,,,,,,,,,,,,,,,,,,,,,,,,,,,,,,,,,,,0.1724781,,,,,,,,,,,,,,,,,,,,,,,,,,,,right,0,100,-30,70,1,4362.006801,4362.006801,4362.006801,None,None,1,1,0.3523622,,,,,,,,,,,,,,,,,,,,,,10,2,2,2024-10-14_21h00.12.626,uWM_experiment,2022.2.3,59.97821591
,,,,,,,,,,,,,,,,,,,,9,0,9,0,22,0,22,0,,,,,,,,,,,,,,,,,,,,,,,,,,,,,,,,,,,,,,,,,,,,,,,,,,,,,,,,,,,,,,,,,,,,,,0,,,,,,,,,,,,,,,,,,,,,,,,,,,,left,0,70,30,100,0,4369.407124,4369.407124,4369.407124,None,None,1,1,0.5121324,,,,,,,,,,,,,,,,,,,,,,10,2,2,2024-10-14_21h00.12.626,uWM_experiment,2022.2.3,59.97821591
,,,,,,,,,,,,,,,,,,,,9,0,9,0,23,0,23,0,,,,,,,,,,,,,,,,,,,,,,,,,,,,,,,,,,,,,,,,,,,,,,,,,,,,,,,,,,,,,,,,,,,,,,0,,,,,,,,,,,,,,,,,,,,,,,,,,,,right,1,160,30,190,0,4376.474123,4376.474123,4376.474123,None,None,1,1,0.2370572,,,,,,,,,,,,,,,,,,,,,,10,2,2,2024-10-14_21h00.12.626,uWM_experiment,2022.2.3,59.97821591
,,,,,,,,,,,,,,,,,,,,9,0,9,0,,,,,0,0,0,0,,,,,,,,,,,,,,,,,,,,,,,,,,,,,,,,,,,,,,,,,,,,,,,,,,,,,,,,,,,,,,,,,,,,,,,,,,,,,,,,,,,,,,,,,,,,,,,,,,,,,,,,,,,,4376.740768,4376.740768,space,105.2586808,None,None,,,,,,,,,,,,,,,,10,2,2,2024-10-14_21h00.12.626,uWM_experiment,2022.2.3,59.97821591
,,,,,,,,,,,,,,,,,,,,9,0,9,0,,,,,1,0,1,0,,,,,,,,,,,,,,,,,,,,,,,,,,,,,,,,,,,,,,,,,,,,,,,,,,,,,,,,,,,,,,,,,,,,,,,,,,,,,,,,,,,,,,,,,,,,,,,,,,,,,,,,,,,,,,,,,,,,,,,,,,,,,,,,,10,2,2,2024-10-14_21h00.12.626,uWM_experiment,2022.2.3,59.97821591
,,,,,,,,,,,,,,,,,,,,9,0,9,0,,,,,2,0,2,0,,,,,,,,,,,,,,,,,,,,,,,,,,,,,,,,,,,,,,,,,,,,,,,,,,,,,,,,,,,,,,,,,,,,,,,,,,,,,,,,,,,,,,,,,,,,,,,,,,,,,,,,,,,,,,,,,,,,,,,,,,,,,,,,,10,2,2,2024-10-14_21h00.12.626,uWM_experiment,2022.2.3,59.97821591
,,,,,,,,,,,,,,,,,,,,10,0,10,0,0,0,0,0,,,,,,,,,,,,,,,,,,,,,,,,,,,,,,,,,,,,,,,,,,,,,,,,,,,,,,,,,,,,,,,,,,,,,,0.1824781,,,,,,,,,,,,,,,,,,,,4482.028728,4482.728775,4483.028768,4483.728792,4484.028814,4484.728831,4484.728831,4485.045533,left,0,130,30,160,1,4491.745838,4491.745838,4491.745838,None,None,1,1,1.4775725,,,,,,,None,,,,,,,,,,,,,,,10,2,2,2024-10-14_21h00.12.626,uWM_experiment,2022.2.3,59.97821591
,,,,,,,,,,,,,,,,,,,,10,0,10,0,1,0,1,0,,,,,,,,,,,,,,,,,,,,,,,,,,,,,,,,,,,,,,,,,,,,,,,,,,,,,,,,,,,,,,,,,,,,,,0.1924781,,,,,,,,,,,,,,,,,,,,,,,,,,,,right,0,40,-30,10,1,4502.196275,4502.196275,4502.196275,None,None,1,1,0.5230263,,,,,,,,,,,,,,,,,,,,,,10,2,2,2024-10-14_21h00.12.626,uWM_experiment,2022.2.3,59.97821591
,,,,,,,,,,,,,,,,,,,,10,0,10,0,2,0,2,0,,,,,,,,,,,,,,,,,,,,,,,,,,,,,,,,,,,,,,,,,,,,,,,,,,,,,,,,,,,,,,,,,,,,,,0,,,,,,,,,,,,,,,,,,,,,,,,,,,,right,0,100,-30,70,0,4511.313348,4511.313348,4511.313348,None,None,1,1,0.6539167,,,,,,,,,,,,,,,,,,,,,,10,2,2,2024-10-14_21h00.12.626,uWM_experiment,2022.2.3,59.97821591
,,,,,,,,,,,,,,,,,,,,10,0,10,0,3,0,3,0,,,,,,,,,,,,,,,,,,,,,,,,,,,,,,,,,,,,,,,,,,,,,,,,,,,,,,,,,,,,,,,,,,,,,,0.2024781,,,,,,,,,,,,,,,,,,,,,,,,,,,,left,0,100,30,130,1,4518.563678,4518.563678,4518.563678,None,None,1,1,0.8035243,,,,,,,,,,,,,,,,,,,,,,10,2,2,2024-10-14_21h00.12.626,uWM_experiment,2022.2.3,59.97821591
,,,,,,,,,,,,,,,,,,,,10,0,10,0,4,0,4,0,,,,,,,,,,,,,,,,,,,,,,,,,,,,,,,,,,,,,,,,,,,,,,,,,,,,,,,,,,,,,,,,,,,,,,0.2124781,,,,,,,,,,,,,,,,,,,,,,,,,,,,left,0,130,30,160,1,4526.997368,4526.997368,4526.997368,None,None,1,1,0.32991,,,,,,,,,,,,,,,,,,,,,,10,2,2,2024-10-14_21h00.12.626,uWM_experiment,2022.2.3,59.97821591
,,,,,,,,,,,,,,,,,,,,10,0,10,0,5,0,5,0,,,,,,,,,,,,,,,,,,,,,,,,,,,,,,,,,,,,,,,,,,,,,,,,,,,,,,,,,,,,,,,,,,,,,,0,,,,,,,,,,,,,,,,,,,,,,,,,,,,right,0,40,-30,10,0,4534.914402,4534.914402,4534.914402,None,None,1,1,0.2128669,,,,,,,,,,,,,,,,,,,,,,10,2,2,2024-10-14_21h00.12.626,uWM_experiment,2022.2.3,59.97821591
,,,,,,,,,,,,,,,,,,,,10,0,10,0,6,0,6,0,,,,,,,,,,,,,,,,,,,,,,,,,,,,,,,,,,,,,,,,,,,,,,,,,,,,,,,,,,,,,,,,,,,,,,0.2224781,,,,,,,,,,,,,,,,,,,,,,,,,,,,right,1,40,30,70,1,4541.397999,4541.397999,4541.397999,None,None,1,1,0.3051914,,,,,,,,,,,,,,,,,,,,,,10,2,2,2024-10-14_21h00.12.626,uWM_experiment,2022.2.3,59.97821591
,,,,,,,,,,,,,,,,,,,,10,0,10,0,7,0,7,0,,,,,,,,,,,,,,,,,,,,,,,,,,,,,,,,,,,,,,,,,,,,,,,,,,,,,,,,,,,,,,,,,,,,,,0.2324781,,,,,,,,,,,,,,,,,,,,,,,,,,,,left,1,40,-30,10,1,4547.314918,4547.314918,4547.314918,None,None,1,1,0.5164953,,,,,,,,,,,,,,,,,,,,,,10,2,2,2024-10-14_21h00.12.626,uWM_experiment,2022.2.3,59.97821591
,,,,,,,,,,,,,,,,,,,,10,0,10,0,8,0,8,0,,,,,,,,,,,,,,,,,,,,,,,,,,,,,,,,,,,,,,,,,,,,,,,,,,,,,,,,,,,,,,,,,,,,,,0.1,,,,,,,,,,,,,,,,,,,,,,,,,,,,right,1,130,30,160,2,4555.98198,4555.98198,4555.98198,None,None,4,0,0.96923,,,,,,,,,,,,,,,,,,,,,,10,2,2,2024-10-14_21h00.12.626,uWM_experiment,2022.2.3,59.97821591
,,,,,,,,,,,,,,,,,,,,10,0,10,0,9,0,9,0,,,,,,,,,,,,,,,,,,,,,,,,,,,,,,,,,,,,,,,,,,,,,,,,,,,,,,,,,,,,,,,,,,,,,,0.2424781,,,,,,,,,,,,,,,,,,,,,,,,,,,,left,1,10,-30,-20,1,4562.798935,4562.798935,4562.798935,None,None,3,0,1.0882406,,,,,,,,,,,,,,,,,,,,,,10,2,2,2024-10-14_21h00.12.626,uWM_experiment,2022.2.3,59.97821591
