PreTrainingPAS4_loop.thisRepN,PreTrainingPAS4_loop.thisTrialN,PreTrainingPAS4_loop.thisN,PreTrainingPAS4_loop.thisIndex,PreTrainingPAS1_loop.thisRepN,PreTrainingPAS1_loop.thisTrialN,PreTrainingPAS1_loop.thisN,PreTrainingPAS1_loop.thisIndex,RepeatCV_loop.thisRepN,RepeatCV_loop.thisTrialN,RepeatCV_loop.thisN,RepeatCV_loop.thisIndex,TrainingCV_loop.thisRepN,TrainingCV_loop.thisTrialN,TrainingCV_loop.thisN,TrainingCV_loop.thisIndex,TrainingCAL_loop.thisRepN,TrainingCAL_loop.thisTrialN,TrainingCAL_loop.thisN,TrainingCAL_loop.thisIndex,blocks_loop.thisRepN,blocks_loop.thisTrialN,blocks_loop.thisN,blocks_loop.thisIndex,trials_loop.thisRepN,trials_loop.thisTrialN,trials_loop.thisN,trials_loop.thisIndex,TrainingPAS1_loop.thisRepN,TrainingPAS1_loop.thisTrialN,TrainingPAS1_loop.thisN,TrainingPAS1_loop.thisIndex,spacebarWelcome0.started,spacebarWelcome0.keys,spacebarWelcome0.rt,spacebarWelcome1.started,gaborWelcome1.started,maskWelcome1.started,textMaskWelcome1.started,spacebarWelcome1.keys,spacebarWelcome1.rt,spacebarWelcome2.started,spacebarWelcome2.keys,spacebarWelcome2.rt,textInst_PreTrainingPAS4.started,spacebarPreTrainingPAS4.started,spacebarPreTrainingPAS4.keys,spacebarPreTrainingPAS4.rt,textPreTrainingPAS1.started,spacebarPreTrainingPAS1.started,spacebarPreTrainingPAS1.keys,spacebarPreTrainingPAS1.rt,textQUEST0.started,spacebarQUEST0.started,spacebarQUEST0.keys,spacebarQUEST0.rt,spacebar0.started,spacebar0.keys,spacebar0.rt,spacebar1.started,spacebar1.keys,spacebar1.rt,textInstructions2.started,spacebar2.started,Gabor1Inst2.started,Gabor2Inst2.started,Gabor3Inst2.started,Gabor4Inst2.started,spacebar2.keys,spacebar2.rt,textInstructionsPAS.started,spacebarInstPAS.started,spacebarInstPAS.keys,spacebarInstPAS.rt,textInstructions3.started,spacebar3.started,spacebar3.keys,spacebar3.rt,WMresp_CV,WMresp_CV_acc,oriMemo_CV,gyre_CV,oriTest_CV,feedbackText.started,feedbackText.stopped,sliderCV.started,PAStextCV.started,PASkeyCV.started,sliderCV.response,sliderCV.rt,PASkeyCV.keys,PASkeyCV.corr,PASkeyCV.rt,TextInstructionsCAL.started,spacebarCAL.started,spacebarCAL.keys,spacebarCAL.rt,contrast,WMresp_CAL,WMresp_CAL_acc,oriMemo_CAL,gyre_CAL,oriTest_CAL,cue_CAL,sliderCAL.started,PAStextCAL.started,PASkeyCAL.started,sliderCAL.response,sliderCAL.rt,PASkeyCAL.keys,PASkeyCAL.corr,PASkeyCAL.rt,propUnseen_CAL,textStart.started,spacebar4.started,spacebar4.keys,spacebar4.rt,three.started,three.stopped,two.started,two.stopped,one.started,one.stopped,blank_countdown.started,blank_countdown.stopped,WMresp,WMresp_acc,oriMemo,gyre,oriTest,cue,slider.started,textPAS_firstGabor.started,PASkey.started,slider.response,slider.rt,PASkey.keys,PASkey.corr,PASkey.rt,spacebarContinue.started,textBreak.started,spacebarContinue.keys,spacebarContinue.rt,spacebar_reminder.keys,spacebar_TrainingPAS1.keys,spacebar_endpractice.keys,spacebar_reminder.started,textReminder.started,spacebar_reminder.rt,textInst_TrainingPAS1.started,spacebar_TrainingPAS1.started,spacebar_TrainingPAS1.rt,textend_practicePAS1.started,spacebar_endpractice.started,spacebar_endpractice.rt,textThanks.started,textThanks.stopped,laboratory,participant,session,date,expName,psychopyVersion,frameRate
,,,,,,,,,,,,,,,,,,,,,,,,,,,,,,,,185.8669017,space,11.5562044,,,,,,,,,,,,,,,,,,,,,,,,,,,,,,,,,,,,,,,,,,,,,,,,,,,,,,,,,,,,,,,,,,,,,,,,,,,,,,,,,,,,,,,,,,,,,,,,,,,,,,,,,,,,,,,,,,,,,,,,,,,10,3,1,2024-10-17_08h26.39.859,uWM_experiment,2022.2.3,59.98667096
,,,,,,,,,,,,,,,,,,,,,,,,,,,,,,,,,,,197.4671345,197.4671345,197.4671345,197.4671345,space,43.0916828,,,,,,,,,,,,,,,,,,,,,,,,,,,,,,,,,,,,,,,,,,,,,,,,,,,,,,,,,,,,,,,,,,,,,,,,,,,,,,,,,,,,,,,,,,,,,,,,,,,,,,,,,,,,,,,,,,,,,10,3,1,2024-10-17_08h26.39.859,uWM_experiment,2022.2.3,59.98667096
,,,,,,,,,,,,,,,,,,,,,,,,,,,,,,,,,,,,,,,,,240.5854624,space,37.4852588,,,,,,,,,,,,,,,,,,,,,,,,,,,,,,,,,,,,,,,,,,,,,,,,,,,,,,,,,,,,,,,,,,,,,,,,,,,,,,,,,,,,,,,,,,,,,,,,,,,,,,,,,,,,,,,,,,10,3,1,2024-10-17_08h26.39.859,uWM_experiment,2022.2.3,59.98667096
,,,,,,,,,,,,,,,,,,,,,,,,,,,,,,,,,,,,,,,,,,,,278.1035839,278.1035839,space,34.0788568,,,,,,,,,,,,,,,,,,,,,,,,,,,,,,,,,,,,,,,,,,,,,,,,,,,,,,,,,,,,,,,,,,,,,,,,,,,,,,,,,,,,,,,,,,,,,,,,,,,,,,,,,,,,,,10,3,1,2024-10-17_08h26.39.859,uWM_experiment,2022.2.3,59.98667096
0,0,0,0,,,,,,,,,,,,,,,,,,,,,,,,,,,,,,,,,,,,,,,,,,,,,,,,,,,,,,,,,,,,,,,,,,,,,,,,,,,,,,,,,,,,,,,,,,,,,,,,,,,,,,,,,,,,,,,,,,,,,,,,,,,,,,,,,,,,,,,,,,,,,,,,,,,,,,,,,,10,3,1,2024-10-17_08h26.39.859,uWM_experiment,2022.2.3,59.98667096
1,0,1,0,,,,,,,,,,,,,,,,,,,,,,,,,,,,,,,,,,,,,,,,,,,,,,,,,,,,,,,,,,,,,,,,,,,,,,,,,,,,,,,,,,,,,,,,,,,,,,,,,,,,,,,,,,,,,,,,,,,,,,,,,,,,,,,,,,,,,,,,,,,,,,,,,,,,,,,,,,10,3,1,2024-10-17_08h26.39.859,uWM_experiment,2022.2.3,59.98667096
2,0,2,0,,,,,,,,,,,,,,,,,,,,,,,,,,,,,,,,,,,,,,,,,,,,,,,,,,,,,,,,,,,,,,,,,,,,,,,,,,,,,,,,,,,,,,,,,,,,,,,,,,,,,,,,,,,,,,,,,,,,,,,,,,,,,,,,,,,,,,,,,,,,,,,,,,,,,,,,,,10,3,1,2024-10-17_08h26.39.859,uWM_experiment,2022.2.3,59.98667096
,,,,,,,,,,,,,,,,,,,,,,,,,,,,,,,,,,,,,,,,,,,,,,,,346.9229295,346.9229295,space,49.1792007,,,,,,,,,,,,,,,,,,,,,,,,,,,,,,,,,,,,,,,,,,,,,,,,,,,,,,,,,,,,,,,,,,,,,,,,,,,,,,,,,,,,,,,,,,,,,,,,,,,,,,,,,,10,3,1,2024-10-17_08h26.39.859,uWM_experiment,2022.2.3,59.98667096
,,,,0,0,0,0,,,,,,,,,,,,,,,,,,,,,,,,,,,,,,,,,,,,,,,,,,,,,,,,,,,,,,,,,,,,,,,,,,,,,,,,,,,,,,,,,,,,,,,,,,,,,,,,,,,,,,,,,,,,,,,,,,,,,,,,,,,,,,,,,,,,,,,,,,,,,,,,,,,,,,10,3,1,2024-10-17_08h26.39.859,uWM_experiment,2022.2.3,59.98667096
,,,,1,0,1,0,,,,,,,,,,,,,,,,,,,,,,,,,,,,,,,,,,,,,,,,,,,,,,,,,,,,,,,,,,,,,,,,,,,,,,,,,,,,,,,,,,,,,,,,,,,,,,,,,,,,,,,,,,,,,,,,,,,,,,,,,,,,,,,,,,,,,,,,,,,,,,,,,,,,,,10,3,1,2024-10-17_08h26.39.859,uWM_experiment,2022.2.3,59.98667096
,,,,2,0,2,0,,,,,,,,,,,,,,,,,,,,,,,,,,,,,,,,,,,,,,,,,,,,,,,,,,,,,,,,,,,,,,,,,,,,,,,,,,,,,,,,,,,,,,,,,,,,,,,,,,,,,,,,,,,,,,,,,,,,,,,,,,,,,,,,,,,,,,,,,,,,,,,,,,,,,,10,3,1,2024-10-17_08h26.39.859,uWM_experiment,2022.2.3,59.98667096
,,,,,,,,,,,,,,,,,,,,,,,,,,,,,,,,,,,,,,,,,,,,,,,,,,,,406.0252417,406.0252417,space,16.5967821,,,,,,,,,,,,,,,,,,,,,,,,,,,,,,,,,,,,,,,,,,,,,,,,,,,,,,,,,,,,,,,,,,,,,,,,,,,,,,,,,,,,,,,,,,,,,,,,,,,,,,10,3,1,2024-10-17_08h26.39.859,uWM_experiment,2022.2.3,59.98667096
,,,,,,,,,,,,,,,,,,,,,,,,,,,,,,,,,,,,,,,,,,,,,,,,,,,,,,,,589.2658512,space,19.9313265,,,,,,,,,,,,,,,,,,,,,,,,,,,,,,,,,,,,,,,,,,,,,,,,,,,,,,,,,,,,,,,,,,,,,,,,,,,,,,,,,,,,,,,,,,,,,,,,,,,10,3,1,2024-10-17_08h26.39.859,uWM_experiment,2022.2.3,59.98667096
,,,,,,,,,,,,,,,,,,,,,,,,,,,,,,,,,,,,,,,,,,,,,,,,,,,,,,,,,,,609.2165556,space,90.8042182,,,,,,,,,,,,,,,,,,,,,,,,,,,,,,,,,,,,,,,,,,,,,,,,,,,,,,,,,,,,,,,,,,,,,,,,,,,,,,,,,,,,,,,,,,,,,,,,10,3,1,2024-10-17_08h26.39.859,uWM_experiment,2022.2.3,59.98667096
,,,,,,,,,,,,,,,,,,,,,,,,,,,,,,,,,,,,,,,,,,,,,,,,,,,,,,,,,,,,,,700.0534646,700.0534646,700.0534646,700.0534646,700.0534646,700.0534646,space,37.6391068,,,,,,,,,,,,,,,,,,,,,,,,,,,,,,,,,,,,,,,,,,,,,,,,,,,,,,,,,,,,,,,,,,,,,,,,,,,,,,,,,,,,,,,,10,3,1,2024-10-17_08h26.39.859,uWM_experiment,2022.2.3,59.98667096
,,,,,,,,,,,,,,,,,,,,,,,,,,,,,,,,,,,,,,,,,,,,,,,,,,,,,,,,,,,,,,,,,,,,,,737.7216055,737.7216055,space,30.322754,,,,,,,,,,,,,,,,,,,,,,,,,,,,,,,,,,,,,,,,,,,,,,,,,,,,,,,,,,,,,,,,,,,,,,,,,,,,,,,,,,,,10,3,1,2024-10-17_08h26.39.859,uWM_experiment,2022.2.3,59.98667096
,,,,,,,,,,,,,,,,,,,,,,,,,,,,,,,,,,,,,,,,,,,,,,,,,,,,,,,,,,,,,,,,,,,,,,,,,,768.0728067,768.0728067,space,23.0275742,,,,,,,,,,,,,,,,,,,,,,,,,,,,,,,,,,,,,,,,,,,,,,,,,,,,,,,,,,,,,,,,,,,,,,,,,,,,,,,,10,3,1,2024-10-17_08h26.39.859,uWM_experiment,2022.2.3,59.98667096
,,,,,,,,0,0,0,0,0,0,0,0,,,,,,,,,,,,,,,,,,,,,,,,,,,,,,,,,,,,,,,,,,,,,,,,,,,,,,,,,,,,,,,right,1,40,30,70,801.0741162,802.07414,802.07414,802.07414,802.07414,None,None,4,0,5.1460892,,,,,,,,,,,,,,,,,,,,,,,,,,,,,,,,,,,,,,,,,,,,,,,,,,,,,,,,,,,,,,,,,10,3,1,2024-10-17_08h26.39.859,uWM_experiment,2022.2.3,59.98667096
,,,,,,,,0,0,0,0,1,0,1,0,,,,,,,,,,,,,,,,,,,,,,,,,,,,,,,,,,,,,,,,,,,,,,,,,,,,,,,,,,,,,,,left,1,40,-30,10,814.0912864,815.0913497,815.0913497,815.0913497,815.0913497,None,None,4,0,1.3607974,,,,,,,,,,,,,,,,,,,,,,,,,,,,,,,,,,,,,,,,,,,,,,,,,,,,,,,,,,,,,,,,,10,3,1,2024-10-17_08h26.39.859,uWM_experiment,2022.2.3,59.98667096
,,,,,,,,0,0,0,0,2,0,2,0,,,,,,,,,,,,,,,,,,,,,,,,,,,,,,,,,,,,,,,,,,,,,,,,,,,,,,,,,,,,,,,right,1,130,30,160,823.7416655,824.7416939,824.7416939,824.7416939,824.7416939,None,None,3,0,2.0703775,,,,,,,,,,,,,,,,,,,,,,,,,,,,,,,,,,,,,,,,,,,,,,,,,,,,,,,,,,,,,,,,,10,3,1,2024-10-17_08h26.39.859,uWM_experiment,2022.2.3,59.98667096
,,,,,,,,0,0,0,0,3,0,3,0,,,,,,,,,,,,,,,,,,,,,,,,,,,,,,,,,,,,,,,,,,,,,,,,,,,,,,,,,,,,,,,right,1,130,30,160,833.2753849,834.2754028,834.2754028,834.2754028,834.2754028,None,None,4,0,1.584652,,,,,,,,,,,,,,,,,,,,,,,,,,,,,,,,,,,,,,,,,,,,,,,,,,,,,,,,,,,,,,,,,10,3,1,2024-10-17_08h26.39.859,uWM_experiment,2022.2.3,59.98667096
,,,,,,,,0,0,0,0,4,0,4,0,,,,,,,,,,,,,,,,,,,,,,,,,,,,,,,,,,,,,,,,,,,,,,,,,,,,,,,,,,,,,,,right,1,160,30,190,841.9756928,,842.9757413,842.9757413,842.9757413,None,None,4,0,1.4443777,,,,,,,,,,,,,,,,,,,,,,,,,,,,,,,,,,,,,,,,,,,,,,,,,,,,,,,,,,,,,,,,,10,3,1,2024-10-17_08h26.39.859,uWM_experiment,2022.2.3,59.98667096
,,,,,,,,0,0,0,0,5,0,5,0,,,,,,,,,,,,,,,,,,,,,,,,,,,,,,,,,,,,,,,,,,,,,,,,,,,,,,,,,,,,,,,left,1,10,-30,-20,850.4594212,851.4594347,851.4594347,851.4594347,851.4594347,None,None,4,0,0.7926302,,,,,,,,,,,,,,,,,,,,,,,,,,,,,,,,,,,,,,,,,,,,,,,,,,,,,,,,,,,,,,,,,10,3,1,2024-10-17_08h26.39.859,uWM_experiment,2022.2.3,59.98667096
,,,,,,,,0,0,0,0,6,0,6,0,,,,,,,,,,,,,,,,,,,,,,,,,,,,,,,,,,,,,,,,,,,,,,,,,,,,,,,,,,,,,,,left,1,70,-30,40,858.1763551,859.176385,859.176385,859.176385,859.176385,None,None,4,0,1.1076226,,,,,,,,,,,,,,,,,,,,,,,,,,,,,,,,,,,,,,,,,,,,,,,,,,,,,,,,,,,,,,,,,10,3,1,2024-10-17_08h26.39.859,uWM_experiment,2022.2.3,59.98667096
,,,,,,,,0,0,0,0,7,0,7,0,,,,,,,,,,,,,,,,,,,,,,,,,,,,,,,,,,,,,,,,,,,,,,,,,,,,,,,,,,,,,,,right,1,40,30,70,866.1933524,867.19339,867.19339,867.19339,867.19339,None,None,4,0,1.0426144,,,,,,,,,,,,,,,,,,,,,,,,,,,,,,,,,,,,,,,,,,,,,,,,,,,,,,,,,,,,,,,,,10,3,1,2024-10-17_08h26.39.859,uWM_experiment,2022.2.3,59.98667096
,,,,,,,,0,0,0,0,8,0,8,0,,,,,,,,,,,,,,,,,,,,,,,,,,,,,,,,,,,,,,,,,,,,,,,,,,,,,,,,,,,,,,,left,1,130,-30,100,874.2269693,875.2270116,875.2270116,875.2270116,875.2270116,None,None,4,0,0.6968945,,,,,,,,,,,,,,,,,,,,,,,,,,,,,,,,,,,,,,,,,,,,,,,,,,,,,,,,,,,,,,,,,10,3,1,2024-10-17_08h26.39.859,uWM_experiment,2022.2.3,59.98667096
,,,,,,,,0,0,0,0,9,0,9,0,,,,,,,,,,,,,,,,,,,,,,,,,,,,,,,,,,,,,,,,,,,,,,,,,,,,,,,,,,,,,,,right,1,70,30,100,883.1773482,884.1773694,884.1773694,884.1773694,884.1773694,None,None,4,0,0.6105309,,,,,,,,,,,,,,,,,,,,,,,,,,,,,,,,,,,,,,,,,,,,,,,,,,,,,,,,,,,,,,,,,10,3,1,2024-10-17_08h26.39.859,uWM_experiment,2022.2.3,59.98667096
,,,,,,,,0,0,0,0,10,0,10,0,,,,,,,,,,,,,,,,,,,,,,,,,,,,,,,,,,,,,,,,,,,,,,,,,,,,,,,,,,,,,,,left,1,160,-30,130,890.710983,891.7109924,891.7109924,891.7109924,891.7109924,None,None,4,0,0.6367874,,,,,,,,,,,,,,,,,,,,,,,,,,,,,,,,,,,,,,,,,,,,,,,,,,,,,,,,,,,,,,,,,10,3,1,2024-10-17_08h26.39.859,uWM_experiment,2022.2.3,59.98667096
,,,,,,,,0,0,0,0,11,0,11,0,,,,,,,,,,,,,,,,,,,,,,,,,,,,,,,,,,,,,,,,,,,,,,,,,,,,,,,,,,,,,,,left,1,70,-30,40,898.6446123,899.6446407,899.6446407,899.6446407,899.6446407,None,None,4,0,0.527157,,,,,,,,,,,,,,,,,,,,,,,,,,,,,,,,,,,,,,,,,,,,,,,,,,,,,,,,,,,,,,,,,10,3,1,2024-10-17_08h26.39.859,uWM_experiment,2022.2.3,59.98667096
,,,,,,,,0,0,0,0,,,,,,,,,,,,,,,,,,,,,,,,,,,,,,,,,,,,,,,,,,,,,,,,,,,,,,,,,,,,,,,,,,,,,,,,,,,,,,,,,,,,,,,,,,,,,,,,,,,,,,,,,,,,,,,,,,,,,,,,,,,,,,,,,,,,,,,,,,,,,,,,,,10,3,1,2024-10-17_08h26.39.859,uWM_experiment,2022.2.3,59.98667096
,,,,,,,,,,,,,,,,,,,,,,,,,,,,,,,,,,,,,,,,,,,,,,,,,,,,,,,,,,,,,,,,,,,,,,,,,,,,,,,,,,,,,,,,,,,,,918.0953495,918.0953495,space,8.8523021,,,,,,,,,,,,,,,,,,,,,,,,,,,,,,,,,,,,,,,,,,,,,,,,,,,,,,,,,,,,,10,3,1,2024-10-17_08h26.39.859,uWM_experiment,2022.2.3,59.98667096
,,,,,,,,,,,,,,,,0,0,0,0,,,,,,,,,,,,,,,,,,,,,,,,,,,,,,,,,,,,,,,,,,,,,,,,,,,,,,,,,,,,,,,,,,,,,,,,,,,,,,0.098891288,left,1,100,-30,70,1,933.6459827,933.6459827,933.6459827,None,None,2,0,2.9737306,,,,,,,,,,,,,,,,,,,,,,,,,,,,,,,,,,,,,,,,,,,,,,10,3,1,2024-10-17_08h26.39.859,uWM_experiment,2022.2.3,59.98667096
,,,,,,,,,,,,,,,,1,0,1,0,,,,,,,,,,,,,,,,,,,,,,,,,,,,,,,,,,,,,,,,,,,,,,,,,,,,,,,,,,,,,,,,,,,,,,,,,,,,,,0.088891288,left,0,130,30,160,1,942.6463269,942.6463269,942.6463269,None,None,2,0,1.8051699,0,,,,,,,,,,,,,,,,,,,,,,,,,,,,,,,,,,,,,,,,,,,,,10,3,1,2024-10-17_08h26.39.859,uWM_experiment,2022.2.3,59.98667096
,,,,,,,,,,,,,,,,2,0,2,0,,,,,,,,,,,,,,,,,,,,,,,,,,,,,,,,,,,,,,,,,,,,,,,,,,,,,,,,,,,,,,,,,,,,,,,,,,,,,,0.1,right,1,40,30,70,2,951.2800111,951.2800111,951.2800111,None,None,3,0,1.8194898,0,,,,,,,,,,,,,,,,,,,,,,,,,,,,,,,,,,,,,,,,,,,,,10,3,1,2024-10-17_08h26.39.859,uWM_experiment,2022.2.3,59.98667096
,,,,,,,,,,,,,,,,3,0,3,0,,,,,,,,,,,,,,,,,,,,,,,,,,,,,,,,,,,,,,,,,,,,,,,,,,,,,,,,,,,,,,,,,,,,,,,,,,,,,,0.078891288,left,0,100,30,130,1,960.180364,960.180364,960.180364,None,None,2,0,1.1111649,0,,,,,,,,,,,,,,,,,,,,,,,,,,,,,,,,,,,,,,,,,,,,,10,3,1,2024-10-17_08h26.39.859,uWM_experiment,2022.2.3,59.98667096
,,,,,,,,,,,,,,,,4,0,4,0,,,,,,,,,,,,,,,,,,,,,,,,,,,,,,,,,,,,,,,,,,,,,,,,,,,,,,,,,,,,,,,,,,,,,,,,,,,,,,0.068891288,right,0,70,-30,40,1,968.3973412,968.3973412,968.3973412,None,None,2,0,0.7981969,0,,,,,,,,,,,,,,,,,,,,,,,,,,,,,,,,,,,,,,,,,,,,,10,3,1,2024-10-17_08h26.39.859,uWM_experiment,2022.2.3,59.98667096
,,,,,,,,,,,,,,,,5,0,5,0,,,,,,,,,,,,,,,,,,,,,,,,,,,,,,,,,,,,,,,,,,,,,,,,,,,,,,,,,,,,,,,,,,,,,,,,,,,,,,0.1,right,1,40,30,70,2,979.2644462,979.2644462,979.2644462,None,None,3,0,1.52299,0,,,,,,,,,,,,,,,,,,,,,,,,,,,,,,,,,,,,,,,,,,,,,10,3,1,2024-10-17_08h26.39.859,uWM_experiment,2022.2.3,59.98667096
,,,,,,,,,,,,,,,,6,0,6,0,,,,,,,,,,,,,,,,,,,,,,,,,,,,,,,,,,,,,,,,,,,,,,,,,,,,,,,,,,,,,,,,,,,,,,,,,,,,,,0.058891288,right,0,40,-30,10,1,987.1481331,987.1481331,987.1481331,None,None,2,0,0.9592626,0,,,,,,,,,,,,,,,,,,,,,,,,,,,,,,,,,,,,,,,,,,,,,10,3,1,2024-10-17_08h26.39.859,uWM_experiment,2022.2.3,59.98667096
,,,,,,,,,,,,,,,,7,0,7,0,,,,,,,,,,,,,,,,,,,,,,,,,,,,,,,,,,,,,,,,,,,,,,,,,,,,,,,,,,,,,,,,,,,,,,,,,,,,,,0.048891288,left,1,160,-30,130,1,994.3317066,994.3317066,994.3317066,None,None,1,1,0.9916988,0,,,,,,,,,,,,,,,,,,,,,,,,,,,,,,,,,,,,,,,,,,,,,10,3,1,2024-10-17_08h26.39.859,uWM_experiment,2022.2.3,59.98667096
,,,,,,,,,,,,,,,,8,0,8,0,,,,,,,,,,,,,,,,,,,,,,,,,,,,,,,,,,,,,,,,,,,,,,,,,,,,,,,,,,,,,,,,,,,,,,,,,,,,,,0.058891288,left,1,10,-30,-20,1,1000.915296,1000.915296,1000.915296,None,None,1,1,1.0321055,0.125,,,,,,,,,,,,,,,,,,,,,,,,,,,,,,,,,,,,,,,,,,,,,10,3,1,2024-10-17_08h26.39.859,uWM_experiment,2022.2.3,59.98667096
,,,,,,,,,,,,,,,,9,0,9,0,,,,,,,,,,,,,,,,,,,,,,,,,,,,,,,,,,,,,,,,,,,,,,,,,,,,,,,,,,,,,,,,,,,,,,,,,,,,,,0.1,right,1,70,30,100,2,1008.598905,1008.598905,1008.598905,None,None,4,0,2.2604347,0.222222222,,,,,,,,,,,,,,,,,,,,,,,,,,,,,,,,,,,,,,,,,,,,,10,3,1,2024-10-17_08h26.39.859,uWM_experiment,2022.2.3,59.98667096
,,,,,,,,,,,,,,,,10,0,10,0,,,,,,,,,,,,,,,,,,,,,,,,,,,,,,,,,,,,,,,,,,,,,,,,,,,,,,,,,,,,,,,,,,,,,,,,,,,,,,0.1,right,1,70,30,100,2,1017.149265,1017.149265,1017.149265,None,None,4,0,1.1899925,0.2,,,,,,,,,,,,,,,,,,,,,,,,,,,,,,,,,,,,,,,,,,,,,10,3,1,2024-10-17_08h26.39.859,uWM_experiment,2022.2.3,59.98667096
,,,,,,,,,,,,,,,,11,0,11,0,,,,,,,,,,,,,,,,,,,,,,,,,,,,,,,,,,,,,,,,,,,,,,,,,,,,,,,,,,,,,,,,,,,,,,,,,,,,,,0.1,right,1,130,30,160,2,1024.882892,1024.882892,1024.882892,None,None,4,0,2.2403462,0.181818182,,,,,,,,,,,,,,,,,,,,,,,,,,,,,,,,,,,,,,,,,,,,,10,3,1,2024-10-17_08h26.39.859,uWM_experiment,2022.2.3,59.98667096
,,,,,,,,,,,,,,,,12,0,12,0,,,,,,,,,,,,,,,,,,,,,,,,,,,,,,,,,,,,,,,,,,,,,,,,,,,,,,,,,,,,,,,,,,,,,,,,,,,,,,0.068891288,left,1,40,-30,10,1,1034.316584,1034.316584,1034.316584,None,None,1,1,1.2226859,0.166666667,,,,,,,,,,,,,,,,,,,,,,,,,,,,,,,,,,,,,,,,,,,,,10,3,1,2024-10-17_08h26.39.859,uWM_experiment,2022.2.3,59.98667096
,,,,,,,,,,,,,,,,13,0,13,0,,,,,,,,,,,,,,,,,,,,,,,,,,,,,,,,,,,,,,,,,,,,,,,,,,,,,,,,,,,,,,,,,,,,,,,,,,,,,,0.078891288,right,1,10,30,40,1,1042.116887,1042.116887,1042.116887,None,None,2,0,1.5583342,0.230769231,,,,,,,,,,,,,,,,,,,,,,,,,,,,,,,,,,,,,,,,,,,,,10,3,1,2024-10-17_08h26.39.859,uWM_experiment,2022.2.3,59.98667096
,,,,,,,,,,,,,,,,14,0,14,0,,,,,,,,,,,,,,,,,,,,,,,,,,,,,,,,,,,,,,,,,,,,,,,,,,,,,,,,,,,,,,,,,,,,,,,,,,,,,,0.1,right,1,10,30,40,2,1049.817187,1049.817187,1049.817187,None,None,3,0,1.7538752,0.214285714,,,,,,,,,,,,,,,,,,,,,,,,,,,,,,,,,,,,,,,,,,,,,10,3,1,2024-10-17_08h26.39.859,uWM_experiment,2022.2.3,59.98667096
,,,,,,,,,,,,,,,,15,0,15,0,,,,,,,,,,,,,,,,,,,,,,,,,,,,,,,,,,,,,,,,,,,,,,,,,,,,,,,,,,,,,,,,,,,,,,,,,,,,,,0.1,right,1,160,30,190,2,1057.88419,1057.88419,1057.88419,None,None,4,0,2.7429495,0.2,,,,,,,,,,,,,,,,,,,,,,,,,,,,,,,,,,,,,,,,,,,,,10,3,1,2024-10-17_08h26.39.859,uWM_experiment,2022.2.3,59.98667096
,,,,,,,,,,,,,,,,16,0,16,0,,,,,,,,,,,,,,,,,,,,,,,,,,,,,,,,,,,,,,,,,,,,,,,,,,,,,,,,,,,,,,,,,,,,,,,,,,,,,,0.1,left,1,100,-30,70,2,1067.451239,1067.451239,1067.451239,None,None,4,0,1.3278213,0.1875,,,,,,,,,,,,,,,,,,,,,,,,,,,,,,,,,,,,,,,,,,,,,10,3,1,2024-10-17_08h26.39.859,uWM_experiment,2022.2.3,59.98667096
,,,,,,,,,,,,,,,,17,0,17,0,,,,,,,,,,,,,,,,,,,,,,,,,,,,,,,,,,,,,,,,,,,,,,,,,,,,,,,,,,,,,,,,,,,,,,,,,,,,,,0.068891288,right,1,160,30,190,1,1075.084859,1075.084859,1075.084859,None,None,1,1,1.4220927,0.176470588,,,,,,,,,,,,,,,,,,,,,,,,,,,,,,,,,,,,,,,,,,,,,10,3,1,2024-10-17_08h26.39.859,uWM_experiment,2022.2.3,59.98667096
,,,,,,,,,,,,,,,,18,0,18,0,,,,,,,,,,,,,,,,,,,,,,,,,,,,,,,,,,,,,,,,,,,,,,,,,,,,,,,,,,,,,,,,,,,,,,,,,,,,,,0.078891288,left,1,130,-30,100,1,1083.035178,1083.035178,1083.035178,None,None,1,1,0.9357343,0.222222222,,,,,,,,,,,,,,,,,,,,,,,,,,,,,,,,,,,,,,,,,,,,,10,3,1,2024-10-17_08h26.39.859,uWM_experiment,2022.2.3,59.98667096
,,,,,,,,,,,,,,,,19,0,19,0,,,,,,,,,,,,,,,,,,,,,,,,,,,,,,,,,,,,,,,,,,,,,,,,,,,,,,,,,,,,,,,,,,,,,,,,,,,,,,0.1,right,1,70,30,100,2,1094.202279,1094.202279,1094.202279,None,None,3,0,0.5606247,0.263157895,,,,,,,,,,,,,,,,,,,,,,,,,,,,,,,,,,,,,,,,,,,,,10,3,1,2024-10-17_08h26.39.859,uWM_experiment,2022.2.3,59.98667096
,,,,,,,,,,,,,,,,20,0,20,0,,,,,,,,,,,,,,,,,,,,,,,,,,,,,,,,,,,,,,,,,,,,,,,,,,,,,,,,,,,,,,,,,,,,,,,,,,,,,,0.1,left,1,160,-30,130,2,1100.802535,1100.802535,1100.802535,None,None,4,0,1.2004329,0.25,,,,,,,,,,,,,,,,,,,,,,,,,,,,,,,,,,,,,,,,,,,,,10,3,1,2024-10-17_08h26.39.859,uWM_experiment,2022.2.3,59.98667096
,,,,,,,,,,,,,,,,21,0,21,0,,,,,,,,,,,,,,,,,,,,,,,,,,,,,,,,,,,,,,,,,,,,,,,,,,,,,,,,,,,,,,,,,,,,,,,,,,,,,,0.1,left,1,130,-30,100,2,1107.952846,1107.952846,1107.952846,None,None,4,0,0.9940348,0.238095238,,,,,,,,,,,,,,,,,,,,,,,,,,,,,,,,,,,,,,,,,,,,,10,3,1,2024-10-17_08h26.39.859,uWM_experiment,2022.2.3,59.98667096
,,,,,,,,,,,,,,,,22,0,22,0,,,,,,,,,,,,,,,,,,,,,,,,,,,,,,,,,,,,,,,,,,,,,,,,,,,,,,,,,,,,,,,,,,,,,,,,,,,,,,0.1,right,0,100,-30,70,2,1117.336522,1117.336522,1117.336522,None,None,3,0,1.0502828,0.227272727,,,,,,,,,,,,,,,,,,,,,,,,,,,,,,,,,,,,,,,,,,,,,10,3,1,2024-10-17_08h26.39.859,uWM_experiment,2022.2.3,59.98667096
,,,,,,,,,,,,,,,,23,0,23,0,,,,,,,,,,,,,,,,,,,,,,,,,,,,,,,,,,,,,,,,,,,,,,,,,,,,,,,,,,,,,,,,,,,,,,,,,,,,,,0.088891288,right,0,10,-30,-20,1,1124.236774,1124.236774,1124.236774,None,None,2,0,1.2219313,0.217391304,,,,,,,,,,,,,,,,,,,,,,,,,,,,,,,,,,,,,,,,,,,,,10,3,1,2024-10-17_08h26.39.859,uWM_experiment,2022.2.3,59.98667096
,,,,,,,,,,,,,,,,,,,,,,,,,,,,,,,,,,,,,,,,,,,,,,,,,,,,,,,,,,,,,,,,,,,,,,,,,,,,,,,,,,,,,,,,,,,,,,,,,,,,,,,,,,,,,,,,,1125.48682,1126.486855,space,26.555833,,,,,,,,,,,,,,,,,,,,,,,,,,,,,,,,,,,,,,,,,10,3,1,2024-10-17_08h26.39.859,uWM_experiment,2022.2.3,59.98667096
,,,,,,,,,,,,,,,,,,,,0,0,0,0,0,0,0,0,,,,,,,,,,,,,,,,,,,,,,,,,,,,,,,,,,,,,,,,,,,,,,,,,,,,,,,,,,,,,,,,,,,,,,0.088891288,,,,,,,,,,,,,,,,,,,,1153.071267,1153.771276,1154.054621,1154.754644,1155.054677,1155.754684,1155.754684,1156.104706,left,1,160,-30,130,1,1161.221572,1161.221572,1161.221572,None,None,2,0,2.3009639,,,,,,,,,,,,,,,,,,,10,3,1,2024-10-17_08h26.39.859,uWM_experiment,2022.2.3,59.98667096
,,,,,,,,,,,,,,,,,,,,0,0,0,0,1,0,1,0,,,,,,,,,,,,,,,,,,,,,,,,,,,,,,,,,,,,,,,,,,,,,,,,,,,,,,,,,,,,,,,,,,,,,,0.078891288,,,,,,,,,,,,,,,,,,,,,,,,,,,,left,0,40,30,70,1,1169.655247,1169.655247,1169.655247,None,None,2,0,0.8192704,,,,,,,,,,,,,,,,,,,10,3,1,2024-10-17_08h26.39.859,uWM_experiment,2022.2.3,59.98667096
,,,,,,,,,,,,,,,,,,,,0,0,0,0,2,0,2,0,,,,,,,,,,,,,,,,,,,,,,,,,,,,,,,,,,,,,,,,,,,,,,,,,,,,,,,,,,,,,,,,,,,,,,0.068891288,,,,,,,,,,,,,,,,,,,,,,,,,,,,left,1,130,-30,100,1,1176.355487,1176.355487,1176.355487,None,None,2,0,13.8630871,,,,,,,,,,,,,,,,,,,10,3,1,2024-10-17_08h26.39.859,uWM_experiment,2022.2.3,59.98667096
,,,,,,,,,,,,,,,,,,,,0,0,0,0,3,0,3,0,,,,,,,,,,,,,,,,,,,,,,,,,,,,,,,,,,,,,,,,,,,,,,,,,,,,,,,,,,,,,,,,,,,,,,0.058891288,,,,,,,,,,,,,,,,,,,,,,,,,,,,right,1,160,30,190,1,1196.5063,1196.5063,1196.5063,None,None,2,0,1.1441681,,,,,,,,,,,,,,,,,,,10,3,1,2024-10-17_08h26.39.859,uWM_experiment,2022.2.3,59.98667096
,,,,,,,,,,,,,,,,,,,,0,0,0,0,4,0,4,0,,,,,,,,,,,,,,,,,,,,,,,,,,,,,,,,,,,,,,,,,,,,,,,,,,,,,,,,,,,,,,,,,,,,,,0.048891288,,,,,,,,,,,,,,,,,,,,,,,,,,,,right,1,40,30,70,1,1204.02325,1204.02325,1204.02325,None,None,2,0,1.3792192,,,,,,,,,,,,,,,,,,,10,3,1,2024-10-17_08h26.39.859,uWM_experiment,2022.2.3,59.98667096
,,,,,,,,,,,,,,,,,,,,0,0,0,0,5,0,5,0,,,,,,,,,,,,,,,,,,,,,,,,,,,,,,,,,,,,,,,,,,,,,,,,,,,,,,,,,,,,,,,,,,,,,,0,,,,,,,,,,,,,,,,,,,,,,,,,,,,left,0,100,30,130,0,1211.606885,1211.606885,1211.606885,None,None,2,0,1.1315799,,,,,,,,,,,,,,,,,,,10,3,1,2024-10-17_08h26.39.859,uWM_experiment,2022.2.3,59.98667096
,,,,,,,,,,,,,,,,,,,,0,0,0,0,6,0,6,0,,,,,,,,,,,,,,,,,,,,,,,,,,,,,,,,,,,,,,,,,,,,,,,,,,,,,,,,,,,,,,,,,,,,,,0.038891288,,,,,,,,,,,,,,,,,,,,,,,,,,,,right,1,100,30,130,1,1219.073853,1219.073853,1219.073853,None,None,2,0,1.63253,,,,,,,,,,,,,,,,,,,10,3,1,2024-10-17_08h26.39.859,uWM_experiment,2022.2.3,59.98667096
,,,,,,,,,,,,,,,,,,,,0,0,0,0,7,0,7,0,,,,,,,,,,,,,,,,,,,,,,,,,,,,,,,,,,,,,,,,,,,,,,,,,,,,,,,,,,,,,,,,,,,,,,0.028891288,,,,,,,,,,,,,,,,,,,,,,,,,,,,left,0,10,30,40,1,1227.057501,1227.057501,1227.057501,None,None,2,0,2.1288796,,,,,,,,,,,,,,,,,,,10,3,1,2024-10-17_08h26.39.859,uWM_experiment,2022.2.3,59.98667096
,,,,,,,,,,,,,,,,,,,,0,0,0,0,8,0,8,0,,,,,,,,,,,,,,,,,,,,,,,,,,,,,,,,,,,,,,,,,,,,,,,,,,,,,,,,,,,,,,,,,,,,,,0.018891288,,,,,,,,,,,,,,,,,,,,,,,,,,,,right,0,10,-30,-20,1,1235.057821,1235.057821,1235.057821,None,None,2,0,1.1765206,,,,,,,,,,,,,,,,,,,10,3,1,2024-10-17_08h26.39.859,uWM_experiment,2022.2.3,59.98667096
,,,,,,,,,,,,,,,,,,,,0,0,0,0,9,0,9,0,,,,,,,,,,,,,,,,,,,,,,,,,,,,,,,,,,,,,,,,,,,,,,,,,,,,,,,,,,,,,,,,,,,,,,0.008891288,,,,,,,,,,,,,,,,,,,,,,,,,,,,right,1,130,30,160,1,1242.34144,1242.34144,1242.34144,None,None,2,0,1.2447828,,,,,,,,,,,,,,,,,,,10,3,1,2024-10-17_08h26.39.859,uWM_experiment,2022.2.3,59.98667096
,,,,,,,,,,,,,,,,,,,,0,0,0,0,10,0,10,0,,,,,,,,,,,,,,,,,,,,,,,,,,,,,,,,,,,,,,,,,,,,,,,,,,,,,,,,,,,,,,,,,,,,,,0,,,,,,,,,,,,,,,,,,,,,,,,,,,,left,0,70,30,100,0,1249.69171,1249.69171,1249.69171,None,None,2,0,1.1825346,,,,,,,,,,,,,,,,,,,10,3,1,2024-10-17_08h26.39.859,uWM_experiment,2022.2.3,59.98667096
,,,,,,,,,,,,,,,,,,,,0,0,0,0,11,0,11,0,,,,,,,,,,,,,,,,,,,,,,,,,,,,,,,,,,,,,,,,,,,,,,,,,,,,,,,,,,,,,,,,,,,,,,0.005,,,,,,,,,,,,,,,,,,,,,,,,,,,,right,1,10,30,40,1,1256.925316,1256.925316,1256.925316,None,None,2,0,1.1488955,,,,,,,,,,,,,,,,,,,10,3,1,2024-10-17_08h26.39.859,uWM_experiment,2022.2.3,59.98667096
,,,,,,,,,,,,,,,,,,,,0,0,0,0,12,0,12,0,,,,,,,,,,,,,,,,,,,,,,,,,,,,,,,,,,,,,,,,,,,,,,,,,,,,,,,,,,,,,,,,,,,,,,0,,,,,,,,,,,,,,,,,,,,,,,,,,,,right,1,130,30,160,0,1263.875603,1263.875603,1263.875603,None,None,2,0,2.0785657,,,,,,,,,,,,,,,,,,,10,3,1,2024-10-17_08h26.39.859,uWM_experiment,2022.2.3,59.98667096
,,,,,,,,,,,,,,,,,,,,0,0,0,0,13,0,13,0,,,,,,,,,,,,,,,,,,,,,,,,,,,,,,,,,,,,,,,,,,,,,,,,,,,,,,,,,,,,,,,,,,,,,,0.005,,,,,,,,,,,,,,,,,,,,,,,,,,,,left,0,40,30,70,1,1272.842637,1272.842637,1272.842637,None,None,1,1,1.0235848,,,,,,,,,,,,,,,,,,,10,3,1,2024-10-17_08h26.39.859,uWM_experiment,2022.2.3,59.98667096
,,,,,,,,,,,,,,,,,,,,0,0,0,0,14,0,14,0,,,,,,,,,,,,,,,,,,,,,,,,,,,,,,,,,,,,,,,,,,,,,,,,,,,,,,,,,,,,,,,,,,,,,,0,,,,,,,,,,,,,,,,,,,,,,,,,,,,left,0,40,30,70,0,1280.6096,1280.6096,1280.6096,None,None,2,0,0.7683946,,,,,,,,,,,,,,,,,,,10,3,1,2024-10-17_08h26.39.859,uWM_experiment,2022.2.3,59.98667096
,,,,,,,,,,,,,,,,,,,,0,0,0,0,15,0,15,0,,,,,,,,,,,,,,,,,,,,,,,,,,,,,,,,,,,,,,,,,,,,,,,,,,,,,,,,,,,,,,,,,,,,,,0.015,,,,,,,,,,,,,,,,,,,,,,,,,,,,right,1,40,30,70,1,1287.576552,1287.576552,1287.576552,None,None,1,1,1.921449,,,,,,,,,,,,,,,,,,,10,3,1,2024-10-17_08h26.39.859,uWM_experiment,2022.2.3,59.98667096
,,,,,,,,,,,,,,,,,,,,0,0,0,0,16,0,16,0,,,,,,,,,,,,,,,,,,,,,,,,,,,,,,,,,,,,,,,,,,,,,,,,,,,,,,,,,,,,,,,,,,,,,,0.025,,,,,,,,,,,,,,,,,,,,,,,,,,,,right,0,70,-30,40,1,1296.060223,1296.060223,1296.060223,None,None,2,0,1.0857411,,,,,,,,,,,,,,,,,,,10,3,1,2024-10-17_08h26.39.859,uWM_experiment,2022.2.3,59.98667096
,,,,,,,,,,,,,,,,,,,,0,0,0,0,17,0,17,0,,,,,,,,,,,,,,,,,,,,,,,,,,,,,,,,,,,,,,,,,,,,,,,,,,,,,,,,,,,,,,,,,,,,,,0.015,,,,,,,,,,,,,,,,,,,,,,,,,,,,left,1,10,-30,-20,1,1303.72716,1303.72716,1303.72716,None,None,2,0,4.4507268,,,,,,,,,,,,,,,,,,,10,3,1,2024-10-17_08h26.39.859,uWM_experiment,2022.2.3,59.98667096
,,,,,,,,,,,,,,,,,,,,0,0,0,0,18,0,18,0,,,,,,,,,,,,,,,,,,,,,,,,,,,,,,,,,,,,,,,,,,,,,,,,,,,,,,,,,,,,,,,,,,,,,,0.005,,,,,,,,,,,,,,,,,,,,,,,,,,,,right,0,130,-30,100,1,1314.660906,1314.660906,1314.660906,None,None,1,1,0.6130897,,,,,,,,,,,,,,,,,,,10,3,1,2024-10-17_08h26.39.859,uWM_experiment,2022.2.3,59.98667096
,,,,,,,,,,,,,,,,,,,,0,0,0,0,19,0,19,0,,,,,,,,,,,,,,,,,,,,,,,,,,,,,,,,,,,,,,,,,,,,,,,,,,,,,,,,,,,,,,,,,,,,,,0.015,,,,,,,,,,,,,,,,,,,,,,,,,,,,right,1,100,30,130,1,1321.727869,1321.727869,1321.727869,None,None,2,0,1.0340368,,,,,,,,,,,,,,,,,,,10,3,1,2024-10-17_08h26.39.859,uWM_experiment,2022.2.3,59.98667096
,,,,,,,,,,,,,,,,,,,,0,0,0,0,20,0,20,0,,,,,,,,,,,,,,,,,,,,,,,,,,,,,,,,,,,,,,,,,,,,,,,,,,,,,,,,,,,,,,,,,,,,,,0,,,,,,,,,,,,,,,,,,,,,,,,,,,,left,0,100,30,130,0,1328.728233,1328.728233,1328.728233,None,None,2,0,1.3137,,,,,,,,,,,,,,,,,,,10,3,1,2024-10-17_08h26.39.859,uWM_experiment,2022.2.3,59.98667096
,,,,,,,,,,,,,,,,,,,,0,0,0,0,21,0,21,0,,,,,,,,,,,,,,,,,,,,,,,,,,,,,,,,,,,,,,,,,,,,,,,,,,,,,,,,,,,,,,,,,,,,,,0,,,,,,,,,,,,,,,,,,,,,,,,,,,,left,1,130,-30,100,0,1335.928419,1335.928419,1335.928419,None,None,2,0,1.2894084,,,,,,,,,,,,,,,,,,,10,3,1,2024-10-17_08h26.39.859,uWM_experiment,2022.2.3,59.98667096
,,,,,,,,,,,,,,,,,,,,0,0,0,0,22,0,22,0,,,,,,,,,,,,,,,,,,,,,,,,,,,,,,,,,,,,,,,,,,,,,,,,,,,,,,,,,,,,,,,,,,,,,,0.005,,,,,,,,,,,,,,,,,,,,,,,,,,,,right,0,70,-30,40,1,1343.64539,1343.64539,1343.64539,None,None,1,1,1.4763983,,,,,,,,,,,,,,,,,,,10,3,1,2024-10-17_08h26.39.859,uWM_experiment,2022.2.3,59.98667096
,,,,,,,,,,,,,,,,,,,,0,0,0,0,23,0,23,0,,,,,,,,,,,,,,,,,,,,,,,,,,,,,,,,,,,,,,,,,,,,,,,,,,,,,,,,,,,,,,,,,,,,,,0.1,,,,,,,,,,,,,,,,,,,,,,,,,,,,left,0,10,30,40,2,1354.279144,1354.279144,1354.279144,None,None,3,0,1.3945276,,,,,,,,,,,,,,,,,,,10,3,1,2024-10-17_08h26.39.859,uWM_experiment,2022.2.3,59.98667096
,,,,,,,,,,,,,,,,,,,,0,0,0,0,,,,,0,0,0,0,,,,,,,,,,,,,,,,,,,,,,,,,,,,,,,,,,,,,,,,,,,,,,,,,,,,,,,,,,,,,,,,,,,,,,,,,,,,,,,,,,,,,,,,,,,,,,,,,,,,,,,,,,,,1355.695855,1355.695855,space,7.2178741,None,None,,,,,,,,,,,,,10,3,1,2024-10-17_08h26.39.859,uWM_experiment,2022.2.3,59.98667096
,,,,,,,,,,,,,,,,,,,,0,0,0,0,,,,,1,0,1,0,,,,,,,,,,,,,,,,,,,,,,,,,,,,,,,,,,,,,,,,,,,,,,,,,,,,,,,,,,,,,,,,,,,,,,,,,,,,,,,,,,,,,,,,,,,,,,,,,,,,,,,,,,,,,,,,,,,,,,,,,,,,,,10,3,1,2024-10-17_08h26.39.859,uWM_experiment,2022.2.3,59.98667096
,,,,,,,,,,,,,,,,,,,,0,0,0,0,,,,,2,0,2,0,,,,,,,,,,,,,,,,,,,,,,,,,,,,,,,,,,,,,,,,,,,,,,,,,,,,,,,,,,,,,,,,,,,,,,,,,,,,,,,,,,,,,,,,,,,,,,,,,,,,,,,,,,,,,,,,,,,,,,,,,,,,,,10,3,1,2024-10-17_08h26.39.859,uWM_experiment,2022.2.3,59.98667096
,,,,,,,,,,,,,,,,,,,,1,0,1,0,0,0,0,0,,,,,,,,,,,,,,,,,,,,,,,,,,,,,,,,,,,,,,,,,,,,,,,,,,,,,,,,,,,,,,,,,,,,,,0,,,,,,,,,,,,,,,,,,,,1362.946149,1363.646148,1363.946174,1364.646187,1364.946197,1365.646254,1365.646254,1365.962934,left,0,100,30,130,0,1370.796458,1370.796458,1370.796458,None,None,2,0,1.2851479,,,,,,,None,,,,,,,,,,,,10,3,1,2024-10-17_08h26.39.859,uWM_experiment,2022.2.3,59.98667096
,,,,,,,,,,,,,,,,,,,,1,0,1,0,1,0,1,0,,,,,,,,,,,,,,,,,,,,,,,,,,,,,,,,,,,,,,,,,,,,,,,,,,,,,,,,,,,,,,,,,,,,,,0.015,,,,,,,,,,,,,,,,,,,,,,,,,,,,right,0,40,-30,10,1,1377.896734,1377.896734,1377.896734,None,None,1,1,0.6328721,,,,,,,,,,,,,,,,,,,10,3,1,2024-10-17_08h26.39.859,uWM_experiment,2022.2.3,59.98667096
,,,,,,,,,,,,,,,,,,,,1,0,1,0,2,0,2,0,,,,,,,,,,,,,,,,,,,,,,,,,,,,,,,,,,,,,,,,,,,,,,,,,,,,,,,,,,,,,,,,,,,,,,0.025,,,,,,,,,,,,,,,,,,,,,,,,,,,,right,0,70,-30,40,1,1384.596984,1384.596984,1384.596984,None,None,2,0,1.5806185,,,,,,,,,,,,,,,,,,,10,3,1,2024-10-17_08h26.39.859,uWM_experiment,2022.2.3,59.98667096
,,,,,,,,,,,,,,,,,,,,1,0,1,0,3,0,3,0,,,,,,,,,,,,,,,,,,,,,,,,,,,,,,,,,,,,,,,,,,,,,,,,,,,,,,,,,,,,,,,,,,,,,,0.015,,,,,,,,,,,,,,,,,,,,,,,,,,,,left,0,70,30,100,1,1392.363952,1392.363952,1392.363952,None,None,1,1,1.365636,,,,,,,,,,,,,,,,,,,10,3,1,2024-10-17_08h26.39.859,uWM_experiment,2022.2.3,59.98667096
,,,,,,,,,,,,,,,,,,,,1,0,1,0,4,0,4,0,,,,,,,,,,,,,,,,,,,,,,,,,,,,,,,,,,,,,,,,,,,,,,,,,,,,,,,,,,,,,,,,,,,,,,0.1,,,,,,,,,,,,,,,,,,,,,,,,,,,,left,1,160,-30,130,2,1399.730938,1399.730938,1399.730938,None,None,4,0,2.2467361,,,,,,,,,,,,,,,,,,,10,3,1,2024-10-17_08h26.39.859,uWM_experiment,2022.2.3,59.98667096
,,,,,,,,,,,,,,,,,,,,1,0,1,0,5,0,5,0,,,,,,,,,,,,,,,,,,,,,,,,,,,,,,,,,,,,,,,,,,,,,,,,,,,,,,,,,,,,,,,,,,,,,,0.025,,,,,,,,,,,,,,,,,,,,,,,,,,,,right,0,10,-30,-20,1,1408.297946,1408.297946,1408.297946,None,None,2,0,1.959597,,,,,,,,,,,,,,,,,,,10,3,1,2024-10-17_08h26.39.859,uWM_experiment,2022.2.3,59.98667096
,,,,,,,,,,,,,,,,,,,,1,0,1,0,6,0,6,0,,,,,,,,,,,,,,,,,,,,,,,,,,,,,,,,,,,,,,,,,,,,,,,,,,,,,,,,,,,,,,,,,,,,,,0,,,,,,,,,,,,,,,,,,,,,,,,,,,,right,1,160,30,190,0,1416.498249,1416.498249,1416.498249,None,None,1,1,0.7912253,,,,,,,,,,,,,,,,,,,10,3,1,2024-10-17_08h26.39.859,uWM_experiment,2022.2.3,59.98667096
,,,,,,,,,,,,,,,,,,,,1,0,1,0,7,0,7,0,,,,,,,,,,,,,,,,,,,,,,,,,,,,,,,,,,,,,,,,,,,,,,,,,,,,,,,,,,,,,,,,,,,,,,0,,,,,,,,,,,,,,,,,,,,,,,,,,,,left,1,10,-30,-20,0,1423.131841,1423.131841,1423.131841,None,None,2,0,1.5016147,,,,,,,,,,,,,,,,,,,10,3,1,2024-10-17_08h26.39.859,uWM_experiment,2022.2.3,59.98667096
,,,,,,,,,,,,,,,,,,,,1,0,1,0,8,0,8,0,,,,,,,,,,,,,,,,,,,,,,,,,,,,,,,,,,,,,,,,,,,,,,,,,,,,,,,,,,,,,,,,,,,,,,0.015,,,,,,,,,,,,,,,,,,,,,,,,,,,,left,1,130,-30,100,1,1430.932129,1430.932129,1430.932129,None,None,1,1,0.9173916,,,,,,,,,,,,,,,,,,,10,3,1,2024-10-17_08h26.39.859,uWM_experiment,2022.2.3,59.98667096
,,,,,,,,,,,,,,,,,,,,1,0,1,0,9,0,9,0,,,,,,,,,,,,,,,,,,,,,,,,,,,,,,,,,,,,,,,,,,,,,,,,,,,,,,,,,,,,,,,,,,,,,,0.025,,,,,,,,,,,,,,,,,,,,,,,,,,,,left,0,70,30,100,1,1438.415778,1438.415778,1438.415778,None,None,2,0,1.2016603,,,,,,,,,,,,,,,,,,,10,3,1,2024-10-17_08h26.39.859,uWM_experiment,2022.2.3,59.98667096
,,,,,,,,,,,,,,,,,,,,1,0,1,0,10,0,10,0,,,,,,,,,,,,,,,,,,,,,,,,,,,,,,,,,,,,,,,,,,,,,,,,,,,,,,,,,,,,,,,,,,,,,,0,,,,,,,,,,,,,,,,,,,,,,,,,,,,right,0,70,-30,40,0,1444.966031,1444.966031,1444.966031,None,None,1,1,0.6273352,,,,,,,,,,,,,,,,,,,10,3,1,2024-10-17_08h26.39.859,uWM_experiment,2022.2.3,59.98667096
,,,,,,,,,,,,,,,,,,,,1,0,1,0,11,0,11,0,,,,,,,,,,,,,,,,,,,,,,,,,,,,,,,,,,,,,,,,,,,,,,,,,,,,,,,,,,,,,,,,,,,,,,0.1,,,,,,,,,,,,,,,,,,,,,,,,,,,,right,1,130,30,160,2,1451.732983,1451.732983,1451.732983,None,None,4,0,1.0442937,,,,,,,,,,,,,,,,,,,10,3,1,2024-10-17_08h26.39.859,uWM_experiment,2022.2.3,59.98667096
,,,,,,,,,,,,,,,,,,,,1,0,1,0,12,0,12,0,,,,,,,,,,,,,,,,,,,,,,,,,,,,,,,,,,,,,,,,,,,,,,,,,,,,,,,,,,,,,,,,,,,,,,0.015,,,,,,,,,,,,,,,,,,,,,,,,,,,,left,1,130,-30,100,1,1458.633249,1458.633249,1458.633249,None,None,2,0,0.8800193,,,,,,,,,,,,,,,,,,,10,3,1,2024-10-17_08h26.39.859,uWM_experiment,2022.2.3,59.98667096
,,,,,,,,,,,,,,,,,,,,1,0,1,0,13,0,13,0,,,,,,,,,,,,,,,,,,,,,,,,,,,,,,,,,,,,,,,,,,,,,,,,,,,,,,,,,,,,,,,,,,,,,,0.005,,,,,,,,,,,,,,,,,,,,,,,,,,,,right,0,40,-30,10,1,1465.300164,1465.300164,1465.300164,None,None,1,1,0.8689937,,,,,,,,,,,,,,,,,,,10,3,1,2024-10-17_08h26.39.859,uWM_experiment,2022.2.3,59.98667096
,,,,,,,,,,,,,,,,,,,,1,0,1,0,14,0,14,0,,,,,,,,,,,,,,,,,,,,,,,,,,,,,,,,,,,,,,,,,,,,,,,,,,,,,,,,,,,,,,,,,,,,,,0,,,,,,,,,,,,,,,,,,,,,,,,,,,,right,0,70,-30,40,0,1471.90042,1471.90042,1471.90042,None,None,1,1,1.052728,,,,,,,,,,,,,,,,,,,10,3,1,2024-10-17_08h26.39.859,uWM_experiment,2022.2.3,59.98667096
,,,,,,,,,,,,,,,,,,,,1,0,1,0,15,0,15,0,,,,,,,,,,,,,,,,,,,,,,,,,,,,,,,,,,,,,,,,,,,,,,,,,,,,,,,,,,,,,,,,,,,,,,0.015,,,,,,,,,,,,,,,,,,,,,,,,,,,,right,1,10,30,40,1,1478.700713,1478.700713,1478.700713,None,None,2,0,1.3964934,,,,,,,,,,,,,,,,,,,10,3,1,2024-10-17_08h26.39.859,uWM_experiment,2022.2.3,59.98667096
,,,,,,,,,,,,,,,,,,,,1,0,1,0,16,0,16,0,,,,,,,,,,,,,,,,,,,,,,,,,,,,,,,,,,,,,,,,,,,,,,,,,,,,,,,,,,,,,,,,,,,,,,0.005,,,,,,,,,,,,,,,,,,,,,,,,,,,,left,0,130,30,160,1,1485.950988,1485.950988,1485.950988,None,None,2,0,1.0181092,,,,,,,,,,,,,,,,,,,10,3,1,2024-10-17_08h26.39.859,uWM_experiment,2022.2.3,59.98667096
,,,,,,,,,,,,,,,,,,,,1,0,1,0,17,0,17,0,,,,,,,,,,,,,,,,,,,,,,,,,,,,,,,,,,,,,,,,,,,,,,,,,,,,,,,,,,,,,,,,,,,,,,0.005,,,,,,,,,,,,,,,,,,,,,,,,,,,,right,0,160,-30,130,1,1492.801247,1492.801247,1492.801247,None,None,2,0,1.1838561,,,,,,,,,,,,,,,,,,,10,3,1,2024-10-17_08h26.39.859,uWM_experiment,2022.2.3,59.98667096
,,,,,,,,,,,,,,,,,,,,1,0,1,0,18,0,18,0,,,,,,,,,,,,,,,,,,,,,,,,,,,,,,,,,,,,,,,,,,,,,,,,,,,,,,,,,,,,,,,,,,,,,,0,,,,,,,,,,,,,,,,,,,,,,,,,,,,left,0,160,30,190,0,1500.151539,1500.151539,1500.151539,None,None,2,0,1.1694736,,,,,,,,,,,,,,,,,,,10,3,1,2024-10-17_08h26.39.859,uWM_experiment,2022.2.3,59.98667096
,,,,,,,,,,,,,,,,,,,,1,0,1,0,19,0,19,0,,,,,,,,,,,,,,,,,,,,,,,,,,,,,,,,,,,,,,,,,,,,,,,,,,,,,,,,,,,,,,,,,,,,,,0,,,,,,,,,,,,,,,,,,,,,,,,,,,,right,1,10,30,40,0,1507.185145,1507.185145,1507.185145,None,None,2,0,1.8718665,,,,,,,,,,,,,,,,,,,10,3,1,2024-10-17_08h26.39.859,uWM_experiment,2022.2.3,59.98667096
,,,,,,,,,,,,,,,,,,,,1,0,1,0,20,0,20,0,,,,,,,,,,,,,,,,,,,,,,,,,,,,,,,,,,,,,,,,,,,,,,,,,,,,,,,,,,,,,,,,,,,,,,0.005,,,,,,,,,,,,,,,,,,,,,,,,,,,,left,0,100,30,130,1,1514.535434,1514.535434,1514.535434,None,None,1,1,0.5456178,,,,,,,,,,,,,,,,,,,10,3,1,2024-10-17_08h26.39.859,uWM_experiment,2022.2.3,59.98667096
,,,,,,,,,,,,,,,,,,,,1,0,1,0,21,0,21,0,,,,,,,,,,,,,,,,,,,,,,,,,,,,,,,,,,,,,,,,,,,,,,,,,,,,,,,,,,,,,,,,,,,,,,0.015,,,,,,,,,,,,,,,,,,,,,,,,,,,,left,1,10,-30,-20,1,1524.352483,1524.352483,1524.352483,None,None,1,1,0.7044296,,,,,,,,,,,,,,,,,,,10,3,1,2024-10-17_08h26.39.859,uWM_experiment,2022.2.3,59.98667096
,,,,,,,,,,,,,,,,,,,,1,0,1,0,22,0,22,0,,,,,,,,,,,,,,,,,,,,,,,,,,,,,,,,,,,,,,,,,,,,,,,,,,,,,,,,,,,,,,,,,,,,,,0,,,,,,,,,,,,,,,,,,,,,,,,,,,,right,0,40,-30,10,0,1530.969397,1530.969397,1530.969397,None,None,1,1,2.4395451,,,,,,,,,,,,,,,,,,,10,3,1,2024-10-17_08h26.39.859,uWM_experiment,2022.2.3,59.98667096
,,,,,,,,,,,,,,,,,,,,1,0,1,0,23,0,23,0,,,,,,,,,,,,,,,,,,,,,,,,,,,,,,,,,,,,,,,,,,,,,,,,,,,,,,,,,,,,,,,,,,,,,,0.025,,,,,,,,,,,,,,,,,,,,,,,,,,,,right,0,70,-30,40,1,1539.053085,1539.053085,1539.053085,None,None,1,1,0.5238376,,,,,,,,,,,,,,,,,,,10,3,1,2024-10-17_08h26.39.859,uWM_experiment,2022.2.3,59.98667096
,,,,,,,,,,,,,,,,,,,,1,0,1,0,,,,,0,0,0,0,,,,,,,,,,,,,,,,,,,,,,,,,,,,,,,,,,,,,,,,,,,,,,,,,,,,,,,,,,,,,,,,,,,,,,,,,,,,,,,,,,,,,,,,,,,,,,,,,,,,,,,,,,,,1539.603063,1539.603063,space,23.9257623,None,None,,,,,,,,,,,,,10,3,1,2024-10-17_08h26.39.859,uWM_experiment,2022.2.3,59.98667096
,,,,,,,,,,,,,,,,,,,,1,0,1,0,,,,,1,0,1,0,,,,,,,,,,,,,,,,,,,,,,,,,,,,,,,,,,,,,,,,,,,,,,,,,,,,,,,,,,,,,,,,,,,,,,,,,,,,,,,,,,,,,,,,,,,,,,,,,,,,,,,,,,,,,,,,,,,,,,,,,,,,,,10,3,1,2024-10-17_08h26.39.859,uWM_experiment,2022.2.3,59.98667096
,,,,,,,,,,,,,,,,,,,,1,0,1,0,,,,,2,0,2,0,,,,,,,,,,,,,,,,,,,,,,,,,,,,,,,,,,,,,,,,,,,,,,,,,,,,,,,,,,,,,,,,,,,,,,,,,,,,,,,,,,,,,,,,,,,,,,,,,,,,,,,,,,,,,,,,,,,,,,,,,,,,,,10,3,1,2024-10-17_08h26.39.859,uWM_experiment,2022.2.3,59.98667096
,,,,,,,,,,,,,,,,,,,,2,0,2,0,0,0,0,0,,,,,,,,,,,,,,,,,,,,,,,,,,,,,,,,,,,,,,,,,,,,,,,,,,,,,,,,,,,,,,,,,,,,,,0.035,,,,,,,,,,,,,,,,,,,,1563.554046,1564.254045,1564.554054,1565.254087,1565.554103,1566.254113,1566.254113,1566.570812,left,0,130,30,160,1,1571.337678,1571.337678,1571.337678,None,None,1,1,1.9510149,,,,,,,None,,,,,,,,,,,,10,3,1,2024-10-17_08h26.39.859,uWM_experiment,2022.2.3,59.98667096
,,,,,,,,,,,,,,,,,,,,2,0,2,0,1,0,1,0,,,,,,,,,,,,,,,,,,,,,,,,,,,,,,,,,,,,,,,,,,,,,,,,,,,,,,,,,,,,,,,,,,,,,,0.045,,,,,,,,,,,,,,,,,,,,,,,,,,,,left,0,70,30,100,1,1579.637997,1579.637997,1579.637997,None,None,2,0,1.1787356,,,,,,,,,,,,,,,,,,,10,3,1,2024-10-17_08h26.39.859,uWM_experiment,2022.2.3,59.98667096
,,,,,,,,,,,,,,,,,,,,2,0,2,0,2,0,2,0,,,,,,,,,,,,,,,,,,,,,,,,,,,,,,,,,,,,,,,,,,,,,,,,,,,,,,,,,,,,,,,,,,,,,,0.035,,,,,,,,,,,,,,,,,,,,,,,,,,,,right,0,70,-30,40,1,1586.638294,1586.638294,1586.638294,None,None,1,1,0.3703271,,,,,,,,,,,,,,,,,,,10,3,1,2024-10-17_08h26.39.859,uWM_experiment,2022.2.3,59.98667096
,,,,,,,,,,,,,,,,,,,,2,0,2,0,3,0,3,0,,,,,,,,,,,,,,,,,,,,,,,,,,,,,,,,,,,,,,,,,,,,,,,,,,,,,,,,,,,,,,,,,,,,,,0,,,,,,,,,,,,,,,,,,,,,,,,,,,,right,0,100,-30,70,0,1592.671869,1592.671869,1592.671869,None,None,1,1,1.0807764,,,,,,,,,,,,,,,,,,,10,3,1,2024-10-17_08h26.39.859,uWM_experiment,2022.2.3,59.98667096
,,,,,,,,,,,,,,,,,,,,2,0,2,0,4,0,4,0,,,,,,,,,,,,,,,,,,,,,,,,,,,,,,,,,,,,,,,,,,,,,,,,,,,,,,,,,,,,,,,,,,,,,,0,,,,,,,,,,,,,,,,,,,,,,,,,,,,right,1,40,30,70,0,1599.5221,1599.5221,1599.5221,None,None,1,1,1.0145829,,,,,,,,,,,,,,,,,,,10,3,1,2024-10-17_08h26.39.859,uWM_experiment,2022.2.3,59.98667096
,,,,,,,,,,,,,,,,,,,,2,0,2,0,5,0,5,0,,,,,,,,,,,,,,,,,,,,,,,,,,,,,,,,,,,,,,,,,,,,,,,,,,,,,,,,,,,,,,,,,,,,,,0.045,,,,,,,,,,,,,,,,,,,,,,,,,,,,left,1,130,-30,100,1,1606.155685,1606.155685,1606.155685,None,None,1,1,1.0450128,,,,,,,,,,,,,,,,,,,10,3,1,2024-10-17_08h26.39.859,uWM_experiment,2022.2.3,59.98667096
,,,,,,,,,,,,,,,,,,,,2,0,2,0,6,0,6,0,,,,,,,,,,,,,,,,,,,,,,,,,,,,,,,,,,,,,,,,,,,,,,,,,,,,,,,,,,,,,,,,,,,,,,0.055,,,,,,,,,,,,,,,,,,,,,,,,,,,,right,1,10,30,40,1,1613.255957,1613.255957,1613.255957,None,None,1,1,0.4486809,,,,,,,,,,,,,,,,,,,10,3,1,2024-10-17_08h26.39.859,uWM_experiment,2022.2.3,59.98667096
,,,,,,,,,,,,,,,,,,,,2,0,2,0,7,0,7,0,,,,,,,,,,,,,,,,,,,,,,,,,,,,,,,,,,,,,,,,,,,,,,,,,,,,,,,,,,,,,,,,,,,,,,0,,,,,,,,,,,,,,,,,,,,,,,,,,,,right,1,70,30,100,0,1619.389548,1619.389548,1619.389548,None,None,1,1,0.386956,,,,,,,,,,,,,,,,,,,10,3,1,2024-10-17_08h26.39.859,uWM_experiment,2022.2.3,59.98667096
,,,,,,,,,,,,,,,,,,,,2,0,2,0,8,0,8,0,,,,,,,,,,,,,,,,,,,,,,,,,,,,,,,,,,,,,,,,,,,,,,,,,,,,,,,,,,,,,,,,,,,,,,0,,,,,,,,,,,,,,,,,,,,,,,,,,,,left,1,160,-30,130,0,1625.706446,1625.706446,1625.706446,None,None,1,1,0.5740942,,,,,,,,,,,,,,,,,,,10,3,1,2024-10-17_08h26.39.859,uWM_experiment,2022.2.3,59.98667096
,,,,,,,,,,,,,,,,,,,,2,0,2,0,9,0,9,0,,,,,,,,,,,,,,,,,,,,,,,,,,,,,,,,,,,,,,,,,,,,,,,,,,,,,,,,,,,,,,,,,,,,,,0,,,,,,,,,,,,,,,,,,,,,,,,,,,,right,0,40,-30,10,0,1631.990061,1631.990061,1631.990061,None,None,1,1,0.5624421,,,,,,,,,,,,,,,,,,,10,3,1,2024-10-17_08h26.39.859,uWM_experiment,2022.2.3,59.98667096
,,,,,,,,,,,,,,,,,,,,2,0,2,0,10,0,10,0,,,,,,,,,,,,,,,,,,,,,,,,,,,,,,,,,,,,,,,,,,,,,,,,,,,,,,,,,,,,,,,,,,,,,,0.065,,,,,,,,,,,,,,,,,,,,,,,,,,,,right,0,100,-30,70,1,1638.173694,1638.173694,1638.173694,None,None,1,1,0.562784,,,,,,,,,,,,,,,,,,,10,3,1,2024-10-17_08h26.39.859,uWM_experiment,2022.2.3,59.98667096
,,,,,,,,,,,,,,,,,,,,2,0,2,0,11,0,11,0,,,,,,,,,,,,,,,,,,,,,,,,,,,,,,,,,,,,,,,,,,,,,,,,,,,,,,,,,,,,,,,,,,,,,,0.075,,,,,,,,,,,,,,,,,,,,,,,,,,,,left,1,130,-30,100,1,1644.557209,1644.557209,1644.557209,None,None,2,0,0.5232134,,,,,,,,,,,,,,,,,,,10,3,1,2024-10-17_08h26.39.859,uWM_experiment,2022.2.3,59.98667096
,,,,,,,,,,,,,,,,,,,,2,0,2,0,12,0,12,0,,,,,,,,,,,,,,,,,,,,,,,,,,,,,,,,,,,,,,,,,,,,,,,,,,,,,,,,,,,,,,,,,,,,,,0.1,,,,,,,,,,,,,,,,,,,,,,,,,,,,left,1,160,-30,130,2,1651.024127,1651.024127,1651.024127,None,None,4,0,0.9682592,,,,,,,,,,,,,,,,,,,10,3,1,2024-10-17_08h26.39.859,uWM_experiment,2022.2.3,59.98667096
,,,,,,,,,,,,,,,,,,,,2,0,2,0,13,0,13,0,,,,,,,,,,,,,,,,,,,,,,,,,,,,,,,,,,,,,,,,,,,,,,,,,,,,,,,,,,,,,,,,,,,,,,0.065,,,,,,,,,,,,,,,,,,,,,,,,,,,,right,0,130,-30,100,1,1657.657716,1657.657716,1657.657716,None,None,2,0,1.0306705,,,,,,,,,,,,,,,,,,,10,3,1,2024-10-17_08h26.39.859,uWM_experiment,2022.2.3,59.98667096
,,,,,,,,,,,,,,,,,,,,2,0,2,0,14,0,14,0,,,,,,,,,,,,,,,,,,,,,,,,,,,,,,,,,,,,,,,,,,,,,,,,,,,,,,,,,,,,,,,,,,,,,,0.055,,,,,,,,,,,,,,,,,,,,,,,,,,,,right,0,70,-30,40,1,1664.307993,1664.307993,1664.307993,None,None,1,1,0.8443917,,,,,,,,,,,,,,,,,,,10,3,1,2024-10-17_08h26.39.859,uWM_experiment,2022.2.3,59.98667096
,,,,,,,,,,,,,,,,,,,,2,0,2,0,15,0,15,0,,,,,,,,,,,,,,,,,,,,,,,,,,,,,,,,,,,,,,,,,,,,,,,,,,,,,,,,,,,,,,,,,,,,,,0.065,,,,,,,,,,,,,,,,,,,,,,,,,,,,right,0,40,-30,10,1,1670.674888,1670.674888,1670.674888,None,None,1,1,0.5415157,,,,,,,,,,,,,,,,,,,10,3,1,2024-10-17_08h26.39.859,uWM_experiment,2022.2.3,59.98667096
,,,,,,,,,,,,,,,,,,,,2,0,2,0,16,0,16,0,,,,,,,,,,,,,,,,,,,,,,,,,,,,,,,,,,,,,,,,,,,,,,,,,,,,,,,,,,,,,,,,,,,,,,0,,,,,,,,,,,,,,,,,,,,,,,,,,,,left,1,10,-30,-20,0,1677.075133,1677.075133,1677.075133,None,None,1,1,0.5731223,,,,,,,,,,,,,,,,,,,10,3,1,2024-10-17_08h26.39.859,uWM_experiment,2022.2.3,59.98667096
,,,,,,,,,,,,,,,,,,,,2,0,2,0,17,0,17,0,,,,,,,,,,,,,,,,,,,,,,,,,,,,,,,,,,,,,,,,,,,,,,,,,,,,,,,,,,,,,,,,,,,,,,0.075,,,,,,,,,,,,,,,,,,,,,,,,,,,,left,1,160,-30,130,1,1683.725429,1683.725429,1683.725429,None,None,1,1,0.4669214,,,,,,,,,,,,,,,,,,,10,3,1,2024-10-17_08h26.39.859,uWM_experiment,2022.2.3,59.98667096
,,,,,,,,,,,,,,,,,,,,2,0,2,0,18,0,18,0,,,,,,,,,,,,,,,,,,,,,,,,,,,,,,,,,,,,,,,,,,,,,,,,,,,,,,,,,,,,,,,,,,,,,,0.085,,,,,,,,,,,,,,,,,,,,,,,,,,,,left,1,160,-30,130,1,1690.342337,1690.342337,1690.342337,None,None,1,1,0.665932,,,,,,,,,,,,,,,,,,,10,3,1,2024-10-17_08h26.39.859,uWM_experiment,2022.2.3,59.98667096
,,,,,,,,,,,,,,,,,,,,2,0,2,0,19,0,19,0,,,,,,,,,,,,,,,,,,,,,,,,,,,,,,,,,,,,,,,,,,,,,,,,,,,,,,,,,,,,,,,,,,,,,,0.095,,,,,,,,,,,,,,,,,,,,,,,,,,,,right,0,70,-30,40,1,1697.559296,1697.559296,1697.559296,None,None,2,0,1.0408589,,,,,,,,,,,,,,,,,,,10,3,1,2024-10-17_08h26.39.859,uWM_experiment,2022.2.3,59.98667096
,,,,,,,,,,,,,,,,,,,,2,0,2,0,20,0,20,0,,,,,,,,,,,,,,,,,,,,,,,,,,,,,,,,,,,,,,,,,,,,,,,,,,,,,,,,,,,,,,,,,,,,,,0.085,,,,,,,,,,,,,,,,,,,,,,,,,,,,left,1,10,-30,-20,1,1704.476238,1704.476238,1704.476238,None,None,1,1,0.3959782,,,,,,,,,,,,,,,,,,,10,3,1,2024-10-17_08h26.39.859,uWM_experiment,2022.2.3,59.98667096
,,,,,,,,,,,,,,,,,,,,2,0,2,0,21,0,21,0,,,,,,,,,,,,,,,,,,,,,,,,,,,,,,,,,,,,,,,,,,,,,,,,,,,,,,,,,,,,,,,,,,,,,,0.095,,,,,,,,,,,,,,,,,,,,,,,,,,,,right,0,40,-30,10,1,1710.726471,1710.726471,1710.726471,None,None,2,0,0.6656765,,,,,,,,,,,,,,,,,,,10,3,1,2024-10-17_08h26.39.859,uWM_experiment,2022.2.3,59.98667096
,,,,,,,,,,,,,,,,,,,,2,0,2,0,22,0,22,0,,,,,,,,,,,,,,,,,,,,,,,,,,,,,,,,,,,,,,,,,,,,,,,,,,,,,,,,,,,,,,,,,,,,,,0.085,,,,,,,,,,,,,,,,,,,,,,,,,,,,right,0,100,-30,70,1,1716.993379,1716.993379,1716.993379,None,None,1,1,0.4067269,,,,,,,,,,,,,,,,,,,10,3,1,2024-10-17_08h26.39.859,uWM_experiment,2022.2.3,59.98667096
,,,,,,,,,,,,,,,,,,,,2,0,2,0,23,0,23,0,,,,,,,,,,,,,,,,,,,,,,,,,,,,,,,,,,,,,,,,,,,,,,,,,,,,,,,,,,,,,,,,,,,,,,0.095,,,,,,,,,,,,,,,,,,,,,,,,,,,,left,1,130,-30,100,1,1723.260308,1723.260308,1723.260308,None,None,1,1,0.6357112,,,,,,,,,,,,,,,,,,,10,3,1,2024-10-17_08h26.39.859,uWM_experiment,2022.2.3,59.98667096
,,,,,,,,,,,,,,,,,,,,2,0,2,0,,,,,0,0,0,0,,,,,,,,,,,,,,,,,,,,,,,,,,,,,,,,,,,,,,,,,,,,,,,,,,,,,,,,,,,,,,,,,,,,,,,,,,,,,,,,,,,,,,,,,,,,,,,,,,,,,,,,,,,,1723.92697,1723.92697,space,20.4730535,space,None,,1744.427794,1744.427794,11.1641501,,,,,,,,,10,3,1,2024-10-17_08h26.39.859,uWM_experiment,2022.2.3,59.98667096
,,,,,,,,,,,,,,,,,,,,2,0,2,0,,,,,1,0,1,0,,,,,,,,,,,,,,,,,,,,,,,,,,,,,,,,,,,,,,,,,,,,,,,,,,,,,,,,,,,,,,,,,,,,,,,,,,,,,,,,,,,,,,,,,,,,,,,,,,,,,,,,,,,,,,,,,,,,,,,,,,,,,,10,3,1,2024-10-17_08h26.39.859,uWM_experiment,2022.2.3,59.98667096
,,,,,,,,,,,,,,,,,,,,2,0,2,0,,,,,2,0,2,0,,,,,,,,,,,,,,,,,,,,,,,,,,,,,,,,,,,,,,,,,,,,,,,,,,,,,,,,,,,,,,,,,,,,,,,,,,,,,,,,,,,,,,,,,,,,,,,,,,,,,,,,,,,,,,,,,,,,,,,,,,,,,,10,3,1,2024-10-17_08h26.39.859,uWM_experiment,2022.2.3,59.98667096
,,,,,,,,,,,,,,,,,,,,3,0,3,0,0,0,0,0,,,,,,,,,,,,,,,,,,,,,,,,,,,,,,,,,,,,,,,,,,,,,,,,,,,,,,,,,,,,,,,,,,,,,,0.1,,,,,,,,,,,,,,,,,,,,1755.611543,1756.311593,1756.611597,1757.311626,1757.611647,1758.311671,1758.311671,1758.628363,left,1,160,-30,130,2,1763.445196,1763.445196,1763.445196,None,None,4,0,1.4587687,,,,,,,None,,,,,,,,,,,,10,3,1,2024-10-17_08h26.39.859,uWM_experiment,2022.2.3,59.98667096
,,,,,,,,,,,,,,,,,,,,3,0,3,0,1,0,1,0,,,,,,,,,,,,,,,,,,,,,,,,,,,,,,,,,,,,,,,,,,,,,,,,,,,,,,,,,,,,,,,,,,,,,,0.105,,,,,,,,,,,,,,,,,,,,,,,,,,,,left,0,40,30,70,1,1771.295532,1771.295532,1771.295532,None,None,2,0,1.1123346,,,,,,,,,,,,,,,,,,,10,3,1,2024-10-17_08h26.39.859,uWM_experiment,2022.2.3,59.98667096
,,,,,,,,,,,,,,,,,,,,3,0,3,0,2,0,2,0,,,,,,,,,,,,,,,,,,,,,,,,,,,,,,,,,,,,,,,,,,,,,,,,,,,,,,,,,,,,,,,,,,,,,,0,,,,,,,,,,,,,,,,,,,,,,,,,,,,right,0,40,-30,10,0,1778.112456,1778.112456,1778.112456,None,None,2,0,1.6073728,,,,,,,,,,,,,,,,,,,10,3,1,2024-10-17_08h26.39.859,uWM_experiment,2022.2.3,59.98667096
,,,,,,,,,,,,,,,,,,,,3,0,3,0,3,0,3,0,,,,,,,,,,,,,,,,,,,,,,,,,,,,,,,,,,,,,,,,,,,,,,,,,,,,,,,,,,,,,,,,,,,,,,0,,,,,,,,,,,,,,,,,,,,,,,,,,,,right,1,70,30,100,0,1785.496077,1785.496077,1785.496077,None,None,2,0,1.2797581,,,,,,,,,,,,,,,,,,,10,3,1,2024-10-17_08h26.39.859,uWM_experiment,2022.2.3,59.98667096
,,,,,,,,,,,,,,,,,,,,3,0,3,0,4,0,4,0,,,,,,,,,,,,,,,,,,,,,,,,,,,,,,,,,,,,,,,,,,,,,,,,,,,,,,,,,,,,,,,,,,,,,,0.095,,,,,,,,,,,,,,,,,,,,,,,,,,,,right,0,10,-30,-20,1,1792.49636,1792.49636,1792.49636,None,None,2,0,0.6154766,,,,,,,,,,,,,,,,,,,10,3,1,2024-10-17_08h26.39.859,uWM_experiment,2022.2.3,59.98667096
,,,,,,,,,,,,,,,,,,,,3,0,3,0,5,0,5,0,,,,,,,,,,,,,,,,,,,,,,,,,,,,,,,,,,,,,,,,,,,,,,,,,,,,,,,,,,,,,,,,,,,,,,0.085,,,,,,,,,,,,,,,,,,,,,,,,,,,,right,0,160,-30,130,1,1798.913268,1798.913268,1798.913268,None,None,2,0,1.5665351,,,,,,,,,,,,,,,,,,,10,3,1,2024-10-17_08h26.39.859,uWM_experiment,2022.2.3,59.98667096
,,,,,,,,,,,,,,,,,,,,3,0,3,0,6,0,6,0,,,,,,,,,,,,,,,,,,,,,,,,,,,,,,,,,,,,,,,,,,,,,,,,,,,,,,,,,,,,,,,,,,,,,,0.075,,,,,,,,,,,,,,,,,,,,,,,,,,,,right,0,70,-30,40,1,1806.413563,1806.413563,1806.413563,None,None,2,0,0.6180855,,,,,,,,,,,,,,,,,,,10,3,1,2024-10-17_08h26.39.859,uWM_experiment,2022.2.3,59.98667096
,,,,,,,,,,,,,,,,,,,,3,0,3,0,7,0,7,0,,,,,,,,,,,,,,,,,,,,,,,,,,,,,,,,,,,,,,,,,,,,,,,,,,,,,,,,,,,,,,,,,,,,,,0,,,,,,,,,,,,,,,,,,,,,,,,,,,,right,1,160,30,190,0,1812.847165,1812.847165,1812.847165,None,None,2,0,1.5844382,,,,,,,,,,,,,,,,,,,10,3,1,2024-10-17_08h26.39.859,uWM_experiment,2022.2.3,59.98667096
,,,,,,,,,,,,,,,,,,,,3,0,3,0,8,0,8,0,,,,,,,,,,,,,,,,,,,,,,,,,,,,,,,,,,,,,,,,,,,,,,,,,,,,,,,,,,,,,,,,,,,,,,0.065,,,,,,,,,,,,,,,,,,,,,,,,,,,,right,0,130,-30,100,1,1820.197441,1820.197441,1820.197441,None,None,2,0,0.8582215,,,,,,,,,,,,,,,,,,,10,3,1,2024-10-17_08h26.39.859,uWM_experiment,2022.2.3,59.98667096
,,,,,,,,,,,,,,,,,,,,3,0,3,0,9,0,9,0,,,,,,,,,,,,,,,,,,,,,,,,,,,,,,,,,,,,,,,,,,,,,,,,,,,,,,,,,,,,,,,,,,,,,,0.055,,,,,,,,,,,,,,,,,,,,,,,,,,,,right,1,160,30,190,1,1826.864377,1826.864377,1826.864377,None,None,2,0,0.9031403,,,,,,,,,,,,,,,,,,,10,3,1,2024-10-17_08h26.39.859,uWM_experiment,2022.2.3,59.98667096
,,,,,,,,,,,,,,,,,,,,3,0,3,0,10,0,10,0,,,,,,,,,,,,,,,,,,,,,,,,,,,,,,,,,,,,,,,,,,,,,,,,,,,,,,,,,,,,,,,,,,,,,,0.045,,,,,,,,,,,,,,,,,,,,,,,,,,,,right,0,100,-30,70,1,1833.731307,1833.731307,1833.731307,None,None,1,1,0.7482667,,,,,,,,,,,,,,,,,,,10,3,1,2024-10-17_08h26.39.859,uWM_experiment,2022.2.3,59.98667096
,,,,,,,,,,,,,,,,,,,,3,0,3,0,11,0,11,0,,,,,,,,,,,,,,,,,,,,,,,,,,,,,,,,,,,,,,,,,,,,,,,,,,,,,,,,,,,,,,,,,,,,,,0.055,,,,,,,,,,,,,,,,,,,,,,,,,,,,right,0,100,-30,70,1,1839.848207,1839.848207,1839.848207,None,None,1,1,0.9113342,,,,,,,,,,,,,,,,,,,10,3,1,2024-10-17_08h26.39.859,uWM_experiment,2022.2.3,59.98667096
,,,,,,,,,,,,,,,,,,,,3,0,3,0,12,0,12,0,,,,,,,,,,,,,,,,,,,,,,,,,,,,,,,,,,,,,,,,,,,,,,,,,,,,,,,,,,,,,,,,,,,,,,0.065,,,,,,,,,,,,,,,,,,,,,,,,,,,,left,1,130,-30,100,1,1846.081773,1846.081773,1846.081773,None,None,1,1,1.1417973,,,,,,,,,,,,,,,,,,,10,3,1,2024-10-17_08h26.39.859,uWM_experiment,2022.2.3,59.98667096
,,,,,,,,,,,,,,,,,,,,3,0,3,0,13,0,13,0,,,,,,,,,,,,,,,,,,,,,,,,,,,,,,,,,,,,,,,,,,,,,,,,,,,,,,,,,,,,,,,,,,,,,,0,,,,,,,,,,,,,,,,,,,,,,,,,,,,left,0,70,30,100,0,1852.965397,1852.965397,1852.965397,None,None,1,1,0.7380148,,,,,,,,,,,,,,,,,,,10,3,1,2024-10-17_08h26.39.859,uWM_experiment,2022.2.3,59.98667096
,,,,,,,,,,,,,,,,,,,,3,0,3,0,14,0,14,0,,,,,,,,,,,,,,,,,,,,,,,,,,,,,,,,,,,,,,,,,,,,,,,,,,,,,,,,,,,,,,,,,,,,,,0.075,,,,,,,,,,,,,,,,,,,,,,,,,,,,right,1,130,30,160,1,1859.182305,1859.182305,1859.182305,None,None,2,0,0.9611806,,,,,,,,,,,,,,,,,,,10,3,1,2024-10-17_08h26.39.859,uWM_experiment,2022.2.3,59.98667096
,,,,,,,,,,,,,,,,,,,,3,0,3,0,15,0,15,0,,,,,,,,,,,,,,,,,,,,,,,,,,,,,,,,,,,,,,,,,,,,,,,,,,,,,,,,,,,,,,,,,,,,,,0.065,,,,,,,,,,,,,,,,,,,,,,,,,,,,left,1,10,-30,-20,1,1866.082577,1866.082577,1866.082577,None,None,2,0,0.9328798,,,,,,,,,,,,,,,,,,,10,3,1,2024-10-17_08h26.39.859,uWM_experiment,2022.2.3,59.98667096
,,,,,,,,,,,,,,,,,,,,3,0,3,0,16,0,16,0,,,,,,,,,,,,,,,,,,,,,,,,,,,,,,,,,,,,,,,,,,,,,,,,,,,,,,,,,,,,,,,,,,,,,,0.055,,,,,,,,,,,,,,,,,,,,,,,,,,,,left,1,160,-30,130,1,1872.649481,1872.649481,1872.649481,None,None,1,1,0.3259804,,,,,,,,,,,,,,,,,,,10,3,1,2024-10-17_08h26.39.859,uWM_experiment,2022.2.3,59.98667096
,,,,,,,,,,,,,,,,,,,,3,0,3,0,17,0,17,0,,,,,,,,,,,,,,,,,,,,,,,,,,,,,,,,,,,,,,,,,,,,,,,,,,,,,,,,,,,,,,,,,,,,,,0.065,,,,,,,,,,,,,,,,,,,,,,,,,,,,right,0,10,-30,-20,1,1878.583067,1878.583067,1878.583067,None,None,1,1,0.5042772,,,,,,,,,,,,,,,,,,,10,3,1,2024-10-17_08h26.39.859,uWM_experiment,2022.2.3,59.98667096
,,,,,,,,,,,,,,,,,,,,3,0,3,0,18,0,18,0,,,,,,,,,,,,,,,,,,,,,,,,,,,,,,,,,,,,,,,,,,,,,,,,,,,,,,,,,,,,,,,,,,,,,,0.075,,,,,,,,,,,,,,,,,,,,,,,,,,,,left,0,70,30,100,1,1885.133328,1885.133328,1885.133328,None,None,2,0,0.410082,,,,,,,,,,,,,,,,,,,10,3,1,2024-10-17_08h26.39.859,uWM_experiment,2022.2.3,59.98667096
,,,,,,,,,,,,,,,,,,,,3,0,3,0,19,0,19,0,,,,,,,,,,,,,,,,,,,,,,,,,,,,,,,,,,,,,,,,,,,,,,,,,,,,,,,,,,,,,,,,,,,,,,0.065,,,,,,,,,,,,,,,,,,,,,,,,,,,,left,1,100,-30,70,1,1891.28358,1891.28358,1891.28358,None,None,2,0,1.1397177,,,,,,,,,,,,,,,,,,,10,3,1,2024-10-17_08h26.39.859,uWM_experiment,2022.2.3,59.98667096
,,,,,,,,,,,,,,,,,,,,3,0,3,0,20,0,20,0,,,,,,,,,,,,,,,,,,,,,,,,,,,,,,,,,,,,,,,,,,,,,,,,,,,,,,,,,,,,,,,,,,,,,,0,,,,,,,,,,,,,,,,,,,,,,,,,,,,right,0,10,-30,-20,0,1898.233848,1898.233848,1898.233848,None,None,2,0,1.7494897,,,,,,,,,,,,,,,,,,,10,3,1,2024-10-17_08h26.39.859,uWM_experiment,2022.2.3,59.98667096
,,,,,,,,,,,,,,,,,,,,3,0,3,0,21,0,21,0,,,,,,,,,,,,,,,,,,,,,,,,,,,,,,,,,,,,,,,,,,,,,,,,,,,,,,,,,,,,,,,,,,,,,,0,,,,,,,,,,,,,,,,,,,,,,,,,,,,right,0,10,-30,-20,0,1905.567472,1905.567472,1905.567472,None,None,1,1,1.9118497,,,,,,,,,,,,,,,,,,,10,3,1,2024-10-17_08h26.39.859,uWM_experiment,2022.2.3,59.98667096
,,,,,,,,,,,,,,,,,,,,3,0,3,0,22,0,22,0,,,,,,,,,,,,,,,,,,,,,,,,,,,,,,,,,,,,,,,,,,,,,,,,,,,,,,,,,,,,,,,,,,,,,,0.055,,,,,,,,,,,,,,,,,,,,,,,,,,,,right,1,10,30,40,1,1912.834419,1912.834419,1912.834419,None,None,2,0,0.5648545,,,,,,,,,,,,,,,,,,,10,3,1,2024-10-17_08h26.39.859,uWM_experiment,2022.2.3,59.98667096
,,,,,,,,,,,,,,,,,,,,3,0,3,0,23,0,23,0,,,,,,,,,,,,,,,,,,,,,,,,,,,,,,,,,,,,,,,,,,,,,,,,,,,,,,,,,,,,,,,,,,,,,,0.045,,,,,,,,,,,,,,,,,,,,,,,,,,,,right,1,40,30,70,1,1920.418046,1920.418046,1920.418046,None,None,1,1,0.9651693,,,,,,,,,,,,,,,,,,,10,3,1,2024-10-17_08h26.39.859,uWM_experiment,2022.2.3,59.98667096
,,,,,,,,,,,,,,,,,,,,3,0,3,0,,,,,0,0,0,0,,,,,,,,,,,,,,,,,,,,,,,,,,,,,,,,,,,,,,,,,,,,,,,,,,,,,,,,,,,,,,,,,,,,,,,,,,,,,,,,,,,,,,,,,,,,,,,,,,,,,,,,,,,,1921.401398,1921.401398,space,14.8857512,None,None,,,,,,,,,,,,,10,3,1,2024-10-17_08h26.39.859,uWM_experiment,2022.2.3,59.98667096
,,,,,,,,,,,,,,,,,,,,3,0,3,0,,,,,1,0,1,0,,,,,,,,,,,,,,,,,,,,,,,,,,,,,,,,,,,,,,,,,,,,,,,,,,,,,,,,,,,,,,,,,,,,,,,,,,,,,,,,,,,,,,,,,,,,,,,,,,,,,,,,,,,,,,,,,,,,,,,,,,,,,,10,3,1,2024-10-17_08h26.39.859,uWM_experiment,2022.2.3,59.98667096
,,,,,,,,,,,,,,,,,,,,3,0,3,0,,,,,2,0,2,0,,,,,,,,,,,,,,,,,,,,,,,,,,,,,,,,,,,,,,,,,,,,,,,,,,,,,,,,,,,,,,,,,,,,,,,,,,,,,,,,,,,,,,,,,,,,,,,,,,,,,,,,,,,,,,,,,,,,,,,,,,,,,,10,3,1,2024-10-17_08h26.39.859,uWM_experiment,2022.2.3,59.98667096
,,,,,,,,,,,,,,,,,,,,4,0,4,0,0,0,0,0,,,,,,,,,,,,,,,,,,,,,,,,,,,,,,,,,,,,,,,,,,,,,,,,,,,,,,,,,,,,,,,,,,,,,,0,,,,,,,,,,,,,,,,,,,,1936.318662,1937.018682,1937.318695,1938.018728,1938.318742,1939.018788,1939.018788,1939.335475,right,0,100,-30,70,0,1946.052391,1946.052391,1946.052391,None,None,2,0,1.1466784,,,,,,,None,,,,,,,,,,,,10,3,1,2024-10-17_08h26.39.859,uWM_experiment,2022.2.3,59.98667096
,,,,,,,,,,,,,,,,,,,,4,0,4,0,1,0,1,0,,,,,,,,,,,,,,,,,,,,,,,,,,,,,,,,,,,,,,,,,,,,,,,,,,,,,,,,,,,,,,,,,,,,,,0.055,,,,,,,,,,,,,,,,,,,,,,,,,,,,left,0,40,30,70,1,1952.919316,1952.919316,1952.919316,None,None,1,1,1.4077078,,,,,,,,,,,,,,,,,,,10,3,1,2024-10-17_08h26.39.859,uWM_experiment,2022.2.3,59.98667096
,,,,,,,,,,,,,,,,,,,,4,0,4,0,2,0,2,0,,,,,,,,,,,,,,,,,,,,,,,,,,,,,,,,,,,,,,,,,,,,,,,,,,,,,,,,,,,,,,,,,,,,,,0.065,,,,,,,,,,,,,,,,,,,,,,,,,,,,left,1,100,-30,70,1,1959.986266,1959.986266,1959.986266,None,None,2,0,0.5247805,,,,,,,,,,,,,,,,,,,10,3,1,2024-10-17_08h26.39.859,uWM_experiment,2022.2.3,59.98667096
,,,,,,,,,,,,,,,,,,,,4,0,4,0,3,0,3,0,,,,,,,,,,,,,,,,,,,,,,,,,,,,,,,,,,,,,,,,,,,,,,,,,,,,,,,,,,,,,,,,,,,,,,0.055,,,,,,,,,,,,,,,,,,,,,,,,,,,,left,1,160,-30,130,1,1966.436524,1966.436524,1966.436524,None,None,2,0,0.6104405,,,,,,,,,,,,,,,,,,,10,3,1,2024-10-17_08h26.39.859,uWM_experiment,2022.2.3,59.98667096
,,,,,,,,,,,,,,,,,,,,4,0,4,0,4,0,4,0,,,,,,,,,,,,,,,,,,,,,,,,,,,,,,,,,,,,,,,,,,,,,,,,,,,,,,,,,,,,,,,,,,,,,,0,,,,,,,,,,,,,,,,,,,,,,,,,,,,left,0,100,30,130,0,1972.686768,1972.686768,1972.686768,None,None,2,0,0.6482294,,,,,,,,,,,,,,,,,,,10,3,1,2024-10-17_08h26.39.859,uWM_experiment,2022.2.3,59.98667096
,,,,,,,,,,,,,,,,,,,,4,0,4,0,5,0,5,0,,,,,,,,,,,,,,,,,,,,,,,,,,,,,,,,,,,,,,,,,,,,,,,,,,,,,,,,,,,,,,,,,,,,,,0.045,,,,,,,,,,,,,,,,,,,,,,,,,,,,left,1,10,-30,-20,1,1979.037014,1979.037014,1979.037014,None,None,2,0,0.537872,,,,,,,,,,,,,,,,,,,10,3,1,2024-10-17_08h26.39.859,uWM_experiment,2022.2.3,59.98667096
,,,,,,,,,,,,,,,,,,,,4,0,4,0,6,0,6,0,,,,,,,,,,,,,,,,,,,,,,,,,,,,,,,,,,,,,,,,,,,,,,,,,,,,,,,,,,,,,,,,,,,,,,0,,,,,,,,,,,,,,,,,,,,,,,,,,,,left,1,10,-30,-20,0,1985.287267,1985.287267,1985.287267,None,None,1,1,1.5116155,,,,,,,,,,,,,,,,,,,10,3,1,2024-10-17_08h26.39.859,uWM_experiment,2022.2.3,59.98667096
,,,,,,,,,,,,,,,,,,,,4,0,4,0,7,0,7,0,,,,,,,,,,,,,,,,,,,,,,,,,,,,,,,,,,,,,,,,,,,,,,,,,,,,,,,,,,,,,,,,,,,,,,0.035,,,,,,,,,,,,,,,,,,,,,,,,,,,,right,1,10,30,40,1,1992.520878,1992.520878,1992.520878,None,None,2,0,0.477959,,,,,,,,,,,,,,,,,,,10,3,1,2024-10-17_08h26.39.859,uWM_experiment,2022.2.3,59.98667096
,,,,,,,,,,,,,,,,,,,,4,0,4,0,8,0,8,0,,,,,,,,,,,,,,,,,,,,,,,,,,,,,,,,,,,,,,,,,,,,,,,,,,,,,,,,,,,,,,,,,,,,,,0.025,,,,,,,,,,,,,,,,,,,,,,,,,,,,right,1,40,30,70,1,1998.721116,1998.721116,1998.721116,None,None,2,0,0.9176575,,,,,,,,,,,,,,,,,,,10,3,1,2024-10-17_08h26.39.859,uWM_experiment,2022.2.3,59.98667096
,,,,,,,,,,,,,,,,,,,,4,0,4,0,9,0,9,0,,,,,,,,,,,,,,,,,,,,,,,,,,,,,,,,,,,,,,,,,,,,,,,,,,,,,,,,,,,,,,,,,,,,,,0.015,,,,,,,,,,,,,,,,,,,,,,,,,,,,left,0,130,30,160,1,2008.75485,2008.75485,2008.75485,None,None,2,0,1.5319422,,,,,,,,,,,,,,,,,,,10,3,1,2024-10-17_08h26.39.859,uWM_experiment,2022.2.3,59.98667096
,,,,,,,,,,,,,,,,,,,,4,0,4,0,10,0,10,0,,,,,,,,,,,,,,,,,,,,,,,,,,,,,,,,,,,,,,,,,,,,,,,,,,,,,,,,,,,,,,,,,,,,,,0.005,,,,,,,,,,,,,,,,,,,,,,,,,,,,left,0,130,30,160,1,2016.13847,2016.13847,2016.13847,None,None,2,0,0.5243363,,,,,,,,,,,,,,,,,,,10,3,1,2024-10-17_08h26.39.859,uWM_experiment,2022.2.3,59.98667096
,,,,,,,,,,,,,,,,,,,,4,0,4,0,11,0,11,0,,,,,,,,,,,,,,,,,,,,,,,,,,,,,,,,,,,,,,,,,,,,,,,,,,,,,,,,,,,,,,,,,,,,,,0.005,,,,,,,,,,,,,,,,,,,,,,,,,,,,left,1,70,-30,40,1,2022.488713,2022.488713,2022.488713,None,None,1,1,0.3580743,,,,,,,,,,,,,,,,,,,10,3,1,2024-10-17_08h26.39.859,uWM_experiment,2022.2.3,59.98667096
,,,,,,,,,,,,,,,,,,,,4,0,4,0,12,0,12,0,,,,,,,,,,,,,,,,,,,,,,,,,,,,,,,,,,,,,,,,,,,,,,,,,,,,,,,,,,,,,,,,,,,,,,0,,,,,,,,,,,,,,,,,,,,,,,,,,,,left,1,130,-30,100,0,2028.488951,2028.488951,2028.488951,None,None,1,1,0.4937275,,,,,,,,,,,,,,,,,,,10,3,1,2024-10-17_08h26.39.859,uWM_experiment,2022.2.3,59.98667096
,,,,,,,,,,,,,,,,,,,,4,0,4,0,13,0,13,0,,,,,,,,,,,,,,,,,,,,,,,,,,,,,,,,,,,,,,,,,,,,,,,,,,,,,,,,,,,,,,,,,,,,,,0,,,,,,,,,,,,,,,,,,,,,,,,,,,,right,0,10,-30,-20,0,2034.622545,2034.622545,2034.622545,None,None,2,0,0.5120753,,,,,,,,,,,,,,,,,,,10,3,1,2024-10-17_08h26.39.859,uWM_experiment,2022.2.3,59.98667096
,,,,,,,,,,,,,,,,,,,,4,0,4,0,14,0,14,0,,,,,,,,,,,,,,,,,,,,,,,,,,,,,,,,,,,,,,,,,,,,,,,,,,,,,,,,,,,,,,,,,,,,,,0.015,,,,,,,,,,,,,,,,,,,,,,,,,,,,right,0,10,-30,-20,1,2040.406081,2040.406081,2040.406081,None,None,1,1,1.1445276,,,,,,,,,,,,,,,,,,,10,3,1,2024-10-17_08h26.39.859,uWM_experiment,2022.2.3,59.98667096
,,,,,,,,,,,,,,,,,,,,4,0,4,0,15,0,15,0,,,,,,,,,,,,,,,,,,,,,,,,,,,,,,,,,,,,,,,,,,,,,,,,,,,,,,,,,,,,,,,,,,,,,,0.025,,,,,,,,,,,,,,,,,,,,,,,,,,,,right,1,160,30,190,1,2047.923057,2047.923057,2047.923057,None,None,2,0,1.8674752,,,,,,,,,,,,,,,,,,,10,3,1,2024-10-17_08h26.39.859,uWM_experiment,2022.2.3,59.98667096
,,,,,,,,,,,,,,,,,,,,4,0,4,0,16,0,16,0,,,,,,,,,,,,,,,,,,,,,,,,,,,,,,,,,,,,,,,,,,,,,,,,,,,,,,,,,,,,,,,,,,,,,,0.015,,,,,,,,,,,,,,,,,,,,,,,,,,,,right,0,70,-30,40,1,2056.423386,2056.423386,2056.423386,None,None,1,1,0.5511399,,,,,,,,,,,,,,,,,,,10,3,1,2024-10-17_08h26.39.859,uWM_experiment,2022.2.3,59.98667096
,,,,,,,,,,,,,,,,,,,,4,0,4,0,17,0,17,0,,,,,,,,,,,,,,,,,,,,,,,,,,,,,,,,,,,,,,,,,,,,,,,,,,,,,,,,,,,,,,,,,,,,,,0.025,,,,,,,,,,,,,,,,,,,,,,,,,,,,left,0,100,30,130,1,2062.59028,2062.59028,2062.59028,None,None,1,1,0.4482704,,,,,,,,,,,,,,,,,,,10,3,1,2024-10-17_08h26.39.859,uWM_experiment,2022.2.3,59.98667096
,,,,,,,,,,,,,,,,,,,,4,0,4,0,18,0,18,0,,,,,,,,,,,,,,,,,,,,,,,,,,,,,,,,,,,,,,,,,,,,,,,,,,,,,,,,,,,,,,,,,,,,,,0,,,,,,,,,,,,,,,,,,,,,,,,,,,,right,0,100,-30,70,0,2068.923882,2068.923882,2068.923882,None,None,1,1,0.3226296,,,,,,,,,,,,,,,,,,,10,3,1,2024-10-17_08h26.39.859,uWM_experiment,2022.2.3,59.98667096
,,,,,,,,,,,,,,,,,,,,4,0,4,0,19,0,19,0,,,,,,,,,,,,,,,,,,,,,,,,,,,,,,,,,,,,,,,,,,,,,,,,,,,,,,,,,,,,,,,,,,,,,,0.035,,,,,,,,,,,,,,,,,,,,,,,,,,,,left,0,100,30,130,1,2075.390791,2075.390791,2075.390791,None,None,2,0,0.8558013,,,,,,,,,,,,,,,,,,,10,3,1,2024-10-17_08h26.39.859,uWM_experiment,2022.2.3,59.98667096
,,,,,,,,,,,,,,,,,,,,4,0,4,0,20,0,20,0,,,,,,,,,,,,,,,,,,,,,,,,,,,,,,,,,,,,,,,,,,,,,,,,,,,,,,,,,,,,,,,,,,,,,,0.025,,,,,,,,,,,,,,,,,,,,,,,,,,,,right,0,130,-30,100,1,2082.04108,2082.04108,2082.04108,None,None,2,0,0.8212884,,,,,,,,,,,,,,,,,,,10,3,1,2024-10-17_08h26.39.859,uWM_experiment,2022.2.3,59.98667096
,,,,,,,,,,,,,,,,,,,,4,0,4,0,21,0,21,0,,,,,,,,,,,,,,,,,,,,,,,,,,,,,,,,,,,,,,,,,,,,,,,,,,,,,,,,,,,,,,,,,,,,,,0.015,,,,,,,,,,,,,,,,,,,,,,,,,,,,left,1,10,-30,-20,1,2088.641318,2088.641318,2088.641318,None,None,2,0,0.6131808,,,,,,,,,,,,,,,,,,,10,3,1,2024-10-17_08h26.39.859,uWM_experiment,2022.2.3,59.98667096
,,,,,,,,,,,,,,,,,,,,4,0,4,0,22,0,22,0,,,,,,,,,,,,,,,,,,,,,,,,,,,,,,,,,,,,,,,,,,,,,,,,,,,,,,,,,,,,,,,,,,,,,,0.005,,,,,,,,,,,,,,,,,,,,,,,,,,,,left,0,100,30,130,1,2096.975003,2096.975003,2096.975003,None,None,1,1,0.5673179,,,,,,,,,,,,,,,,,,,10,3,1,2024-10-17_08h26.39.859,uWM_experiment,2022.2.3,59.98667096
,,,,,,,,,,,,,,,,,,,,4,0,4,0,23,0,23,0,,,,,,,,,,,,,,,,,,,,,,,,,,,,,,,,,,,,,,,,,,,,,,,,,,,,,,,,,,,,,,,,,,,,,,0,,,,,,,,,,,,,,,,,,,,,,,,,,,,right,1,40,30,70,0,2103.708576,2103.708576,2103.708576,None,None,1,1,0.4417463,,,,,,,,,,,,,,,,,,,10,3,1,2024-10-17_08h26.39.859,uWM_experiment,2022.2.3,59.98667096
,,,,,,,,,,,,,,,,,,,,4,0,4,0,,,,,0,0,0,0,,,,,,,,,,,,,,,,,,,,,,,,,,,,,,,,,,,,,,,,,,,,,,,,,,,,,,,,,,,,,,,,,,,,,,,,,,,,,,,,,,,,,,,,,,,,,,,,,,,,,,,,,,,,2104.175247,2104.175247,space,19.2951243,None,None,,,,,,,,,,,,,10,3,1,2024-10-17_08h26.39.859,uWM_experiment,2022.2.3,59.98667096
,,,,,,,,,,,,,,,,,,,,4,0,4,0,,,,,1,0,1,0,,,,,,,,,,,,,,,,,,,,,,,,,,,,,,,,,,,,,,,,,,,,,,,,,,,,,,,,,,,,,,,,,,,,,,,,,,,,,,,,,,,,,,,,,,,,,,,,,,,,,,,,,,,,,,,,,,,,,,,,,,,,,,10,3,1,2024-10-17_08h26.39.859,uWM_experiment,2022.2.3,59.98667096
,,,,,,,,,,,,,,,,,,,,4,0,4,0,,,,,2,0,2,0,,,,,,,,,,,,,,,,,,,,,,,,,,,,,,,,,,,,,,,,,,,,,,,,,,,,,,,,,,,,,,,,,,,,,,,,,,,,,,,,,,,,,,,,,,,,,,,,,,,,,,,,,,,,,,,,,,,,,,,,,,,,,,10,3,1,2024-10-17_08h26.39.859,uWM_experiment,2022.2.3,59.98667096
,,,,,,,,,,,,,,,,,,,,5,0,5,0,0,0,0,0,,,,,,,,,,,,,,,,,,,,,,,,,,,,,,,,,,,,,,,,,,,,,,,,,,,,,,,,,,,,,,,,,,,,,,0.015,,,,,,,,,,,,,,,,,,,,2123.492684,2124.192705,2124.492724,2125.192751,2125.492752,2126.192791,2126.192791,2126.509489,right,1,40,30,70,1,2131.276339,2131.276339,2131.276339,None,None,1,1,0.9698654,,,,,,,None,,,,,,,,,,,,10,3,1,2024-10-17_08h26.39.859,uWM_experiment,2022.2.3,59.98667096
,,,,,,,,,,,,,,,,,,,,5,0,5,0,1,0,1,0,,,,,,,,,,,,,,,,,,,,,,,,,,,,,,,,,,,,,,,,,,,,,,,,,,,,,,,,,,,,,,,,,,,,,,0.025,,,,,,,,,,,,,,,,,,,,,,,,,,,,right,1,100,30,130,1,2138.076595,2138.076595,2138.076595,None,None,2,0,0.8976242,,,,,,,,,,,,,,,,,,,10,3,1,2024-10-17_08h26.39.859,uWM_experiment,2022.2.3,59.98667096
,,,,,,,,,,,,,,,,,,,,5,0,5,0,2,0,2,0,,,,,,,,,,,,,,,,,,,,,,,,,,,,,,,,,,,,,,,,,,,,,,,,,,,,,,,,,,,,,,,,,,,,,,0.015,,,,,,,,,,,,,,,,,,,,,,,,,,,,right,0,160,-30,130,1,2144.693527,2144.693527,2144.693527,None,None,2,0,1.440706,,,,,,,,,,,,,,,,,,,10,3,1,2024-10-17_08h26.39.859,uWM_experiment,2022.2.3,59.98667096
,,,,,,,,,,,,,,,,,,,,5,0,5,0,3,0,3,0,,,,,,,,,,,,,,,,,,,,,,,,,,,,,,,,,,,,,,,,,,,,,,,,,,,,,,,,,,,,,,,,,,,,,,0.005,,,,,,,,,,,,,,,,,,,,,,,,,,,,right,0,100,-30,70,1,2151.910517,2151.910517,2151.910517,None,None,2,0,1.1836796,,,,,,,,,,,,,,,,,,,10,3,1,2024-10-17_08h26.39.859,uWM_experiment,2022.2.3,59.98667096
,,,,,,,,,,,,,,,,,,,,5,0,5,0,4,0,4,0,,,,,,,,,,,,,,,,,,,,,,,,,,,,,,,,,,,,,,,,,,,,,,,,,,,,,,,,,,,,,,,,,,,,,,0.005,,,,,,,,,,,,,,,,,,,,,,,,,,,,right,1,100,30,130,1,2158.894094,2158.894094,2158.894094,None,None,2,0,0.6400066,,,,,,,,,,,,,,,,,,,10,3,1,2024-10-17_08h26.39.859,uWM_experiment,2022.2.3,59.98667096
,,,,,,,,,,,,,,,,,,,,5,0,5,0,5,0,5,0,,,,,,,,,,,,,,,,,,,,,,,,,,,,,,,,,,,,,,,,,,,,,,,,,,,,,,,,,,,,,,,,,,,,,,0.1,,,,,,,,,,,,,,,,,,,,,,,,,,,,right,1,160,30,190,2,2166.344426,2166.344426,2166.344426,None,None,2,0,0.4616446,,,,,,,,,,,,,,,,,,,10,3,1,2024-10-17_08h26.39.859,uWM_experiment,2022.2.3,59.98667096
,,,,,,,,,,,,,,,,,,,,5,0,5,0,6,0,6,0,,,,,,,,,,,,,,,,,,,,,,,,,,,,,,,,,,,,,,,,,,,,,,,,,,,,,,,,,,,,,,,,,,,,,,0.005,,,,,,,,,,,,,,,,,,,,,,,,,,,,right,0,70,-30,40,1,2172.177925,2172.177925,2172.177925,None,None,1,1,0.3720317,,,,,,,,,,,,,,,,,,,10,3,1,2024-10-17_08h26.39.859,uWM_experiment,2022.2.3,59.98667096
,,,,,,,,,,,,,,,,,,,,5,0,5,0,7,0,7,0,,,,,,,,,,,,,,,,,,,,,,,,,,,,,,,,,,,,,,,,,,,,,,,,,,,,,,,,,,,,,,,,,,,,,,0.015,,,,,,,,,,,,,,,,,,,,,,,,,,,,left,0,100,30,130,1,2178.34483,2178.34483,2178.34483,None,None,1,1,0.3251296,,,,,,,,,,,,,,,,,,,10,3,1,2024-10-17_08h26.39.859,uWM_experiment,2022.2.3,59.98667096
,,,,,,,,,,,,,,,,,,,,5,0,5,0,8,0,8,0,,,,,,,,,,,,,,,,,,,,,,,,,,,,,,,,,,,,,,,,,,,,,,,,,,,,,,,,,,,,,,,,,,,,,,0.025,,,,,,,,,,,,,,,,,,,,,,,,,,,,right,0,40,-30,10,1,2184.345118,2184.345118,2184.345118,None,None,1,1,0.3169094,,,,,,,,,,,,,,,,,,,10,3,1,2024-10-17_08h26.39.859,uWM_experiment,2022.2.3,59.98667096
,,,,,,,,,,,,,,,,,,,,5,0,5,0,9,0,9,0,,,,,,,,,,,,,,,,,,,,,,,,,,,,,,,,,,,,,,,,,,,,,,,,,,,,,,,,,,,,,,,,,,,,,,0.1,,,,,,,,,,,,,,,,,,,,,,,,,,,,right,1,10,30,40,2,2190.495301,2190.495301,2190.495301,None,None,4,0,2.4466773,,,,,,,,,,,,,,,,,,,10,3,1,2024-10-17_08h26.39.859,uWM_experiment,2022.2.3,59.98667096
,,,,,,,,,,,,,,,,,,,,5,0,5,0,10,0,10,0,,,,,,,,,,,,,,,,,,,,,,,,,,,,,,,,,,,,,,,,,,,,,,,,,,,,,,,,,,,,,,,,,,,,,,0.035,,,,,,,,,,,,,,,,,,,,,,,,,,,,left,0,130,30,160,1,2198.845662,2198.845662,2198.845662,None,None,2,0,1.9842108,,,,,,,,,,,,,,,,,,,10,3,1,2024-10-17_08h26.39.859,uWM_experiment,2022.2.3,59.98667096
,,,,,,,,,,,,,,,,,,,,5,0,5,0,11,0,11,0,,,,,,,,,,,,,,,,,,,,,,,,,,,,,,,,,,,,,,,,,,,,,,,,,,,,,,,,,,,,,,,,,,,,,,0.025,,,,,,,,,,,,,,,,,,,,,,,,,,,,left,1,70,-30,40,1,2209.07938,2209.07938,2209.07938,None,None,1,1,2.0704523,,,,,,,,,,,,,,,,,,,10,3,1,2024-10-17_08h26.39.859,uWM_experiment,2022.2.3,59.98667096
,,,,,,,,,,,,,,,,,,,,5,0,5,0,12,0,12,0,,,,,,,,,,,,,,,,,,,,,,,,,,,,,,,,,,,,,,,,,,,,,,,,,,,,,,,,,,,,,,,,,,,,,,0.035,,,,,,,,,,,,,,,,,,,,,,,,,,,,left,0,70,30,100,1,2217.92972,2217.92972,2217.92972,None,None,1,1,0.5720261,,,,,,,,,,,,,,,,,,,10,3,1,2024-10-17_08h26.39.859,uWM_experiment,2022.2.3,59.98667096
,,,,,,,,,,,,,,,,,,,,5,0,5,0,13,0,13,0,,,,,,,,,,,,,,,,,,,,,,,,,,,,,,,,,,,,,,,,,,,,,,,,,,,,,,,,,,,,,,,,,,,,,,0.045,,,,,,,,,,,,,,,,,,,,,,,,,,,,right,1,100,30,130,1,2224.446682,2224.446682,2224.446682,None,None,1,1,0.5190627,,,,,,,,,,,,,,,,,,,10,3,1,2024-10-17_08h26.39.859,uWM_experiment,2022.2.3,59.98667096
,,,,,,,,,,,,,,,,,,,,5,0,5,0,14,0,14,0,,,,,,,,,,,,,,,,,,,,,,,,,,,,,,,,,,,,,,,,,,,,,,,,,,,,,,,,,,,,,,,,,,,,,,0.055,,,,,,,,,,,,,,,,,,,,,,,,,,,,right,1,130,30,160,1,2231.563609,2231.563609,2231.563609,None,None,2,0,1.634094,,,,,,,,,,,,,,,,,,,10,3,1,2024-10-17_08h26.39.859,uWM_experiment,2022.2.3,59.98667096
,,,,,,,,,,,,,,,,,,,,5,0,5,0,15,0,15,0,,,,,,,,,,,,,,,,,,,,,,,,,,,,,,,,,,,,,,,,,,,,,,,,,,,,,,,,,,,,,,,,,,,,,,0.045,,,,,,,,,,,,,,,,,,,,,,,,,,,,right,0,100,-30,70,1,2239.730623,2239.730623,2239.730623,None,None,2,0,0.4510258,,,,,,,,,,,,,,,,,,,10,3,1,2024-10-17_08h26.39.859,uWM_experiment,2022.2.3,59.98667096
,,,,,,,,,,,,,,,,,,,,5,0,5,0,16,0,16,0,,,,,,,,,,,,,,,,,,,,,,,,,,,,,,,,,,,,,,,,,,,,,,,,,,,,,,,,,,,,,,,,,,,,,,0,,,,,,,,,,,,,,,,,,,,,,,,,,,,left,0,40,30,70,0,2249.397653,2249.397653,2249.397653,None,None,2,0,1.5121159,,,,,,,,,,,,,,,,,,,10,3,1,2024-10-17_08h26.39.859,uWM_experiment,2022.2.3,59.98667096
,,,,,,,,,,,,,,,,,,,,5,0,5,0,17,0,17,0,,,,,,,,,,,,,,,,,,,,,,,,,,,,,,,,,,,,,,,,,,,,,,,,,,,,,,,,,,,,,,,,,,,,,,0.1,,,,,,,,,,,,,,,,,,,,,,,,,,,,left,0,10,30,40,2,2259.114703,2259.114703,2259.114703,None,None,3,0,2.2989335,,,,,,,,,,,,,,,,,,,10,3,1,2024-10-17_08h26.39.859,uWM_experiment,2022.2.3,59.98667096
,,,,,,,,,,,,,,,,,,,,5,0,5,0,18,0,18,0,,,,,,,,,,,,,,,,,,,,,,,,,,,,,,,,,,,,,,,,,,,,,,,,,,,,,,,,,,,,,,,,,,,,,,0.035,,,,,,,,,,,,,,,,,,,,,,,,,,,,left,1,10,-30,-20,1,2268.931755,2268.931755,2268.931755,None,None,1,1,1.4098833,,,,,,,,,,,,,,,,,,,10,3,1,2024-10-17_08h26.39.859,uWM_experiment,2022.2.3,59.98667096
,,,,,,,,,,,,,,,,,,,,5,0,5,0,19,0,19,0,,,,,,,,,,,,,,,,,,,,,,,,,,,,,,,,,,,,,,,,,,,,,,,,,,,,,,,,,,,,,,,,,,,,,,0.045,,,,,,,,,,,,,,,,,,,,,,,,,,,,left,0,100,30,130,1,2277.382068,2277.382068,2277.382068,None,None,2,0,0.5915048,,,,,,,,,,,,,,,,,,,10,3,1,2024-10-17_08h26.39.859,uWM_experiment,2022.2.3,59.98667096
,,,,,,,,,,,,,,,,,,,,5,0,5,0,20,0,20,0,,,,,,,,,,,,,,,,,,,,,,,,,,,,,,,,,,,,,,,,,,,,,,,,,,,,,,,,,,,,,,,,,,,,,,0.035,,,,,,,,,,,,,,,,,,,,,,,,,,,,left,0,100,30,130,1,2286.332438,2286.332438,2286.332438,None,None,1,1,1.5931244,,,,,,,,,,,,,,,,,,,10,3,1,2024-10-17_08h26.39.859,uWM_experiment,2022.2.3,59.98667096
,,,,,,,,,,,,,,,,,,,,5,0,5,0,21,0,21,0,,,,,,,,,,,,,,,,,,,,,,,,,,,,,,,,,,,,,,,,,,,,,,,,,,,,,,,,,,,,,,,,,,,,,,0.045,,,,,,,,,,,,,,,,,,,,,,,,,,,,right,1,10,30,40,1,2299.06626,2299.06626,2299.06626,None,None,1,1,0.5311949,,,,,,,,,,,,,,,,,,,10,3,1,2024-10-17_08h26.39.859,uWM_experiment,2022.2.3,59.98667096
,,,,,,,,,,,,,,,,,,,,5,0,5,0,22,0,22,0,,,,,,,,,,,,,,,,,,,,,,,,,,,,,,,,,,,,,,,,,,,,,,,,,,,,,,,,,,,,,,,,,,,,,,0.055,,,,,,,,,,,,,,,,,,,,,,,,,,,,right,0,130,-30,100,1,2308.833287,2308.833287,2308.833287,None,None,1,1,0.6200662,,,,,,,,,,,,,,,,,,,10,3,1,2024-10-17_08h26.39.859,uWM_experiment,2022.2.3,59.98667096
,,,,,,,,,,,,,,,,,,,,5,0,5,0,23,0,23,0,,,,,,,,,,,,,,,,,,,,,,,,,,,,,,,,,,,,,,,,,,,,,,,,,,,,,,,,,,,,,,,,,,,,,,0.1,,,,,,,,,,,,,,,,,,,,,,,,,,,,right,1,40,30,70,2,2315.716928,2315.716928,2315.716928,None,None,3,0,1.8644764,,,,,,,,,,,,,,,,,,,10,3,1,2024-10-17_08h26.39.859,uWM_experiment,2022.2.3,59.98667096
,,,,,,,,,,,,,,,,,,,,5,0,5,0,,,,,0,0,0,0,,,,,,,,,,,,,,,,,,,,,,,,,,,,,,,,,,,,,,,,,,,,,,,,,,,,,,,,,,,,,,,,,,,,,,,,,,,,,,,,,,,,,,,,,,,,,,,,,,,,,,,,,,,,2317.600303,2317.600303,space,50.116889,space,None,,2367.735581,2367.735581,6.9416534,,,,,,,,,10,3,1,2024-10-17_08h26.39.859,uWM_experiment,2022.2.3,59.98667096
,,,,,,,,,,,,,,,,,,,,5,0,5,0,,,,,1,0,1,0,,,,,,,,,,,,,,,,,,,,,,,,,,,,,,,,,,,,,,,,,,,,,,,,,,,,,,,,,,,,,,,,,,,,,,,,,,,,,,,,,,,,,,,,,,,,,,,,,,,,,,,,,,,,,,,,,,,,,,,,,,,,,,10,3,1,2024-10-17_08h26.39.859,uWM_experiment,2022.2.3,59.98667096
,,,,,,,,,,,,,,,,,,,,5,0,5,0,,,,,2,0,2,0,,,,,,,,,,,,,,,,,,,,,,,,,,,,,,,,,,,,,,,,,,,,,,,,,,,,,,,,,,,,,,,,,,,,,,,,,,,,,,,,,,,,,,,,,,,,,,,,,,,,,,,,,,,,,,,,,,,,,,,,,,,,,,10,3,1,2024-10-17_08h26.39.859,uWM_experiment,2022.2.3,59.98667096
,,,,,,,,,,,,,,,,,,,,6,0,6,0,0,0,0,0,,,,,,,,,,,,,,,,,,,,,,,,,,,,,,,,,,,,,,,,,,,,,,,,,,,,,,,,,,,,,,,,,,,,,,0.065,,,,,,,,,,,,,,,,,,,,2374.702553,2375.402598,2375.702585,2376.402615,2376.70262,2377.402654,2377.402654,2377.719342,left,1,10,-30,-20,1,2382.519531,2382.519531,2382.519531,None,None,2,0,1.3415248,,,,,,,None,,,,,,,,,,,,10,3,1,2024-10-17_08h26.39.859,uWM_experiment,2022.2.3,59.98667096
,,,,,,,,,,,,,,,,,,,,6,0,6,0,1,0,1,0,,,,,,,,,,,,,,,,,,,,,,,,,,,,,,,,,,,,,,,,,,,,,,,,,,,,,,,,,,,,,,,,,,,,,,0.055,,,,,,,,,,,,,,,,,,,,,,,,,,,,left,0,70,30,100,1,2389.553139,2389.553139,2389.553139,None,None,1,1,1.044005,,,,,,,,,,,,,,,,,,,10,3,1,2024-10-17_08h26.39.859,uWM_experiment,2022.2.3,59.98667096
,,,,,,,,,,,,,,,,,,,,6,0,6,0,2,0,2,0,,,,,,,,,,,,,,,,,,,,,,,,,,,,,,,,,,,,,,,,,,,,,,,,,,,,,,,,,,,,,,,,,,,,,,0.1,,,,,,,,,,,,,,,,,,,,,,,,,,,,left,0,40,30,70,2,2397.73679,2397.73679,2397.73679,None,None,4,0,1.0442625,,,,,,,,,,,,,,,,,,,10,3,1,2024-10-17_08h26.39.859,uWM_experiment,2022.2.3,59.98667096
,,,,,,,,,,,,,,,,,,,,6,0,6,0,3,0,3,0,,,,,,,,,,,,,,,,,,,,,,,,,,,,,,,,,,,,,,,,,,,,,,,,,,,,,,,,,,,,,,,,,,,,,,0.065,,,,,,,,,,,,,,,,,,,,,,,,,,,,right,1,160,30,190,1,2404.55374,2404.55374,2404.55374,None,None,2,0,1.1793268,,,,,,,,,,,,,,,,,,,10,3,1,2024-10-17_08h26.39.859,uWM_experiment,2022.2.3,59.98667096
,,,,,,,,,,,,,,,,,,,,6,0,6,0,4,0,4,0,,,,,,,,,,,,,,,,,,,,,,,,,,,,,,,,,,,,,,,,,,,,,,,,,,,,,,,,,,,,,,,,,,,,,,0.055,,,,,,,,,,,,,,,,,,,,,,,,,,,,left,0,160,30,190,1,2412.470704,2412.470704,2412.470704,None,None,1,1,1.1742821,,,,,,,,,,,,,,,,,,,10,3,1,2024-10-17_08h26.39.859,uWM_experiment,2022.2.3,59.98667096
,,,,,,,,,,,,,,,,,,,,6,0,6,0,5,0,5,0,,,,,,,,,,,,,,,,,,,,,,,,,,,,,,,,,,,,,,,,,,,,,,,,,,,,,,,,,,,,,,,,,,,,,,0.065,,,,,,,,,,,,,,,,,,,,,,,,,,,,right,1,70,30,100,1,2420.187677,2420.187677,2420.187677,None,None,1,1,1.3773496,,,,,,,,,,,,,,,,,,,10,3,1,2024-10-17_08h26.39.859,uWM_experiment,2022.2.3,59.98667096
,,,,,,,,,,,,,,,,,,,,6,0,6,0,6,0,6,0,,,,,,,,,,,,,,,,,,,,,,,,,,,,,,,,,,,,,,,,,,,,,,,,,,,,,,,,,,,,,,,,,,,,,,0.075,,,,,,,,,,,,,,,,,,,,,,,,,,,,right,1,70,30,100,1,2427.387986,2427.387986,2427.387986,None,None,2,0,1.3608495,,,,,,,,,,,,,,,,,,,10,3,1,2024-10-17_08h26.39.859,uWM_experiment,2022.2.3,59.98667096
,,,,,,,,,,,,,,,,,,,,6,0,6,0,7,0,7,0,,,,,,,,,,,,,,,,,,,,,,,,,,,,,,,,,,,,,,,,,,,,,,,,,,,,,,,,,,,,,,,,,,,,,,0.065,,,,,,,,,,,,,,,,,,,,,,,,,,,,left,1,100,-30,70,1,2436.47167,2436.47167,2436.47167,None,None,1,1,1.6530937,,,,,,,,,,,,,,,,,,,10,3,1,2024-10-17_08h26.39.859,uWM_experiment,2022.2.3,59.98667096
,,,,,,,,,,,,,,,,,,,,6,0,6,0,8,0,8,0,,,,,,,,,,,,,,,,,,,,,,,,,,,,,,,,,,,,,,,,,,,,,,,,,,,,,,,,,,,,,,,,,,,,,,0.075,,,,,,,,,,,,,,,,,,,,,,,,,,,,left,1,160,-30,130,1,2443.988623,2443.988623,2443.988623,None,None,2,0,0.6721459,,,,,,,,,,,,,,,,,,,10,3,1,2024-10-17_08h26.39.859,uWM_experiment,2022.2.3,59.98667096
,,,,,,,,,,,,,,,,,,,,6,0,6,0,9,0,9,0,,,,,,,,,,,,,,,,,,,,,,,,,,,,,,,,,,,,,,,,,,,,,,,,,,,,,,,,,,,,,,,,,,,,,,0.065,,,,,,,,,,,,,,,,,,,,,,,,,,,,right,0,70,-30,40,1,2451.572256,2451.572256,2451.572256,None,None,2,0,1.1605963,,,,,,,,,,,,,,,,,,,10,3,1,2024-10-17_08h26.39.859,uWM_experiment,2022.2.3,59.98667096
,,,,,,,,,,,,,,,,,,,,6,0,6,0,10,0,10,0,,,,,,,,,,,,,,,,,,,,,,,,,,,,,,,,,,,,,,,,,,,,,,,,,,,,,,,,,,,,,,,,,,,,,,0.055,,,,,,,,,,,,,,,,,,,,,,,,,,,,left,0,160,30,190,1,2460.072568,2460.072568,2460.072568,None,None,1,1,1.2361205,,,,,,,,,,,,,,,,,,,10,3,1,2024-10-17_08h26.39.859,uWM_experiment,2022.2.3,59.98667096
,,,,,,,,,,,,,,,,,,,,6,0,6,0,11,0,11,0,,,,,,,,,,,,,,,,,,,,,,,,,,,,,,,,,,,,,,,,,,,,,,,,,,,,,,,,,,,,,,,,,,,,,,0.065,,,,,,,,,,,,,,,,,,,,,,,,,,,,right,0,10,-30,-20,1,2470.539654,2470.539654,2470.539654,None,None,1,1,1.8250775,,,,,,,,,,,,,,,,,,,10,3,1,2024-10-17_08h26.39.859,uWM_experiment,2022.2.3,59.98667096
,,,,,,,,,,,,,,,,,,,,6,0,6,0,12,0,12,0,,,,,,,,,,,,,,,,,,,,,,,,,,,,,,,,,,,,,,,,,,,,,,,,,,,,,,,,,,,,,,,,,,,,,,0.075,,,,,,,,,,,,,,,,,,,,,,,,,,,,left,1,160,-30,130,1,2478.456627,2478.456627,2478.456627,None,None,2,0,1.0839592,,,,,,,,,,,,,,,,,,,10,3,1,2024-10-17_08h26.39.859,uWM_experiment,2022.2.3,59.98667096
,,,,,,,,,,,,,,,,,,,,6,0,6,0,13,0,13,0,,,,,,,,,,,,,,,,,,,,,,,,,,,,,,,,,,,,,,,,,,,,,,,,,,,,,,,,,,,,,,,,,,,,,,0,,,,,,,,,,,,,,,,,,,,,,,,,,,,left,0,70,30,100,0,2485.74023,2485.74023,2485.74023,None,None,1,1,0.3443604,,,,,,,,,,,,,,,,,,,10,3,1,2024-10-17_08h26.39.859,uWM_experiment,2022.2.3,59.98667096
,,,,,,,,,,,,,,,,,,,,6,0,6,0,14,0,14,0,,,,,,,,,,,,,,,,,,,,,,,,,,,,,,,,,,,,,,,,,,,,,,,,,,,,,,,,,,,,,,,,,,,,,,0.065,,,,,,,,,,,,,,,,,,,,,,,,,,,,right,1,40,30,70,1,2492.24052,2492.24052,2492.24052,None,None,1,1,0.2440737,,,,,,,,,,,,,,,,,,,10,3,1,2024-10-17_08h26.39.859,uWM_experiment,2022.2.3,59.98667096
,,,,,,,,,,,,,,,,,,,,6,0,6,0,15,0,15,0,,,,,,,,,,,,,,,,,,,,,,,,,,,,,,,,,,,,,,,,,,,,,,,,,,,,,,,,,,,,,,,,,,,,,,0.075,,,,,,,,,,,,,,,,,,,,,,,,,,,,right,1,160,30,190,1,2499.774134,2499.774134,2499.774134,None,None,2,0,0.4543682,,,,,,,,,,,,,,,,,,,10,3,1,2024-10-17_08h26.39.859,uWM_experiment,2022.2.3,59.98667096
,,,,,,,,,,,,,,,,,,,,6,0,6,0,16,0,16,0,,,,,,,,,,,,,,,,,,,,,,,,,,,,,,,,,,,,,,,,,,,,,,,,,,,,,,,,,,,,,,,,,,,,,,0,,,,,,,,,,,,,,,,,,,,,,,,,,,,left,0,160,30,190,0,2509.857882,2509.857882,2509.857882,None,None,1,1,4.3385393,,,,,,,,,,,,,,,,,,,10,3,1,2024-10-17_08h26.39.859,uWM_experiment,2022.2.3,59.98667096
,,,,,,,,,,,,,,,,,,,,6,0,6,0,17,0,17,0,,,,,,,,,,,,,,,,,,,,,,,,,,,,,,,,,,,,,,,,,,,,,,,,,,,,,,,,,,,,,,,,,,,,,,0,,,,,,,,,,,,,,,,,,,,,,,,,,,,right,0,40,-30,10,0,2520.274925,2520.274925,2520.274925,None,None,1,1,0.3295558,,,,,,,,,,,,,,,,,,,10,3,1,2024-10-17_08h26.39.859,uWM_experiment,2022.2.3,59.98667096
,,,,,,,,,,,,,,,,,,,,6,0,6,0,18,0,18,0,,,,,,,,,,,,,,,,,,,,,,,,,,,,,,,,,,,,,,,,,,,,,,,,,,,,,,,,,,,,,,,,,,,,,,0.065,,,,,,,,,,,,,,,,,,,,,,,,,,,,left,1,40,-30,10,1,2526.49185,2526.49185,2526.49185,None,None,1,1,0.4005737,,,,,,,,,,,,,,,,,,,10,3,1,2024-10-17_08h26.39.859,uWM_experiment,2022.2.3,59.98667096
,,,,,,,,,,,,,,,,,,,,6,0,6,0,19,0,19,0,,,,,,,,,,,,,,,,,,,,,,,,,,,,,,,,,,,,,,,,,,,,,,,,,,,,,,,,,,,,,,,,,,,,,,0,,,,,,,,,,,,,,,,,,,,,,,,,,,,left,1,160,-30,130,0,2536.242237,2536.242237,2536.242237,None,None,1,1,0.3781192,,,,,,,,,,,,,,,,,,,10,3,1,2024-10-17_08h26.39.859,uWM_experiment,2022.2.3,59.98667096
,,,,,,,,,,,,,,,,,,,,6,0,6,0,20,0,20,0,,,,,,,,,,,,,,,,,,,,,,,,,,,,,,,,,,,,,,,,,,,,,,,,,,,,,,,,,,,,,,,,,,,,,,0.075,,,,,,,,,,,,,,,,,,,,,,,,,,,,right,0,40,-30,10,1,2542.225799,2542.225799,2542.225799,None,None,1,1,0.554502,,,,,,,,,,,,,,,,,,,10,3,1,2024-10-17_08h26.39.859,uWM_experiment,2022.2.3,59.98667096
,,,,,,,,,,,,,,,,,,,,6,0,6,0,21,0,21,0,,,,,,,,,,,,,,,,,,,,,,,,,,,,,,,,,,,,,,,,,,,,,,,,,,,,,,,,,,,,,,,,,,,,,,0.085,,,,,,,,,,,,,,,,,,,,,,,,,,,,right,1,160,30,190,1,2548.392737,2548.392737,2548.392737,None,None,1,1,0.8755912,,,,,,,,,,,,,,,,,,,10,3,1,2024-10-17_08h26.39.859,uWM_experiment,2022.2.3,59.98667096
,,,,,,,,,,,,,,,,,,,,6,0,6,0,22,0,22,0,,,,,,,,,,,,,,,,,,,,,,,,,,,,,,,,,,,,,,,,,,,,,,,,,,,,,,,,,,,,,,,,,,,,,,0.095,,,,,,,,,,,,,,,,,,,,,,,,,,,,right,0,70,-30,40,1,2554.859633,2554.859633,2554.859633,None,None,2,0,0.8086644,,,,,,,,,,,,,,,,,,,10,3,1,2024-10-17_08h26.39.859,uWM_experiment,2022.2.3,59.98667096
,,,,,,,,,,,,,,,,,,,,6,0,6,0,23,0,23,0,,,,,,,,,,,,,,,,,,,,,,,,,,,,,,,,,,,,,,,,,,,,,,,,,,,,,,,,,,,,,,,,,,,,,,0,,,,,,,,,,,,,,,,,,,,,,,,,,,,left,0,160,30,190,0,2563.326615,2563.326615,2563.326615,None,None,1,1,1.2856052,,,,,,,,,,,,,,,,,,,10,3,1,2024-10-17_08h26.39.859,uWM_experiment,2022.2.3,59.98667096
,,,,,,,,,,,,,,,,,,,,6,0,6,0,,,,,0,0,0,0,,,,,,,,,,,,,,,,,,,,,,,,,,,,,,,,,,,,,,,,,,,,,,,,,,,,,,,,,,,,,,,,,,,,,,,,,,,,,,,,,,,,,,,,,,,,,,,,,,,,,,,,,,,,2564.643335,2564.643335,space,47.6728432,None,space,,,,,2612.345209,2612.345209,13.554776,,,,,,10,3,1,2024-10-17_08h26.39.859,uWM_experiment,2022.2.3,59.98667096
,,,,,,,,,,,,,,,,,,,,6,0,6,0,,,,,1,0,1,0,,,,,,,,,,,,,,,,,,,,,,,,,,,,,,,,,,,,,,,,,,,,,,,,,,,,,,,,,,,,,,,,,,,,,,,,,,,,,,,,,,,,,,,,,,,,,,,,,,,,,,,,,,,,,,,,,,,,,,,,,,,,,,10,3,1,2024-10-17_08h26.39.859,uWM_experiment,2022.2.3,59.98667096
,,,,,,,,,,,,,,,,,,,,6,0,6,0,,,,,2,0,2,0,,,,,,,,,,,,,,,,,,,,,,,,,,,,,,,,,,,,,,,,,,,,,,,,,,,,,,,,,,,,,,,,,,,,,,,,,,,,,,,,,,,,,,,,,,,,,,,,,,,,,,,,,,,,,,,,,,,,,,,,,,,,,,10,3,1,2024-10-17_08h26.39.859,uWM_experiment,2022.2.3,59.98667096
,,,,,,,,,,,,,,,,,,,,7,0,7,0,0,0,0,0,,,,,,,,,,,,,,,,,,,,,,,,,,,,,,,,,,,,,,,,,,,,,,,,,,,,,,,,,,,,,,,,,,,,,,0,,,,,,,,,,,,,,,,,,,,2641.71304,2642.413055,2642.69641,2643.396415,2643.696441,2644.396466,2644.396466,2644.713183,right,1,10,30,40,0,2649.480017,2649.480017,2649.480017,None,None,1,1,1.019817,,,,,,,space,,,,,,,2635.562796,2635.562796,6.1211781,,,10,3,1,2024-10-17_08h26.39.859,uWM_experiment,2022.2.3,59.98667096
,,,,,,,,,,,,,,,,,,,,7,0,7,0,1,0,1,0,,,,,,,,,,,,,,,,,,,,,,,,,,,,,,,,,,,,,,,,,,,,,,,,,,,,,,,,,,,,,,,,,,,,,,0.085,,,,,,,,,,,,,,,,,,,,,,,,,,,,left,1,130,-30,100,1,2656.430302,2656.430302,2656.430302,None,None,2,0,1.30967,,,,,,,,,,,,,,,,,,,10,3,1,2024-10-17_08h26.39.859,uWM_experiment,2022.2.3,59.98667096
,,,,,,,,,,,,,,,,,,,,7,0,7,0,2,0,2,0,,,,,,,,,,,,,,,,,,,,,,,,,,,,,,,,,,,,,,,,,,,,,,,,,,,,,,,,,,,,,,,,,,,,,,0.075,,,,,,,,,,,,,,,,,,,,,,,,,,,,left,1,160,-30,130,1,2663.447225,2663.447225,2663.447225,None,None,1,1,0.5086064,,,,,,,,,,,,,,,,,,,10,3,1,2024-10-17_08h26.39.859,uWM_experiment,2022.2.3,59.98667096
,,,,,,,,,,,,,,,,,,,,7,0,7,0,3,0,3,0,,,,,,,,,,,,,,,,,,,,,,,,,,,,,,,,,,,,,,,,,,,,,,,,,,,,,,,,,,,,,,,,,,,,,,0.085,,,,,,,,,,,,,,,,,,,,,,,,,,,,right,1,70,30,100,1,2670.447512,2670.447512,2670.447512,None,None,2,0,1.5003565,,,,,,,,,,,,,,,,,,,10,3,1,2024-10-17_08h26.39.859,uWM_experiment,2022.2.3,59.98667096
,,,,,,,,,,,,,,,,,,,,7,0,7,0,4,0,4,0,,,,,,,,,,,,,,,,,,,,,,,,,,,,,,,,,,,,,,,,,,,,,,,,,,,,,,,,,,,,,,,,,,,,,,0.1,,,,,,,,,,,,,,,,,,,,,,,,,,,,right,1,10,30,40,2,2677.831129,2677.831129,2677.831129,None,None,4,0,1.4525971,,,,,,,,,,,,,,,,,,,10,3,1,2024-10-17_08h26.39.859,uWM_experiment,2022.2.3,59.98667096
,,,,,,,,,,,,,,,,,,,,7,0,7,0,5,0,5,0,,,,,,,,,,,,,,,,,,,,,,,,,,,,,,,,,,,,,,,,,,,,,,,,,,,,,,,,,,,,,,,,,,,,,,0.1,,,,,,,,,,,,,,,,,,,,,,,,,,,,right,1,10,30,40,2,2685.564746,2685.564746,2685.564746,None,None,4,0,1.0469539,,,,,,,,,,,,,,,,,,,10,3,1,2024-10-17_08h26.39.859,uWM_experiment,2022.2.3,59.98667096
,,,,,,,,,,,,,,,,,,,,7,0,7,0,6,0,6,0,,,,,,,,,,,,,,,,,,,,,,,,,,,,,,,,,,,,,,,,,,,,,,,,,,,,,,,,,,,,,,,,,,,,,,0.075,,,,,,,,,,,,,,,,,,,,,,,,,,,,left,1,130,-30,100,1,2693.34839,2693.34839,2693.34839,None,None,2,0,0.7512522,,,,,,,,,,,,,,,,,,,10,3,1,2024-10-17_08h26.39.859,uWM_experiment,2022.2.3,59.98667096
,,,,,,,,,,,,,,,,,,,,7,0,7,0,7,0,7,0,,,,,,,,,,,,,,,,,,,,,,,,,,,,,,,,,,,,,,,,,,,,,,,,,,,,,,,,,,,,,,,,,,,,,,0.065,,,,,,,,,,,,,,,,,,,,,,,,,,,,left,0,10,30,40,1,2703.448807,2703.448807,2703.448807,None,None,1,1,0.8268046,,,,,,,,,,,,,,,,,,,10,3,1,2024-10-17_08h26.39.859,uWM_experiment,2022.2.3,59.98667096
,,,,,,,,,,,,,,,,,,,,7,0,7,0,8,0,8,0,,,,,,,,,,,,,,,,,,,,,,,,,,,,,,,,,,,,,,,,,,,,,,,,,,,,,,,,,,,,,,,,,,,,,,0.075,,,,,,,,,,,,,,,,,,,,,,,,,,,,left,1,10,-30,-20,1,2710.749079,2710.749079,2710.749079,None,None,2,0,0.8065594,,,,,,,,,,,,,,,,,,,10,3,1,2024-10-17_08h26.39.859,uWM_experiment,2022.2.3,59.98667096
,,,,,,,,,,,,,,,,,,,,7,0,7,0,9,0,9,0,,,,,,,,,,,,,,,,,,,,,,,,,,,,,,,,,,,,,,,,,,,,,,,,,,,,,,,,,,,,,,,,,,,,,,0.065,,,,,,,,,,,,,,,,,,,,,,,,,,,,left,0,70,30,100,1,2718.999408,2718.999408,2718.999408,None,None,2,0,1.6761517,,,,,,,,,,,,,,,,,,,10,3,1,2024-10-17_08h26.39.859,uWM_experiment,2022.2.3,59.98667096
,,,,,,,,,,,,,,,,,,,,7,0,7,0,10,0,10,0,,,,,,,,,,,,,,,,,,,,,,,,,,,,,,,,,,,,,,,,,,,,,,,,,,,,,,,,,,,,,,,,,,,,,,0.055,,,,,,,,,,,,,,,,,,,,,,,,,,,,right,0,100,-30,70,1,2726.616384,2726.616384,2726.616384,None,None,2,0,1.0191497,,,,,,,,,,,,,,,,,,,10,3,1,2024-10-17_08h26.39.859,uWM_experiment,2022.2.3,59.98667096
,,,,,,,,,,,,,,,,,,,,7,0,7,0,11,0,11,0,,,,,,,,,,,,,,,,,,,,,,,,,,,,,,,,,,,,,,,,,,,,,,,,,,,,,,,,,,,,,,,,,,,,,,0,,,,,,,,,,,,,,,,,,,,,,,,,,,,right,0,160,-30,130,0,2733.399958,2733.399958,2733.399958,None,None,2,0,0.6354864,,,,,,,,,,,,,,,,,,,10,3,1,2024-10-17_08h26.39.859,uWM_experiment,2022.2.3,59.98667096
,,,,,,,,,,,,,,,,,,,,7,0,7,0,12,0,12,0,,,,,,,,,,,,,,,,,,,,,,,,,,,,,,,,,,,,,,,,,,,,,,,,,,,,,,,,,,,,,,,,,,,,,,0,,,,,,,,,,,,,,,,,,,,,,,,,,,,left,0,40,30,70,0,2739.666882,2739.666882,2739.666882,None,None,2,0,0.9766217,,,,,,,,,,,,,,,,,,,10,3,1,2024-10-17_08h26.39.859,uWM_experiment,2022.2.3,59.98667096
,,,,,,,,,,,,,,,,,,,,7,0,7,0,13,0,13,0,,,,,,,,,,,,,,,,,,,,,,,,,,,,,,,,,,,,,,,,,,,,,,,,,,,,,,,,,,,,,,,,,,,,,,0.045,,,,,,,,,,,,,,,,,,,,,,,,,,,,right,1,100,30,130,1,2746.45048,2746.45048,2746.45048,None,None,2,0,1.2329621,,,,,,,,,,,,,,,,,,,10,3,1,2024-10-17_08h26.39.859,uWM_experiment,2022.2.3,59.98667096
,,,,,,,,,,,,,,,,,,,,7,0,7,0,14,0,14,0,,,,,,,,,,,,,,,,,,,,,,,,,,,,,,,,,,,,,,,,,,,,,,,,,,,,,,,,,,,,,,,,,,,,,,0,,,,,,,,,,,,,,,,,,,,,,,,,,,,left,0,10,30,40,0,2758.767636,2758.767636,2758.767636,None,None,1,1,1.2278103,,,,,,,,,,,,,,,,,,,10,3,1,2024-10-17_08h26.39.859,uWM_experiment,2022.2.3,59.98667096
,,,,,,,,,,,,,,,,,,,,7,0,7,0,15,0,15,0,,,,,,,,,,,,,,,,,,,,,,,,,,,,,,,,,,,,,,,,,,,,,,,,,,,,,,,,,,,,,,,,,,,,,,0,,,,,,,,,,,,,,,,,,,,,,,,,,,,left,1,40,-30,10,0,2765.451231,2765.451231,2765.451231,None,None,2,0,1.2161919,,,,,,,,,,,,,,,,,,,10,3,1,2024-10-17_08h26.39.859,uWM_experiment,2022.2.3,59.98667096
,,,,,,,,,,,,,,,,,,,,7,0,7,0,16,0,16,0,,,,,,,,,,,,,,,,,,,,,,,,,,,,,,,,,,,,,,,,,,,,,,,,,,,,,,,,,,,,,,,,,,,,,,0.1,,,,,,,,,,,,,,,,,,,,,,,,,,,,right,1,40,30,70,2,2772.95152,2772.95152,2772.95152,None,None,4,0,0.7158174,,,,,,,,,,,,,,,,,,,10,3,1,2024-10-17_08h26.39.859,uWM_experiment,2022.2.3,59.98667096
,,,,,,,,,,,,,,,,,,,,7,0,7,0,17,0,17,0,,,,,,,,,,,,,,,,,,,,,,,,,,,,,,,,,,,,,,,,,,,,,,,,,,,,,,,,,,,,,,,,,,,,,,0.035,,,,,,,,,,,,,,,,,,,,,,,,,,,,right,1,10,30,40,1,2780.085161,2780.085161,2780.085161,None,None,2,0,0.7341355,,,,,,,,,,,,,,,,,,,10,3,1,2024-10-17_08h26.39.859,uWM_experiment,2022.2.3,59.98667096
,,,,,,,,,,,,,,,,,,,,7,0,7,0,18,0,18,0,,,,,,,,,,,,,,,,,,,,,,,,,,,,,,,,,,,,,,,,,,,,,,,,,,,,,,,,,,,,,,,,,,,,,,0.025,,,,,,,,,,,,,,,,,,,,,,,,,,,,right,0,100,-30,70,1,2787.085413,2787.085413,2787.085413,None,None,2,0,0.9578533,,,,,,,,,,,,,,,,,,,10,3,1,2024-10-17_08h26.39.859,uWM_experiment,2022.2.3,59.98667096
,,,,,,,,,,,,,,,,,,,,7,0,7,0,19,0,19,0,,,,,,,,,,,,,,,,,,,,,,,,,,,,,,,,,,,,,,,,,,,,,,,,,,,,,,,,,,,,,,,,,,,,,,0,,,,,,,,,,,,,,,,,,,,,,,,,,,,left,1,40,-30,10,0,2795.619082,2795.619082,2795.619082,None,None,1,1,1.5840487,,,,,,,,,,,,,,,,,,,10,3,1,2024-10-17_08h26.39.859,uWM_experiment,2022.2.3,59.98667096
,,,,,,,,,,,,,,,,,,,,7,0,7,0,20,0,20,0,,,,,,,,,,,,,,,,,,,,,,,,,,,,,,,,,,,,,,,,,,,,,,,,,,,,,,,,,,,,,,,,,,,,,,0.015,,,,,,,,,,,,,,,,,,,,,,,,,,,,left,1,160,-30,130,1,2805.786145,2805.786145,2805.786145,None,None,1,1,0.5369899,,,,,,,,,,,,,,,,,,,10,3,1,2024-10-17_08h26.39.859,uWM_experiment,2022.2.3,59.98667096
,,,,,,,,,,,,,,,,,,,,7,0,7,0,21,0,21,0,,,,,,,,,,,,,,,,,,,,,,,,,,,,,,,,,,,,,,,,,,,,,,,,,,,,,,,,,,,,,,,,,,,,,,0,,,,,,,,,,,,,,,,,,,,,,,,,,,,right,1,160,30,190,0,2811.969748,2811.969748,2811.969748,None,None,2,0,0.8734561,,,,,,,,,,,,,,,,,,,10,3,1,2024-10-17_08h26.39.859,uWM_experiment,2022.2.3,59.98667096
,,,,,,,,,,,,,,,,,,,,7,0,7,0,22,0,22,0,,,,,,,,,,,,,,,,,,,,,,,,,,,,,,,,,,,,,,,,,,,,,,,,,,,,,,,,,,,,,,,,,,,,,,0.025,,,,,,,,,,,,,,,,,,,,,,,,,,,,left,1,130,-30,100,1,2818.553318,2818.553318,2818.553318,None,None,1,1,0.7778457,,,,,,,,,,,,,,,,,,,10,3,1,2024-10-17_08h26.39.859,uWM_experiment,2022.2.3,59.98667096
,,,,,,,,,,,,,,,,,,,,7,0,7,0,23,0,23,0,,,,,,,,,,,,,,,,,,,,,,,,,,,,,,,,,,,,,,,,,,,,,,,,,,,,,,,,,,,,,,,,,,,,,,0.035,,,,,,,,,,,,,,,,,,,,,,,,,,,,right,0,130,-30,100,1,2825.13692,2825.13692,2825.13692,None,None,1,1,0.7221206,,,,,,,,,,,,,,,,,,,10,3,1,2024-10-17_08h26.39.859,uWM_experiment,2022.2.3,59.98667096
,,,,,,,,,,,,,,,,,,,,7,0,7,0,,,,,0,0,0,0,,,,,,,,,,,,,,,,,,,,,,,,,,,,,,,,,,,,,,,,,,,,,,,,,,,,,,,,,,,,,,,,,,,,,,,,,,,,,,,,,,,,,,,,,,,,,,,,,,,,,,,,,,,,2825.886923,2825.886923,space,29.9160639,None,None,,,,,,,,,,,,,10,3,1,2024-10-17_08h26.39.859,uWM_experiment,2022.2.3,59.98667096
,,,,,,,,,,,,,,,,,,,,7,0,7,0,,,,,1,0,1,0,,,,,,,,,,,,,,,,,,,,,,,,,,,,,,,,,,,,,,,,,,,,,,,,,,,,,,,,,,,,,,,,,,,,,,,,,,,,,,,,,,,,,,,,,,,,,,,,,,,,,,,,,,,,,,,,,,,,,,,,,,,,,,10,3,1,2024-10-17_08h26.39.859,uWM_experiment,2022.2.3,59.98667096
,,,,,,,,,,,,,,,,,,,,7,0,7,0,,,,,2,0,2,0,,,,,,,,,,,,,,,,,,,,,,,,,,,,,,,,,,,,,,,,,,,,,,,,,,,,,,,,,,,,,,,,,,,,,,,,,,,,,,,,,,,,,,,,,,,,,,,,,,,,,,,,,,,,,,,,,,,,,,,,,,,,,,10,3,1,2024-10-17_08h26.39.859,uWM_experiment,2022.2.3,59.98667096
,,,,,,,,,,,,,,,,,,,,8,0,8,0,0,0,0,0,,,,,,,,,,,,,,,,,,,,,,,,,,,,,,,,,,,,,,,,,,,,,,,,,,,,,,,,,,,,,,,,,,,,,,0.045,,,,,,,,,,,,,,,,,,,,2855.821444,2856.521458,2856.821462,2857.521503,2857.821526,2858.521553,2858.521553,2858.838251,left,1,160,-30,130,1,2864.021765,2864.021765,2864.021765,None,None,2,0,2.6691187,,,,,,,None,,,,,,,,,,,,10,3,1,2024-10-17_08h26.39.859,uWM_experiment,2022.2.3,59.98667096
,,,,,,,,,,,,,,,,,,,,8,0,8,0,1,0,1,0,,,,,,,,,,,,,,,,,,,,,,,,,,,,,,,,,,,,,,,,,,,,,,,,,,,,,,,,,,,,,,,,,,,,,,0,,,,,,,,,,,,,,,,,,,,,,,,,,,,right,1,100,30,130,0,2872.588775,2872.588775,2872.588775,None,None,2,0,0.8540526,,,,,,,,,,,,,,,,,,,10,3,1,2024-10-17_08h26.39.859,uWM_experiment,2022.2.3,59.98667096
,,,,,,,,,,,,,,,,,,,,8,0,8,0,2,0,2,0,,,,,,,,,,,,,,,,,,,,,,,,,,,,,,,,,,,,,,,,,,,,,,,,,,,,,,,,,,,,,,,,,,,,,,0.035,,,,,,,,,,,,,,,,,,,,,,,,,,,,right,0,130,-30,100,1,2879.022352,2879.022352,2879.022352,None,None,2,0,0.7006954,,,,,,,,,,,,,,,,,,,10,3,1,2024-10-17_08h26.39.859,uWM_experiment,2022.2.3,59.98667096
,,,,,,,,,,,,,,,,,,,,8,0,8,0,3,0,3,0,,,,,,,,,,,,,,,,,,,,,,,,,,,,,,,,,,,,,,,,,,,,,,,,,,,,,,,,,,,,,,,,,,,,,,0.025,,,,,,,,,,,,,,,,,,,,,,,,,,,,left,0,40,30,70,1,2886.372632,2886.372632,2886.372632,None,None,2,0,1.1341261,,,,,,,,,,,,,,,,,,,10,3,1,2024-10-17_08h26.39.859,uWM_experiment,2022.2.3,59.98667096
,,,,,,,,,,,,,,,,,,,,8,0,8,0,4,0,4,0,,,,,,,,,,,,,,,,,,,,,,,,,,,,,,,,,,,,,,,,,,,,,,,,,,,,,,,,,,,,,,,,,,,,,,0,,,,,,,,,,,,,,,,,,,,,,,,,,,,left,0,130,30,160,0,2892.872906,2892.872906,2892.872906,None,None,1,1,0.6899512,,,,,,,,,,,,,,,,,,,10,3,1,2024-10-17_08h26.39.859,uWM_experiment,2022.2.3,59.98667096
,,,,,,,,,,,,,,,,,,,,8,0,8,0,5,0,5,0,,,,,,,,,,,,,,,,,,,,,,,,,,,,,,,,,,,,,,,,,,,,,,,,,,,,,,,,,,,,,,,,,,,,,,0.015,,,,,,,,,,,,,,,,,,,,,,,,,,,,left,1,10,-30,-20,1,2899.339813,2899.339813,2899.339813,None,None,1,1,1.7349177,,,,,,,,,,,,,,,,,,,10,3,1,2024-10-17_08h26.39.859,uWM_experiment,2022.2.3,59.98667096
,,,,,,,,,,,,,,,,,,,,8,0,8,0,6,0,6,0,,,,,,,,,,,,,,,,,,,,,,,,,,,,,,,,,,,,,,,,,,,,,,,,,,,,,,,,,,,,,,,,,,,,,,0.025,,,,,,,,,,,,,,,,,,,,,,,,,,,,left,0,40,30,70,1,2906.706767,2906.706767,2906.706767,None,None,1,1,0.600004,,,,,,,,,,,,,,,,,,,10,3,1,2024-10-17_08h26.39.859,uWM_experiment,2022.2.3,59.98667096
,,,,,,,,,,,,,,,,,,,,8,0,8,0,7,0,7,0,,,,,,,,,,,,,,,,,,,,,,,,,,,,,,,,,,,,,,,,,,,,,,,,,,,,,,,,,,,,,,,,,,,,,,0.035,,,,,,,,,,,,,,,,,,,,,,,,,,,,left,1,100,-30,70,1,2913.507066,2913.507066,2913.507066,None,None,1,1,0.8716024,,,,,,,,,,,,,,,,,,,10,3,1,2024-10-17_08h26.39.859,uWM_experiment,2022.2.3,59.98667096
,,,,,,,,,,,,,,,,,,,,8,0,8,0,8,0,8,0,,,,,,,,,,,,,,,,,,,,,,,,,,,,,,,,,,,,,,,,,,,,,,,,,,,,,,,,,,,,,,,,,,,,,,0.045,,,,,,,,,,,,,,,,,,,,,,,,,,,,right,1,70,30,100,1,2920.573992,2920.573992,2920.573992,None,None,1,1,1.2206343,,,,,,,,,,,,,,,,,,,10,3,1,2024-10-17_08h26.39.859,uWM_experiment,2022.2.3,59.98667096
,,,,,,,,,,,,,,,,,,,,8,0,8,0,9,0,9,0,,,,,,,,,,,,,,,,,,,,,,,,,,,,,,,,,,,,,,,,,,,,,,,,,,,,,,,,,,,,,,,,,,,,,,0,,,,,,,,,,,,,,,,,,,,,,,,,,,,right,0,160,-30,130,0,2927.557588,2927.557588,2927.557588,None,None,1,1,1.0930826,,,,,,,,,,,,,,,,,,,10,3,1,2024-10-17_08h26.39.859,uWM_experiment,2022.2.3,59.98667096
,,,,,,,,,,,,,,,,,,,,8,0,8,0,10,0,10,0,,,,,,,,,,,,,,,,,,,,,,,,,,,,,,,,,,,,,,,,,,,,,,,,,,,,,,,,,,,,,,,,,,,,,,0.055,,,,,,,,,,,,,,,,,,,,,,,,,,,,right,0,10,-30,-20,1,2934.7412,2934.7412,2934.7412,None,None,2,0,0.9734524,,,,,,,,,,,,,,,,,,,10,3,1,2024-10-17_08h26.39.859,uWM_experiment,2022.2.3,59.98667096
,,,,,,,,,,,,,,,,,,,,8,0,8,0,11,0,11,0,,,,,,,,,,,,,,,,,,,,,,,,,,,,,,,,,,,,,,,,,,,,,,,,,,,,,,,,,,,,,,,,,,,,,,0.045,,,,,,,,,,,,,,,,,,,,,,,,,,,,right,1,160,30,190,1,2941.758152,2941.758152,2941.758152,None,None,1,1,0.9404112,,,,,,,,,,,,,,,,,,,10,3,1,2024-10-17_08h26.39.859,uWM_experiment,2022.2.3,59.98667096
,,,,,,,,,,,,,,,,,,,,8,0,8,0,12,0,12,0,,,,,,,,,,,,,,,,,,,,,,,,,,,,,,,,,,,,,,,,,,,,,,,,,,,,,,,,,,,,,,,,,,,,,,0.055,,,,,,,,,,,,,,,,,,,,,,,,,,,,right,1,160,30,190,1,2948.841763,2948.841763,2948.841763,None,None,2,0,1.0006961,,,,,,,,,,,,,,,,,,,10,3,1,2024-10-17_08h26.39.859,uWM_experiment,2022.2.3,59.98667096
,,,,,,,,,,,,,,,,,,,,8,0,8,0,13,0,13,0,,,,,,,,,,,,,,,,,,,,,,,,,,,,,,,,,,,,,,,,,,,,,,,,,,,,,,,,,,,,,,,,,,,,,,0.045,,,,,,,,,,,,,,,,,,,,,,,,,,,,left,0,130,30,160,1,2955.908683,2955.908683,2955.908683,None,None,2,0,0.7738592,,,,,,,,,,,,,,,,,,,10,3,1,2024-10-17_08h26.39.859,uWM_experiment,2022.2.3,59.98667096
,,,,,,,,,,,,,,,,,,,,8,0,8,0,14,0,14,0,,,,,,,,,,,,,,,,,,,,,,,,,,,,,,,,,,,,,,,,,,,,,,,,,,,,,,,,,,,,,,,,,,,,,,0,,,,,,,,,,,,,,,,,,,,,,,,,,,,right,0,100,-30,70,0,2964.892371,2964.892371,2964.892371,None,None,1,1,0.8380305,,,,,,,,,,,,,,,,,,,10,3,1,2024-10-17_08h26.39.859,uWM_experiment,2022.2.3,59.98667096
,,,,,,,,,,,,,,,,,,,,8,0,8,0,15,0,15,0,,,,,,,,,,,,,,,,,,,,,,,,,,,,,,,,,,,,,,,,,,,,,,,,,,,,,,,,,,,,,,,,,,,,,,0.035,,,,,,,,,,,,,,,,,,,,,,,,,,,,left,1,160,-30,130,1,2972.226014,2972.226014,2972.226014,None,None,2,0,0.6404162,,,,,,,,,,,,,,,,,,,10,3,1,2024-10-17_08h26.39.859,uWM_experiment,2022.2.3,59.98667096
,,,,,,,,,,,,,,,,,,,,8,0,8,0,16,0,16,0,,,,,,,,,,,,,,,,,,,,,,,,,,,,,,,,,,,,,,,,,,,,,,,,,,,,,,,,,,,,,,,,,,,,,,0.025,,,,,,,,,,,,,,,,,,,,,,,,,,,,left,1,130,-30,100,1,2981.476378,2981.476378,2981.476378,None,None,1,1,0.9900903,,,,,,,,,,,,,,,,,,,10,3,1,2024-10-17_08h26.39.859,uWM_experiment,2022.2.3,59.98667096
,,,,,,,,,,,,,,,,,,,,8,0,8,0,17,0,17,0,,,,,,,,,,,,,,,,,,,,,,,,,,,,,,,,,,,,,,,,,,,,,,,,,,,,,,,,,,,,,,,,,,,,,,0,,,,,,,,,,,,,,,,,,,,,,,,,,,,left,1,10,-30,-20,0,2988.393322,2988.393322,2988.393322,None,None,1,1,0.8330816,,,,,,,,,,,,,,,,,,,10,3,1,2024-10-17_08h26.39.859,uWM_experiment,2022.2.3,59.98667096
,,,,,,,,,,,,,,,,,,,,8,0,8,0,18,0,18,0,,,,,,,,,,,,,,,,,,,,,,,,,,,,,,,,,,,,,,,,,,,,,,,,,,,,,,,,,,,,,,,,,,,,,,0.035,,,,,,,,,,,,,,,,,,,,,,,,,,,,left,0,130,30,160,1,2995.64358,2995.64358,2995.64358,None,None,1,1,0.7908285,,,,,,,,,,,,,,,,,,,10,3,1,2024-10-17_08h26.39.859,uWM_experiment,2022.2.3,59.98667096
,,,,,,,,,,,,,,,,,,,,8,0,8,0,19,0,19,0,,,,,,,,,,,,,,,,,,,,,,,,,,,,,,,,,,,,,,,,,,,,,,,,,,,,,,,,,,,,,,,,,,,,,,0.045,,,,,,,,,,,,,,,,,,,,,,,,,,,,left,1,160,-30,130,1,3002.227192,3002.227192,3002.227192,None,None,1,1,1.623167,,,,,,,,,,,,,,,,,,,10,3,1,2024-10-17_08h26.39.859,uWM_experiment,2022.2.3,59.98667096
,,,,,,,,,,,,,,,,,,,,8,0,8,0,20,0,20,0,,,,,,,,,,,,,,,,,,,,,,,,,,,,,,,,,,,,,,,,,,,,,,,,,,,,,,,,,,,,,,,,,,,,,,0,,,,,,,,,,,,,,,,,,,,,,,,,,,,right,1,10,30,40,0,3010.960874,3010.960874,3010.960874,None,None,1,1,1.1373043,,,,,,,,,,,,,,,,,,,10,3,1,2024-10-17_08h26.39.859,uWM_experiment,2022.2.3,59.98667096
,,,,,,,,,,,,,,,,,,,,8,0,8,0,21,0,21,0,,,,,,,,,,,,,,,,,,,,,,,,,,,,,,,,,,,,,,,,,,,,,,,,,,,,,,,,,,,,,,,,,,,,,,0,,,,,,,,,,,,,,,,,,,,,,,,,,,,right,1,160,30,190,0,3017.594465,3017.594465,3017.594465,None,None,2,0,1.0557975,,,,,,,,,,,,,,,,,,,10,3,1,2024-10-17_08h26.39.859,uWM_experiment,2022.2.3,59.98667096
,,,,,,,,,,,,,,,,,,,,8,0,8,0,22,0,22,0,,,,,,,,,,,,,,,,,,,,,,,,,,,,,,,,,,,,,,,,,,,,,,,,,,,,,,,,,,,,,,,,,,,,,,0.055,,,,,,,,,,,,,,,,,,,,,,,,,,,,right,1,70,30,100,1,3024.544735,3024.544735,3024.544735,None,None,1,1,0.6494834,,,,,,,,,,,,,,,,,,,10,3,1,2024-10-17_08h26.39.859,uWM_experiment,2022.2.3,59.98667096
,,,,,,,,,,,,,,,,,,,,8,0,8,0,23,0,23,0,,,,,,,,,,,,,,,,,,,,,,,,,,,,,,,,,,,,,,,,,,,,,,,,,,,,,,,,,,,,,,,,,,,,,,0.065,,,,,,,,,,,,,,,,,,,,,,,,,,,,right,0,130,-30,100,1,3030.428304,3030.428304,3030.428304,None,None,2,0,0.7740066,,,,,,,,,,,,,,,,,,,10,3,1,2024-10-17_08h26.39.859,uWM_experiment,2022.2.3,59.98667096
,,,,,,,,,,,,,,,,,,,,8,0,8,0,,,,,0,0,0,0,,,,,,,,,,,,,,,,,,,,,,,,,,,,,,,,,,,,,,,,,,,,,,,,,,,,,,,,,,,,,,,,,,,,,,,,,,,,,,,,,,,,,,,,,,,,,,,,,,,,,,,,,,,,3031.228297,3031.228297,space,39.461722,space,None,,3070.713208,3070.713208,10.3127379,,,,,,,,,10,3,1,2024-10-17_08h26.39.859,uWM_experiment,2022.2.3,59.98667096
,,,,,,,,,,,,,,,,,,,,8,0,8,0,,,,,1,0,1,0,,,,,,,,,,,,,,,,,,,,,,,,,,,,,,,,,,,,,,,,,,,,,,,,,,,,,,,,,,,,,,,,,,,,,,,,,,,,,,,,,,,,,,,,,,,,,,,,,,,,,,,,,,,,,,,,,,,,,,,,,,,,,,10,3,1,2024-10-17_08h26.39.859,uWM_experiment,2022.2.3,59.98667096
,,,,,,,,,,,,,,,,,,,,8,0,8,0,,,,,2,0,2,0,,,,,,,,,,,,,,,,,,,,,,,,,,,,,,,,,,,,,,,,,,,,,,,,,,,,,,,,,,,,,,,,,,,,,,,,,,,,,,,,,,,,,,,,,,,,,,,,,,,,,,,,,,,,,,,,,,,,,,,,,,,,,,10,3,1,2024-10-17_08h26.39.859,uWM_experiment,2022.2.3,59.98667096
,,,,,,,,,,,,,,,,,,,,9,0,9,0,0,0,0,0,,,,,,,,,,,,,,,,,,,,,,,,,,,,,,,,,,,,,,,,,,,,,,,,,,,,,,,,,,,,,,,,,,,,,,0,,,,,,,,,,,,,,,,,,,,3081.04697,3081.746965,3082.046987,3082.747016,3083.047018,3083.747054,3083.747054,3084.06374,left,0,130,30,160,0,3088.313914,3088.313914,3088.313914,None,None,1,1,0.9199185,,,,,,,None,,,,,,,,,,,,10,3,1,2024-10-17_08h26.39.859,uWM_experiment,2022.2.3,59.98667096
,,,,,,,,,,,,,,,,,,,,9,0,9,0,1,0,1,0,,,,,,,,,,,,,,,,,,,,,,,,,,,,,,,,,,,,,,,,,,,,,,,,,,,,,,,,,,,,,,,,,,,,,,0.055,,,,,,,,,,,,,,,,,,,,,,,,,,,,left,0,130,30,160,1,3094.914158,3094.914158,3094.914158,None,None,1,1,0.8716369,,,,,,,,,,,,,,,,,,,10,3,1,2024-10-17_08h26.39.859,uWM_experiment,2022.2.3,59.98667096
,,,,,,,,,,,,,,,,,,,,9,0,9,0,2,0,2,0,,,,,,,,,,,,,,,,,,,,,,,,,,,,,,,,,,,,,,,,,,,,,,,,,,,,,,,,,,,,,,,,,,,,,,0,,,,,,,,,,,,,,,,,,,,,,,,,,,,left,1,160,-30,130,0,3102.131188,3102.131188,3102.131188,None,None,2,0,0.4705715,,,,,,,,,,,,,,,,,,,10,3,1,2024-10-17_08h26.39.859,uWM_experiment,2022.2.3,59.98667096
,,,,,,,,,,,,,,,,,,,,9,0,9,0,3,0,3,0,,,,,,,,,,,,,,,,,,,,,,,,,,,,,,,,,,,,,,,,,,,,,,,,,,,,,,,,,,,,,,,,,,,,,,0.065,,,,,,,,,,,,,,,,,,,,,,,,,,,,right,0,70,-30,40,1,3108.148049,3108.148049,3108.148049,None,None,2,0,0.8376644,,,,,,,,,,,,,,,,,,,10,3,1,2024-10-17_08h26.39.859,uWM_experiment,2022.2.3,59.98667096
,,,,,,,,,,,,,,,,,,,,9,0,9,0,4,0,4,0,,,,,,,,,,,,,,,,,,,,,,,,,,,,,,,,,,,,,,,,,,,,,,,,,,,,,,,,,,,,,,,,,,,,,,0,,,,,,,,,,,,,,,,,,,,,,,,,,,,right,0,100,-30,70,0,3114.44826,3114.44826,3114.44826,None,None,2,0,0.6095736,,,,,,,,,,,,,,,,,,,10,3,1,2024-10-17_08h26.39.859,uWM_experiment,2022.2.3,59.98667096
,,,,,,,,,,,,,,,,,,,,9,0,9,0,5,0,5,0,,,,,,,,,,,,,,,,,,,,,,,,,,,,,,,,,,,,,,,,,,,,,,,,,,,,,,,,,,,,,,,,,,,,,,0.055,,,,,,,,,,,,,,,,,,,,,,,,,,,,left,0,100,30,130,1,3121.715217,3121.715217,3121.715217,None,None,1,1,0.4065224,,,,,,,,,,,,,,,,,,,10,3,1,2024-10-17_08h26.39.859,uWM_experiment,2022.2.3,59.98667096
,,,,,,,,,,,,,,,,,,,,9,0,9,0,6,0,6,0,,,,,,,,,,,,,,,,,,,,,,,,,,,,,,,,,,,,,,,,,,,,,,,,,,,,,,,,,,,,,,,,,,,,,,0.065,,,,,,,,,,,,,,,,,,,,,,,,,,,,right,1,160,30,190,1,3128.26547,3128.26547,3128.26547,None,None,2,0,0.8563848,,,,,,,,,,,,,,,,,,,10,3,1,2024-10-17_08h26.39.859,uWM_experiment,2022.2.3,59.98667096
,,,,,,,,,,,,,,,,,,,,9,0,9,0,7,0,7,0,,,,,,,,,,,,,,,,,,,,,,,,,,,,,,,,,,,,,,,,,,,,,,,,,,,,,,,,,,,,,,,,,,,,,,0,,,,,,,,,,,,,,,,,,,,,,,,,,,,left,0,100,30,130,0,3134.632397,3134.632397,3134.632397,None,None,1,1,0.9293639,,,,,,,,,,,,,,,,,,,10,3,1,2024-10-17_08h26.39.859,uWM_experiment,2022.2.3,59.98667096
,,,,,,,,,,,,,,,,,,,,9,0,9,0,8,0,8,0,,,,,,,,,,,,,,,,,,,,,,,,,,,,,,,,,,,,,,,,,,,,,,,,,,,,,,,,,,,,,,,,,,,,,,0.055,,,,,,,,,,,,,,,,,,,,,,,,,,,,right,1,160,30,190,1,3141.032652,3141.032652,3141.032652,None,None,2,0,1.1290867,,,,,,,,,,,,,,,,,,,10,3,1,2024-10-17_08h26.39.859,uWM_experiment,2022.2.3,59.98667096
,,,,,,,,,,,,,,,,,,,,9,0,9,0,9,0,9,0,,,,,,,,,,,,,,,,,,,,,,,,,,,,,,,,,,,,,,,,,,,,,,,,,,,,,,,,,,,,,,,,,,,,,,0.045,,,,,,,,,,,,,,,,,,,,,,,,,,,,left,1,130,-30,100,1,3148.749616,3148.749616,3148.749616,None,None,2,0,0.8280838,,,,,,,,,,,,,,,,,,,10,3,1,2024-10-17_08h26.39.859,uWM_experiment,2022.2.3,59.98667096
,,,,,,,,,,,,,,,,,,,,9,0,9,0,10,0,10,0,,,,,,,,,,,,,,,,,,,,,,,,,,,,,,,,,,,,,,,,,,,,,,,,,,,,,,,,,,,,,,,,,,,,,,0.035,,,,,,,,,,,,,,,,,,,,,,,,,,,,right,1,40,30,70,1,3157.483266,3157.483266,3157.483266,None,None,1,1,1.2542527,,,,,,,,,,,,,,,,,,,10,3,1,2024-10-17_08h26.39.859,uWM_experiment,2022.2.3,59.98667096
,,,,,,,,,,,,,,,,,,,,9,0,9,0,11,0,11,0,,,,,,,,,,,,,,,,,,,,,,,,,,,,,,,,,,,,,,,,,,,,,,,,,,,,,,,,,,,,,,,,,,,,,,0.045,,,,,,,,,,,,,,,,,,,,,,,,,,,,right,0,10,-30,-20,1,3166.050277,3166.050277,3166.050277,None,None,1,1,0.7672377,,,,,,,,,,,,,,,,,,,10,3,1,2024-10-17_08h26.39.859,uWM_experiment,2022.2.3,59.98667096
,,,,,,,,,,,,,,,,,,,,9,0,9,0,12,0,12,0,,,,,,,,,,,,,,,,,,,,,,,,,,,,,,,,,,,,,,,,,,,,,,,,,,,,,,,,,,,,,,,,,,,,,,0.055,,,,,,,,,,,,,,,,,,,,,,,,,,,,left,0,100,30,130,1,3173.167235,3173.167235,3173.167235,None,None,1,1,0.5942397,,,,,,,,,,,,,,,,,,,10,3,1,2024-10-17_08h26.39.859,uWM_experiment,2022.2.3,59.98667096
,,,,,,,,,,,,,,,,,,,,9,0,9,0,13,0,13,0,,,,,,,,,,,,,,,,,,,,,,,,,,,,,,,,,,,,,,,,,,,,,,,,,,,,,,,,,,,,,,,,,,,,,,0.065,,,,,,,,,,,,,,,,,,,,,,,,,,,,left,0,70,30,100,1,3179.684154,3179.684154,3179.684154,None,None,1,1,0.7092974,,,,,,,,,,,,,,,,,,,10,3,1,2024-10-17_08h26.39.859,uWM_experiment,2022.2.3,59.98667096
,,,,,,,,,,,,,,,,,,,,9,0,9,0,14,0,14,0,,,,,,,,,,,,,,,,,,,,,,,,,,,,,,,,,,,,,,,,,,,,,,,,,,,,,,,,,,,,,,,,,,,,,,0.075,,,,,,,,,,,,,,,,,,,,,,,,,,,,left,0,130,30,160,1,3186.284417,3186.284417,3186.284417,None,None,1,1,1.0450942,,,,,,,,,,,,,,,,,,,10,3,1,2024-10-17_08h26.39.859,uWM_experiment,2022.2.3,59.98667096
,,,,,,,,,,,,,,,,,,,,9,0,9,0,15,0,15,0,,,,,,,,,,,,,,,,,,,,,,,,,,,,,,,,,,,,,,,,,,,,,,,,,,,,,,,,,,,,,,,,,,,,,,0.085,,,,,,,,,,,,,,,,,,,,,,,,,,,,left,1,10,-30,-20,1,3193.801372,3193.801372,3193.801372,None,None,2,0,2.9039721,,,,,,,,,,,,,,,,,,,10,3,1,2024-10-17_08h26.39.859,uWM_experiment,2022.2.3,59.98667096
,,,,,,,,,,,,,,,,,,,,9,0,9,0,16,0,16,0,,,,,,,,,,,,,,,,,,,,,,,,,,,,,,,,,,,,,,,,,,,,,,,,,,,,,,,,,,,,,,,,,,,,,,0.075,,,,,,,,,,,,,,,,,,,,,,,,,,,,left,1,160,-30,130,1,3202.551721,3202.551721,3202.551721,None,None,2,0,1.0736363,,,,,,,,,,,,,,,,,,,10,3,1,2024-10-17_08h26.39.859,uWM_experiment,2022.2.3,59.98667096
,,,,,,,,,,,,,,,,,,,,9,0,9,0,17,0,17,0,,,,,,,,,,,,,,,,,,,,,,,,,,,,,,,,,,,,,,,,,,,,,,,,,,,,,,,,,,,,,,,,,,,,,,0.065,,,,,,,,,,,,,,,,,,,,,,,,,,,,right,1,10,30,40,1,3210.818708,3210.818708,3210.818708,None,None,2,0,1.9507516,,,,,,,,,,,,,,,,,,,10,3,1,2024-10-17_08h26.39.859,uWM_experiment,2022.2.3,59.98667096
,,,,,,,,,,,,,,,,,,,,9,0,9,0,18,0,18,0,,,,,,,,,,,,,,,,,,,,,,,,,,,,,,,,,,,,,,,,,,,,,,,,,,,,,,,,,,,,,,,,,,,,,,0.055,,,,,,,,,,,,,,,,,,,,,,,,,,,,right,0,40,-30,10,1,3218.402338,3218.402338,3218.402338,None,None,1,1,0.3749405,,,,,,,,,,,,,,,,,,,10,3,1,2024-10-17_08h26.39.859,uWM_experiment,2022.2.3,59.98667096
,,,,,,,,,,,,,,,,,,,,9,0,9,0,19,0,19,0,,,,,,,,,,,,,,,,,,,,,,,,,,,,,,,,,,,,,,,,,,,,,,,,,,,,,,,,,,,,,,,,,,,,,,0.065,,,,,,,,,,,,,,,,,,,,,,,,,,,,left,1,160,-30,130,1,3224.569267,3224.569267,3224.569267,None,None,2,0,0.7760571,,,,,,,,,,,,,,,,,,,10,3,1,2024-10-17_08h26.39.859,uWM_experiment,2022.2.3,59.98667096
,,,,,,,,,,,,,,,,,,,,9,0,9,0,20,0,20,0,,,,,,,,,,,,,,,,,,,,,,,,,,,,,,,,,,,,,,,,,,,,,,,,,,,,,,,,,,,,,,,,,,,,,,0.055,,,,,,,,,,,,,,,,,,,,,,,,,,,,left,1,160,-30,130,1,3233.602903,3233.602903,3233.602903,None,None,1,1,0.8702801,,,,,,,,,,,,,,,,,,,10,3,1,2024-10-17_08h26.39.859,uWM_experiment,2022.2.3,59.98667096
,,,,,,,,,,,,,,,,,,,,9,0,9,0,21,0,21,0,,,,,,,,,,,,,,,,,,,,,,,,,,,,,,,,,,,,,,,,,,,,,,,,,,,,,,,,,,,,,,,,,,,,,,0,,,,,,,,,,,,,,,,,,,,,,,,,,,,left,1,40,-30,10,0,3243.736683,3243.736683,3243.736683,None,None,2,0,0.7684561,,,,,,,,,,,,,,,,,,,10,3,1,2024-10-17_08h26.39.859,uWM_experiment,2022.2.3,59.98667096
,,,,,,,,,,,,,,,,,,,,9,0,9,0,22,0,22,0,,,,,,,,,,,,,,,,,,,,,,,,,,,,,,,,,,,,,,,,,,,,,,,,,,,,,,,,,,,,,,,,,,,,,,0.065,,,,,,,,,,,,,,,,,,,,,,,,,,,,left,0,40,30,70,1,3252.803687,3252.803687,3252.803687,None,None,1,1,0.8135941,,,,,,,,,,,,,,,,,,,10,3,1,2024-10-17_08h26.39.859,uWM_experiment,2022.2.3,59.98667096
,,,,,,,,,,,,,,,,,,,,9,0,9,0,23,0,23,0,,,,,,,,,,,,,,,,,,,,,,,,,,,,,,,,,,,,,,,,,,,,,,,,,,,,,,,,,,,,,,,,,,,,,,0,,,,,,,,,,,,,,,,,,,,,,,,,,,,right,1,70,30,100,0,3259.803968,3259.803968,3259.803968,None,None,1,1,0.8612086,,,,,,,,,,,,,,,,,,,10,3,1,2024-10-17_08h26.39.859,uWM_experiment,2022.2.3,59.98667096
