PreTrainingPAS4_loop.thisRepN,PreTrainingPAS4_loop.thisTrialN,PreTrainingPAS4_loop.thisN,PreTrainingPAS4_loop.thisIndex,PreTrainingPAS1_loop.thisRepN,PreTrainingPAS1_loop.thisTrialN,PreTrainingPAS1_loop.thisN,PreTrainingPAS1_loop.thisIndex,RepeatCV_loop.thisRepN,RepeatCV_loop.thisTrialN,RepeatCV_loop.thisN,RepeatCV_loop.thisIndex,TrainingCV_loop.thisRepN,TrainingCV_loop.thisTrialN,TrainingCV_loop.thisN,TrainingCV_loop.thisIndex,TrainingCAL_loop.thisRepN,TrainingCAL_loop.thisTrialN,TrainingCAL_loop.thisN,TrainingCAL_loop.thisIndex,blocks_loop.thisRepN,blocks_loop.thisTrialN,blocks_loop.thisN,blocks_loop.thisIndex,trials_loop.thisRepN,trials_loop.thisTrialN,trials_loop.thisN,trials_loop.thisIndex,TrainingPAS1_loop.thisRepN,TrainingPAS1_loop.thisTrialN,TrainingPAS1_loop.thisN,TrainingPAS1_loop.thisIndex,spacebarWelcome0.started,spacebarWelcome0.keys,spacebarWelcome0.rt,spacebarWelcome1.started,gaborWelcome1.started,maskWelcome1.started,textMaskWelcome1.started,spacebarWelcome1.keys,spacebarWelcome1.rt,spacebarWelcome2.started,spacebarWelcome2.keys,spacebarWelcome2.rt,textInst_PreTrainingPAS4.started,spacebarPreTrainingPAS4.started,spacebarPreTrainingPAS4.keys,spacebarPreTrainingPAS4.rt,textPreTrainingPAS1.started,spacebarPreTrainingPAS1.started,spacebarPreTrainingPAS1.keys,spacebarPreTrainingPAS1.rt,textQUEST0.started,spacebarQUEST0.started,spacebarQUEST0.keys,spacebarQUEST0.rt,spacebar0.started,spacebar0.keys,spacebar0.rt,spacebar1.started,spacebar1.keys,spacebar1.rt,textInstructions2.started,spacebar2.started,Gabor1Inst2.started,Gabor2Inst2.started,Gabor3Inst2.started,Gabor4Inst2.started,spacebar2.keys,spacebar2.rt,textInstructionsPAS.started,spacebarInstPAS.started,spacebarInstPAS.keys,spacebarInstPAS.rt,textInstructions3.started,spacebar3.started,spacebar3.keys,spacebar3.rt,WMresp_CV,WMresp_CV_acc,oriMemo_CV,gyre_CV,oriTest_CV,feedbackText.started,feedbackText.stopped,sliderCV.started,PAStextCV.started,PASkeyCV.started,sliderCV.response,sliderCV.rt,PASkeyCV.keys,PASkeyCV.corr,PASkeyCV.rt,TextInstructionsCAL.started,spacebarCAL.started,spacebarCAL.keys,spacebarCAL.rt,contrast,WMresp_CAL,WMresp_CAL_acc,oriMemo_CAL,gyre_CAL,oriTest_CAL,cue_CAL,sliderCAL.started,PAStextCAL.started,PASkeyCAL.started,sliderCAL.response,sliderCAL.rt,PASkeyCAL.keys,PASkeyCAL.corr,PASkeyCAL.rt,propUnseen_CAL,textStart.started,spacebar4.started,spacebar4.keys,spacebar4.rt,three.started,three.stopped,two.started,two.stopped,one.started,one.stopped,blank_countdown.started,blank_countdown.stopped,WMresp,WMresp_acc,oriMemo,gyre,oriTest,cue,slider.started,textPAS_firstGabor.started,PASkey.started,slider.response,slider.rt,PASkey.keys,PASkey.corr,PASkey.rt,spacebarContinue.started,textBreak.started,spacebarContinue.keys,spacebarContinue.rt,spacebar_reminder.keys,spacebar_TrainingPAS1.keys,spacebar_endpractice.keys,spacebar_reminder.started,textReminder.started,spacebar_reminder.rt,textInst_TrainingPAS1.started,spacebar_TrainingPAS1.started,spacebar_TrainingPAS1.rt,textend_practicePAS1.started,spacebar_endpractice.started,spacebar_endpractice.rt,textThanks.started,buttonURL.started,buttonURL.numClicks,buttonURL.timesOn,buttonURL.timesOff,laboratory,participant,session,date,expName,psychopyVersion,frameRate
,,,,,,,,,,,,,,,,,,,,,,,,,,,,,,,,198.1122434,space,2.9283001,,,,,,,,,,,,,,,,,,,,,,,,,,,,,,,,,,,,,,,,,,,,,,,,,,,,,,,,,,,,,,,,,,,,,,,,,,,,,,,,,,,,,,,,,,,,,,,,,,,,,,,,,,,,,,,,,,,,,,,,,,,,,,10,3,2,2024-10-21_08h32.12.942,uWM_experiment,2022.2.3,59.99649621
,,,,,,,,,,,,,,,,,,,,,,,,,,,,,,,,,,,201.0788108,201.0788108,201.0788108,201.0788108,space,7.6976195,,,,,,,,,,,,,,,,,,,,,,,,,,,,,,,,,,,,,,,,,,,,,,,,,,,,,,,,,,,,,,,,,,,,,,,,,,,,,,,,,,,,,,,,,,,,,,,,,,,,,,,,,,,,,,,,,,,,,,,,10,3,2,2024-10-21_08h32.12.942,uWM_experiment,2022.2.3,59.99649621
,,,,,,,,,,,,,,,,,,,,,,,,,,,,,,,,,,,,,,,,,208.7957795,space,10.4766853,,,,,,,,,,,,,,,,,,,,,,,,,,,,,,,,,,,,,,,,,,,,,,,,,,,,,,,,,,,,,,,,,,,,,,,,,,,,,,,,,,,,,,,,,,,,,,,,,,,,,,,,,,,,,,,,,,,,,10,3,2,2024-10-21_08h32.12.942,uWM_experiment,2022.2.3,59.99649621
,,,,,,,,,,,,,,,,,,,,,,,,,,,,,,,,,,,,,,,,,,,,219.2962035,219.2962035,space,7.8722111,,,,,,,,,,,,,,,,,,,,,,,,,,,,,,,,,,,,,,,,,,,,,,,,,,,,,,,,,,,,,,,,,,,,,,,,,,,,,,,,,,,,,,,,,,,,,,,,,,,,,,,,,,,,,,,,,10,3,2,2024-10-21_08h32.12.942,uWM_experiment,2022.2.3,59.99649621
0,0,0,0,,,,,,,,,,,,,,,,,,,,,,,,,,,,,,,,,,,,,,,,,,,,,,,,,,,,,,,,,,,,,,,,,,,,,,,,,,,,,,,,,,,,,,,,,,,,,,,,,,,,,,,,,,,,,,,,,,,,,,,,,,,,,,,,,,,,,,,,,,,,,,,,,,,,,,,,,,,,,10,3,2,2024-10-21_08h32.12.942,uWM_experiment,2022.2.3,59.99649621
1,0,1,0,,,,,,,,,,,,,,,,,,,,,,,,,,,,,,,,,,,,,,,,,,,,,,,,,,,,,,,,,,,,,,,,,,,,,,,,,,,,,,,,,,,,,,,,,,,,,,,,,,,,,,,,,,,,,,,,,,,,,,,,,,,,,,,,,,,,,,,,,,,,,,,,,,,,,,,,,,,,,10,3,2,2024-10-21_08h32.12.942,uWM_experiment,2022.2.3,59.99649621
2,0,2,0,,,,,,,,,,,,,,,,,,,,,,,,,,,,,,,,,,,,,,,,,,,,,,,,,,,,,,,,,,,,,,,,,,,,,,,,,,,,,,,,,,,,,,,,,,,,,,,,,,,,,,,,,,,,,,,,,,,,,,,,,,,,,,,,,,,,,,,,,,,,,,,,,,,,,,,,,,,,,10,3,2,2024-10-21_08h32.12.942,uWM_experiment,2022.2.3,59.99649621
,,,,,,,,,,,,,,,,,,,,,,,,,,,,,,,,,,,,,,,,,,,,,,,,239.0803531,239.0803531,space,7.9200046,,,,,,,,,,,,,,,,,,,,,,,,,,,,,,,,,,,,,,,,,,,,,,,,,,,,,,,,,,,,,,,,,,,,,,,,,,,,,,,,,,,,,,,,,,,,,,,,,,,,,,,,,,,,,10,3,2,2024-10-21_08h32.12.942,uWM_experiment,2022.2.3,59.99649621
,,,,0,0,0,0,,,,,,,,,,,,,,,,,,,,,,,,,,,,,,,,,,,,,,,,,,,,,,,,,,,,,,,,,,,,,,,,,,,,,,,,,,,,,,,,,,,,,,,,,,,,,,,,,,,,,,,,,,,,,,,,,,,,,,,,,,,,,,,,,,,,,,,,,,,,,,,,,,,,,,,,,10,3,2,2024-10-21_08h32.12.942,uWM_experiment,2022.2.3,59.99649621
,,,,1,0,1,0,,,,,,,,,,,,,,,,,,,,,,,,,,,,,,,,,,,,,,,,,,,,,,,,,,,,,,,,,,,,,,,,,,,,,,,,,,,,,,,,,,,,,,,,,,,,,,,,,,,,,,,,,,,,,,,,,,,,,,,,,,,,,,,,,,,,,,,,,,,,,,,,,,,,,,,,,10,3,2,2024-10-21_08h32.12.942,uWM_experiment,2022.2.3,59.99649621
,,,,2,0,2,0,,,,,,,,,,,,,,,,,,,,,,,,,,,,,,,,,,,,,,,,,,,,,,,,,,,,,,,,,,,,,,,,,,,,,,,,,,,,,,,,,,,,,,,,,,,,,,,,,,,,,,,,,,,,,,,,,,,,,,,,,,,,,,,,,,,,,,,,,,,,,,,,,,,,,,,,,10,3,2,2024-10-21_08h32.12.942,uWM_experiment,2022.2.3,59.99649621
,,,,,,,,,,,,,,,,,,,,,,,,,,,,,,,,,,,,,,,,,,,,,,,,,,,,256.497702,256.497702,space,8.5585493,,,,,,,,,,,,,,,,,,,,,,,,,,,,,,,,,,,,,,,,,,,,,,,,,,,,,,,,,,,,,,,,,,,,,,,,,,,,,,,,,,,,,,,,,,,,,,,,,,,,,,,,,10,3,2,2024-10-21_08h32.12.942,uWM_experiment,2022.2.3,59.99649621
,,,,,,,,,,,,,,,,,,,,,,,,,,,,,,,,,,,,,,,,,,,,,,,,,,,,,,,,401.3536574,space,5.5981397,,,,,,,,,,,,,,,,,,,,,,,,,,,,,,,,,,,,,,,,,,,,,,,,,,,,,,,,,,,,,,,,,,,,,,,,,,,,,,,,,,,,,,,,,,,,,,,,,,,,,,10,3,2,2024-10-21_08h32.12.942,uWM_experiment,2022.2.3,59.99649621
,,,,,,,,,,,,,,,,,,,,,,,,,,,,,,,,,,,,,,,,,,,,,,,,,,,,,,,,,,,406.9704778,space,15.5893063,,,,,,,,,,,,,,,,,,,,,,,,,,,,,,,,,,,,,,,,,,,,,,,,,,,,,,,,,,,,,,,,,,,,,,,,,,,,,,,,,,,,,,,,,,,,,,,,,,,10,3,2,2024-10-21_08h32.12.942,uWM_experiment,2022.2.3,59.99649621
,,,,,,,,,,,,,,,,,,,,,,,,,,,,,,,,,,,,,,,,,,,,,,,,,,,,,,,,,,,,,,422.5878293,422.5878293,422.5878293,422.5878293,422.5878293,422.5878293,space,20.1638632,,,,,,,,,,,,,,,,,,,,,,,,,,,,,,,,,,,,,,,,,,,,,,,,,,,,,,,,,,,,,,,,,,,,,,,,,,,,,,,,,,,,,,,,,,,10,3,2,2024-10-21_08h32.12.942,uWM_experiment,2022.2.3,59.99649621
,,,,,,,,,,,,,,,,,,,,,,,,,,,,,,,,,,,,,,,,,,,,,,,,,,,,,,,,,,,,,,,,,,,,,,442.7719475,442.7719475,space,2.5557457,,,,,,,,,,,,,,,,,,,,,,,,,,,,,,,,,,,,,,,,,,,,,,,,,,,,,,,,,,,,,,,,,,,,,,,,,,,,,,,,,,,,,,,10,3,2,2024-10-21_08h32.12.942,uWM_experiment,2022.2.3,59.99649621
,,,,,,,,,,,,,,,,,,,,,,,,,,,,,,,,,,,,,,,,,,,,,,,,,,,,,,,,,,,,,,,,,,,,,,,,,,445.3553828,445.3553828,space,5.8683222,,,,,,,,,,,,,,,,,,,,,,,,,,,,,,,,,,,,,,,,,,,,,,,,,,,,,,,,,,,,,,,,,,,,,,,,,,,,,,,,,,,10,3,2,2024-10-21_08h32.12.942,uWM_experiment,2022.2.3,59.99649621
,,,,,,,,0,0,0,0,0,0,0,0,,,,,,,,,,,,,,,,,,,,,,,,,,,,,,,,,,,,,,,,,,,,,,,,,,,,,,,,,,,,,,,right,0,40,-30,10,457.6559001,458.6559434,458.6559434,458.6559434,458.6559434,None,None,3,0,5.2876057,,,,,,,,,,,,,,,,,,,,,,,,,,,,,,,,,,,,,,,,,,,,,,,,,,,,,,,,,,,,,,,,,,,,10,3,2,2024-10-21_08h32.12.942,uWM_experiment,2022.2.3,59.99649621
,,,,,,,,0,0,0,0,1,0,1,0,,,,,,,,,,,,,,,,,,,,,,,,,,,,,,,,,,,,,,,,,,,,,,,,,,,,,,,,,,,,,,,right,1,130,30,160,470.289758,471.28979,471.28979,471.28979,471.28979,None,None,4,0,2.3738179,,,,,,,,,,,,,,,,,,,,,,,,,,,,,,,,,,,,,,,,,,,,,,,,,,,,,,,,,,,,,,,,,,,,10,3,2,2024-10-21_08h32.12.942,uWM_experiment,2022.2.3,59.99649621
,,,,,,,,0,0,0,0,2,0,2,0,,,,,,,,,,,,,,,,,,,,,,,,,,,,,,,,,,,,,,,,,,,,,,,,,,,,,,,,,,,,,,,left,1,130,-30,100,479.7234675,480.7235047,480.7235047,480.7235047,480.7235047,None,None,4,0,1.2360016,,,,,,,,,,,,,,,,,,,,,,,,,,,,,,,,,,,,,,,,,,,,,,,,,,,,,,,,,,,,,,,,,,,,10,3,2,2024-10-21_08h32.12.942,uWM_experiment,2022.2.3,59.99649621
,,,,,,,,0,0,0,0,3,0,3,0,,,,,,,,,,,,,,,,,,,,,,,,,,,,,,,,,,,,,,,,,,,,,,,,,,,,,,,,,,,,,,,left,1,100,-30,70,488.1237956,489.1238559,489.1238559,489.1238559,489.1238559,None,None,4,0,0.6997623,,,,,,,,,,,,,,,,,,,,,,,,,,,,,,,,,,,,,,,,,,,,,,,,,,,,,,,,,,,,,,,,,,,,10,3,2,2024-10-21_08h32.12.942,uWM_experiment,2022.2.3,59.99649621
,,,,,,,,0,0,0,0,4,0,4,0,,,,,,,,,,,,,,,,,,,,,,,,,,,,,,,,,,,,,,,,,,,,,,,,,,,,,,,,,,,,,,,left,1,40,-30,10,495.8907899,496.8908451,496.8908451,496.8908451,496.8908451,None,None,4,0,0.7327171,,,,,,,,,,,,,,,,,,,,,,,,,,,,,,,,,,,,,,,,,,,,,,,,,,,,,,,,,,,,,,,,,,,,10,3,2,2024-10-21_08h32.12.942,uWM_experiment,2022.2.3,59.99649621
,,,,,,,,0,0,0,0,5,0,5,0,,,,,,,,,,,,,,,,,,,,,,,,,,,,,,,,,,,,,,,,,,,,,,,,,,,,,,,,,,,,,,,right,1,160,30,190,503.6744451,,504.6744917,504.6744917,504.6744917,None,None,4,0,0.3410214,,,,,,,,,,,,,,,,,,,,,,,,,,,,,,,,,,,,,,,,,,,,,,,,,,,,,,,,,,,,,,,,,,,,10,3,2,2024-10-21_08h32.12.942,uWM_experiment,2022.2.3,59.99649621
,,,,,,,,0,0,0,0,,,,,,,,,,,,,,,,,,,,,,,,,,,,,,,,,,,,,,,,,,,,,,,,,,,,,,,,,,,,,,,,,,,,,,,,,,,,,,,,,,,,,,,,,,,,,,,,,,,,,,,,,,,,,,,,,,,,,,,,,,,,,,,,,,,,,,,,,,,,,,,,,,,,,10,3,2,2024-10-21_08h32.12.942,uWM_experiment,2022.2.3,59.99649621
,,,,,,,,,,,,,,,,,,,,,,,,,,,,,,,,,,,,,,,,,,,,,,,,,,,,,,,,,,,,,,,,,,,,,,,,,,,,,,,,,,,,,,,,,,,,,510.5247588,510.5247588,space,3.9867526,,,,,,,,,,,,,,,,,,,,,,,,,,,,,,,,,,,,,,,,,,,,,,,,,,,,,,,,,,,,,,,,10,3,2,2024-10-21_08h32.12.942,uWM_experiment,2022.2.3,59.99649621
,,,,,,,,,,,,,,,,0,0,0,0,,,,,,,,,,,,,,,,,,,,,,,,,,,,,,,,,,,,,,,,,,,,,,,,,,,,,,,,,,,,,,,,,,,,,,,,,,,,,,0.154981017,right,1,160,30,190,1,520.3918009,520.3918009,520.3918009,None,None,3,0,1.935564,,,,,,,,,,,,,,,,,,,,,,,,,,,,,,,,,,,,,,,,,,,,,,,,,10,3,2,2024-10-21_08h32.12.942,uWM_experiment,2022.2.3,59.99649621
,,,,,,,,,,,,,,,,1,0,1,0,,,,,,,,,,,,,,,,,,,,,,,,,,,,,,,,,,,,,,,,,,,,,,,,,,,,,,,,,,,,,,,,,,,,,,,,,,,,,,0.1,right,1,70,30,100,2,528.7088265,528.7088265,528.7088265,None,None,4,0,1.2826622,0,,,,,,,,,,,,,,,,,,,,,,,,,,,,,,,,,,,,,,,,,,,,,,,,10,3,2,2024-10-21_08h32.12.942,uWM_experiment,2022.2.3,59.99649621
,,,,,,,,,,,,,,,,2,0,2,0,,,,,,,,,,,,,,,,,,,,,,,,,,,,,,,,,,,,,,,,,,,,,,,,,,,,,,,,,,,,,,,,,,,,,,,,,,,,,,0.144981017,right,1,10,30,40,1,536.3591051,536.3591051,536.3591051,None,None,2,0,1.5443446,0,,,,,,,,,,,,,,,,,,,,,,,,,,,,,,,,,,,,,,,,,,,,,,,,10,3,2,2024-10-21_08h32.12.942,uWM_experiment,2022.2.3,59.99649621
,,,,,,,,,,,,,,,,3,0,3,0,,,,,,,,,,,,,,,,,,,,,,,,,,,,,,,,,,,,,,,,,,,,,,,,,,,,,,,,,,,,,,,,,,,,,,,,,,,,,,0.1,left,1,130,-30,100,2,545.3928429,545.3928429,545.3928429,None,None,4,0,1.2385946,0,,,,,,,,,,,,,,,,,,,,,,,,,,,,,,,,,,,,,,,,,,,,,,,,10,3,2,2024-10-21_08h32.12.942,uWM_experiment,2022.2.3,59.99649621
,,,,,,,,,,,,,,,,4,0,4,0,,,,,,,,,,,,,,,,,,,,,,,,,,,,,,,,,,,,,,,,,,,,,,,,,,,,,,,,,,,,,,,,,,,,,,,,,,,,,,0.134981017,right,0,100,-30,70,1,552.7097862,552.7097862,552.7097862,None,None,2,0,1.7214839,0,,,,,,,,,,,,,,,,,,,,,,,,,,,,,,,,,,,,,,,,,,,,,,,,10,3,2,2024-10-21_08h32.12.942,uWM_experiment,2022.2.3,59.99649621
,,,,,,,,,,,,,,,,5,0,5,0,,,,,,,,,,,,,,,,,,,,,,,,,,,,,,,,,,,,,,,,,,,,,,,,,,,,,,,,,,,,,,,,,,,,,,,,,,,,,,0.1,left,1,40,-30,10,2,560.3934405,560.3934405,560.3934405,None,None,4,0,1.0858205,0,,,,,,,,,,,,,,,,,,,,,,,,,,,,,,,,,,,,,,,,,,,,,,,,10,3,2,2024-10-21_08h32.12.942,uWM_experiment,2022.2.3,59.99649621
,,,,,,,,,,,,,,,,,,,,,,,,,,,,,,,,,,,,,,,,,,,,,,,,,,,,,,,,,,,,,,,,,,,,,,,,,,,,,,,,,,,,,,,,,,,,,,,,,,,,,,,,,,,,,,,,,561.510138,562.4935122,space,4.0978512,,,,,,,,,,,,,,,,,,,,,,,,,,,,,,,,,,,,,,,,,,,,10,3,2,2024-10-21_08h32.12.942,uWM_experiment,2022.2.3,59.99649621
,,,,,,,,,,,,,,,,,,,,0,0,0,0,0,0,0,0,,,,,,,,,,,,,,,,,,,,,,,,,,,,,,,,,,,,,,,,,,,,,,,,,,,,,,,,,,,,,,,,,,,,,,0.134981017,,,,,,,,,,,,,,,,,,,,566.6103618,567.3103847,567.5937485,568.2937543,568.5937684,569.2937979,569.2937979,569.6438207,left,1,10,-30,-20,1,574.3606872,574.3606872,574.3606872,None,None,2,0,1.1986119,,,,,,,,,,,,,,,,,,,,,,10,3,2,2024-10-21_08h32.12.942,uWM_experiment,2022.2.3,59.99649621
,,,,,,,,,,,,,,,,,,,,0,0,0,0,1,0,1,0,,,,,,,,,,,,,,,,,,,,,,,,,,,,,,,,,,,,,,,,,,,,,,,,,,,,,,,,,,,,,,,,,,,,,,0.124981017,,,,,,,,,,,,,,,,,,,,,,,,,,,,right,1,70,30,100,1,581.494293,581.494293,581.494293,None,None,2,0,0.9290926,,,,,,,,,,,,,,,,,,,,,,10,3,2,2024-10-21_08h32.12.942,uWM_experiment,2022.2.3,59.99649621
,,,,,,,,,,,,,,,,,,,,0,0,0,0,2,0,2,0,,,,,,,,,,,,,,,,,,,,,,,,,,,,,,,,,,,,,,,,,,,,,,,,,,,,,,,,,,,,,,,,,,,,,,0.114981017,,,,,,,,,,,,,,,,,,,,,,,,,,,,right,1,130,30,160,1,587.9945742,587.9945742,587.9945742,None,None,2,0,0.7567169,,,,,,,,,,,,,,,,,,,,,,10,3,2,2024-10-21_08h32.12.942,uWM_experiment,2022.2.3,59.99649621
,,,,,,,,,,,,,,,,,,,,0,0,0,0,3,0,3,0,,,,,,,,,,,,,,,,,,,,,,,,,,,,,,,,,,,,,,,,,,,,,,,,,,,,,,,,,,,,,,,,,,,,,,0,,,,,,,,,,,,,,,,,,,,,,,,,,,,left,0,70,30,100,0,594.7281554,594.7281554,594.7281554,None,None,2,0,2.343115,,,,,,,,,,,,,,,,,,,,,,10,3,2,2024-10-21_08h32.12.942,uWM_experiment,2022.2.3,59.99649621
,,,,,,,,,,,,,,,,,,,,0,0,0,0,4,0,4,0,,,,,,,,,,,,,,,,,,,,,,,,,,,,,,,,,,,,,,,,,,,,,,,,,,,,,,,,,,,,,,,,,,,,,,0.104981017,,,,,,,,,,,,,,,,,,,,,,,,,,,,left,1,160,-30,130,1,602.9118458,602.9118458,602.9118458,None,None,2,0,0.8394169,,,,,,,,,,,,,,,,,,,,,,10,3,2,2024-10-21_08h32.12.942,uWM_experiment,2022.2.3,59.99649621
,,,,,,,,,,,,,,,,,,,,0,0,0,0,5,0,5,0,,,,,,,,,,,,,,,,,,,,,,,,,,,,,,,,,,,,,,,,,,,,,,,,,,,,,,,,,,,,,,,,,,,,,,0.1,,,,,,,,,,,,,,,,,,,,,,,,,,,,left,1,160,-30,130,2,609.6121149,609.6121149,609.6121149,None,None,4,0,0.9310745,,,,,,,,,,,,,,,,,,,,,,10,3,2,2024-10-21_08h32.12.942,uWM_experiment,2022.2.3,59.99649621
,,,,,,,,,,,,,,,,,,,,0,0,0,0,6,0,6,0,,,,,,,,,,,,,,,,,,,,,,,,,,,,,,,,,,,,,,,,,,,,,,,,,,,,,,,,,,,,,,,,,,,,,,0.094981017,,,,,,,,,,,,,,,,,,,,,,,,,,,,left,0,40,30,70,1,616.4457475,616.4457475,616.4457475,None,None,1,1,1.4013353,,,,,,,,,,,,,,,,,,,,,,10,3,2,2024-10-21_08h32.12.942,uWM_experiment,2022.2.3,59.99649621
,,,,,,,,,,,,,,,,,,,,0,0,0,0,7,0,7,0,,,,,,,,,,,,,,,,,,,,,,,,,,,,,,,,,,,,,,,,,,,,,,,,,,,,,,,,,,,,,,,,,,,,,,0.104981017,,,,,,,,,,,,,,,,,,,,,,,,,,,,right,1,10,30,40,1,623.6127137,623.6127137,623.6127137,None,None,2,0,1.2904618,,,,,,,,,,,,,,,,,,,,,,10,3,2,2024-10-21_08h32.12.942,uWM_experiment,2022.2.3,59.99649621
,,,,,,,,,,,,,,,,,,,,0,0,0,0,8,0,8,0,,,,,,,,,,,,,,,,,,,,,,,,,,,,,,,,,,,,,,,,,,,,,,,,,,,,,,,,,,,,,,,,,,,,,,0.094981017,,,,,,,,,,,,,,,,,,,,,,,,,,,,left,1,130,-30,100,1,630.6130239,630.6130239,630.6130239,None,None,2,0,1.1781258,,,,,,,,,,,,,,,,,,,,,,10,3,2,2024-10-21_08h32.12.942,uWM_experiment,2022.2.3,59.99649621
,,,,,,,,,,,,,,,,,,,,0,0,0,0,9,0,9,0,,,,,,,,,,,,,,,,,,,,,,,,,,,,,,,,,,,,,,,,,,,,,,,,,,,,,,,,,,,,,,,,,,,,,,0.084981017,,,,,,,,,,,,,,,,,,,,,,,,,,,,right,1,130,30,160,1,637.5299252,637.5299252,637.5299252,None,None,2,0,1.1892418,,,,,,,,,,,,,,,,,,,,,,10,3,2,2024-10-21_08h32.12.942,uWM_experiment,2022.2.3,59.99649621
,,,,,,,,,,,,,,,,,,,,0,0,0,0,10,0,10,0,,,,,,,,,,,,,,,,,,,,,,,,,,,,,,,,,,,,,,,,,,,,,,,,,,,,,,,,,,,,,,,,,,,,,,0.074981017,,,,,,,,,,,,,,,,,,,,,,,,,,,,left,1,10,-30,-20,1,644.6135705,644.6135705,644.6135705,None,None,2,0,0.8336793,,,,,,,,,,,,,,,,,,,,,,10,3,2,2024-10-21_08h32.12.942,uWM_experiment,2022.2.3,59.99649621
,,,,,,,,,,,,,,,,,,,,0,0,0,0,11,0,11,0,,,,,,,,,,,,,,,,,,,,,,,,,,,,,,,,,,,,,,,,,,,,,,,,,,,,,,,,,,,,,,,,,,,,,,0.064981017,,,,,,,,,,,,,,,,,,,,,,,,,,,,right,1,160,30,190,1,651.2471378,651.2471378,651.2471378,None,None,2,0,1.1678716,,,,,,,,,,,,,,,,,,,,,,10,3,2,2024-10-21_08h32.12.942,uWM_experiment,2022.2.3,59.99649621
,,,,,,,,,,,,,,,,,,,,0,0,0,0,12,0,12,0,,,,,,,,,,,,,,,,,,,,,,,,,,,,,,,,,,,,,,,,,,,,,,,,,,,,,,,,,,,,,,,,,,,,,,0,,,,,,,,,,,,,,,,,,,,,,,,,,,,left,0,130,30,160,0,658.4474527,658.4474527,658.4474527,None,None,2,0,1.3435717,,,,,,,,,,,,,,,,,,,,,,10,3,2,2024-10-21_08h32.12.942,uWM_experiment,2022.2.3,59.99649621
,,,,,,,,,,,,,,,,,,,,0,0,0,0,13,0,13,0,,,,,,,,,,,,,,,,,,,,,,,,,,,,,,,,,,,,,,,,,,,,,,,,,,,,,,,,,,,,,,,,,,,,,,0.054981017,,,,,,,,,,,,,,,,,,,,,,,,,,,,left,1,160,-30,130,1,666.8311472,666.8311472,666.8311472,None,None,2,0,0.7677754,,,,,,,,,,,,,,,,,,,,,,10,3,2,2024-10-21_08h32.12.942,uWM_experiment,2022.2.3,59.99649621
,,,,,,,,,,,,,,,,,,,,0,0,0,0,14,0,14,0,,,,,,,,,,,,,,,,,,,,,,,,,,,,,,,,,,,,,,,,,,,,,,,,,,,,,,,,,,,,,,,,,,,,,,0.044981017,,,,,,,,,,,,,,,,,,,,,,,,,,,,right,1,100,30,130,1,673.9813991,673.9813991,673.9813991,None,None,2,0,1.1935713,,,,,,,,,,,,,,,,,,,,,,10,3,2,2024-10-21_08h32.12.942,uWM_experiment,2022.2.3,59.99649621
,,,,,,,,,,,,,,,,,,,,0,0,0,0,15,0,15,0,,,,,,,,,,,,,,,,,,,,,,,,,,,,,,,,,,,,,,,,,,,,,,,,,,,,,,,,,,,,,,,,,,,,,,0.034981017,,,,,,,,,,,,,,,,,,,,,,,,,,,,left,0,130,30,160,1,681.1817138,681.1817138,681.1817138,None,None,2,0,0.6733199,,,,,,,,,,,,,,,,,,,,,,10,3,2,2024-10-21_08h32.12.942,uWM_experiment,2022.2.3,59.99649621
,,,,,,,,,,,,,,,,,,,,0,0,0,0,16,0,16,0,,,,,,,,,,,,,,,,,,,,,,,,,,,,,,,,,,,,,,,,,,,,,,,,,,,,,,,,,,,,,,,,,,,,,,0.024981017,,,,,,,,,,,,,,,,,,,,,,,,,,,,right,0,100,-30,70,1,687.6653248,687.6653248,687.6653248,None,None,2,0,0.8695249,,,,,,,,,,,,,,,,,,,,,,10,3,2,2024-10-21_08h32.12.942,uWM_experiment,2022.2.3,59.99649621
,,,,,,,,,,,,,,,,,,,,0,0,0,0,17,0,17,0,,,,,,,,,,,,,,,,,,,,,,,,,,,,,,,,,,,,,,,,,,,,,,,,,,,,,,,,,,,,,,,,,,,,,,0.014981017,,,,,,,,,,,,,,,,,,,,,,,,,,,,left,1,130,-30,100,1,694.298928,694.298928,694.298928,None,None,2,0,0.9240111,,,,,,,,,,,,,,,,,,,,,,10,3,2,2024-10-21_08h32.12.942,uWM_experiment,2022.2.3,59.99649621
,,,,,,,,,,,,,,,,,,,,0,0,0,0,18,0,18,0,,,,,,,,,,,,,,,,,,,,,,,,,,,,,,,,,,,,,,,,,,,,,,,,,,,,,,,,,,,,,,,,,,,,,,0.005,,,,,,,,,,,,,,,,,,,,,,,,,,,,left,0,100,30,130,1,700.9492035,700.9492035,700.9492035,None,None,1,1,0.9135939,,,,,,,,,,,,,,,,,,,,,,10,3,2,2024-10-21_08h32.12.942,uWM_experiment,2022.2.3,59.99649621
,,,,,,,,,,,,,,,,,,,,0,0,0,0,19,0,19,0,,,,,,,,,,,,,,,,,,,,,,,,,,,,,,,,,,,,,,,,,,,,,,,,,,,,,,,,,,,,,,,,,,,,,,0,,,,,,,,,,,,,,,,,,,,,,,,,,,,right,1,40,30,70,0,708.8328494,708.8328494,708.8328494,None,None,2,0,0.6379239,,,,,,,,,,,,,,,,,,,,,,10,3,2,2024-10-21_08h32.12.942,uWM_experiment,2022.2.3,59.99649621
,,,,,,,,,,,,,,,,,,,,0,0,0,0,20,0,20,0,,,,,,,,,,,,,,,,,,,,,,,,,,,,,,,,,,,,,,,,,,,,,,,,,,,,,,,,,,,,,,,,,,,,,,0,,,,,,,,,,,,,,,,,,,,,,,,,,,,left,0,100,30,130,0,715.2664705,715.2664705,715.2664705,None,None,1,1,0.7963971,,,,,,,,,,,,,,,,,,,,,,10,3,2,2024-10-21_08h32.12.942,uWM_experiment,2022.2.3,59.99649621
,,,,,,,,,,,,,,,,,,,,0,0,0,0,21,0,21,0,,,,,,,,,,,,,,,,,,,,,,,,,,,,,,,,,,,,,,,,,,,,,,,,,,,,,,,,,,,,,,,,,,,,,,0.1,,,,,,,,,,,,,,,,,,,,,,,,,,,,right,1,130,30,160,2,721.9833805,721.9833805,721.9833805,None,None,4,0,1.2074991,,,,,,,,,,,,,,,,,,,,,,10,3,2,2024-10-21_08h32.12.942,uWM_experiment,2022.2.3,59.99649621
,,,,,,,,,,,,,,,,,,,,0,0,0,0,22,0,22,0,,,,,,,,,,,,,,,,,,,,,,,,,,,,,,,,,,,,,,,,,,,,,,,,,,,,,,,,,,,,,,,,,,,,,,0.015,,,,,,,,,,,,,,,,,,,,,,,,,,,,right,0,40,-30,10,1,730.1503915,730.1503915,730.1503915,None,None,1,1,0.3284286,,,,,,,,,,,,,,,,,,,,,,10,3,2,2024-10-21_08h32.12.942,uWM_experiment,2022.2.3,59.99649621
,,,,,,,,,,,,,,,,,,,,0,0,0,0,23,0,23,0,,,,,,,,,,,,,,,,,,,,,,,,,,,,,,,,,,,,,,,,,,,,,,,,,,,,,,,,,,,,,,,,,,,,,,0.025,,,,,,,,,,,,,,,,,,,,,,,,,,,,left,0,130,30,160,1,737.5673487,737.5673487,737.5673487,None,None,1,1,0.3994859,,,,,,,,,,,,,,,,,,,,,,10,3,2,2024-10-21_08h32.12.942,uWM_experiment,2022.2.3,59.99649621
,,,,,,,,,,,,,,,,,,,,0,0,0,0,,,,,0,0,0,0,,,,,,,,,,,,,,,,,,,,,,,,,,,,,,,,,,,,,,,,,,,,,,,,,,,,,,,,,,,,,,,,,,,,,,,,,,,,,,,,,,,,,,,,,,,,,,,,,,,,,,,,,,,,737.9840277,737.9840277,space,5.3027855,None,None,,,,,,,,,,,,,,,,10,3,2,2024-10-21_08h32.12.942,uWM_experiment,2022.2.3,59.99649621
,,,,,,,,,,,,,,,,,,,,0,0,0,0,,,,,1,0,1,0,,,,,,,,,,,,,,,,,,,,,,,,,,,,,,,,,,,,,,,,,,,,,,,,,,,,,,,,,,,,,,,,,,,,,,,,,,,,,,,,,,,,,,,,,,,,,,,,,,,,,,,,,,,,,,,,,,,,,,,,,,,,,,,,,10,3,2,2024-10-21_08h32.12.942,uWM_experiment,2022.2.3,59.99649621
,,,,,,,,,,,,,,,,,,,,0,0,0,0,,,,,2,0,2,0,,,,,,,,,,,,,,,,,,,,,,,,,,,,,,,,,,,,,,,,,,,,,,,,,,,,,,,,,,,,,,,,,,,,,,,,,,,,,,,,,,,,,,,,,,,,,,,,,,,,,,,,,,,,,,,,,,,,,,,,,,,,,,,,,10,3,2,2024-10-21_08h32.12.942,uWM_experiment,2022.2.3,59.99649621
,,,,,,,,,,,,,,,,,,,,1,0,1,0,0,0,0,0,,,,,,,,,,,,,,,,,,,,,,,,,,,,,,,,,,,,,,,,,,,,,,,,,,,,,,,,,,,,,,,,,,,,,,0.035,,,,,,,,,,,,,,,,,,,,743.3176003,744.0176341,744.3176182,745.0176416,745.3176646,746.0176939,746.0176939,746.3343877,right,1,10,30,40,1,751.2179144,751.2179144,751.2179144,None,None,1,1,1.8687113,,,,,,,None,,,,,,,,,,,,,,,10,3,2,2024-10-21_08h32.12.942,uWM_experiment,2022.2.3,59.99649621
,,,,,,,,,,,,,,,,,,,,1,0,1,0,1,0,1,0,,,,,,,,,,,,,,,,,,,,,,,,,,,,,,,,,,,,,,,,,,,,,,,,,,,,,,,,,,,,,,,,,,,,,,0.1,,,,,,,,,,,,,,,,,,,,,,,,,,,,right,1,100,30,130,2,758.9849241,758.9849241,758.9849241,None,None,4,0,0.9738066,,,,,,,,,,,,,,,,,,,,,,10,3,2,2024-10-21_08h32.12.942,uWM_experiment,2022.2.3,59.99649621
,,,,,,,,,,,,,,,,,,,,1,0,1,0,2,0,2,0,,,,,,,,,,,,,,,,,,,,,,,,,,,,,,,,,,,,,,,,,,,,,,,,,,,,,,,,,,,,,,,,,,,,,,0.045,,,,,,,,,,,,,,,,,,,,,,,,,,,,left,1,70,-30,40,1,767.6852487,767.6852487,767.6852487,None,None,2,0,0.7213758,,,,,,,,,,,,,,,,,,,,,,10,3,2,2024-10-21_08h32.12.942,uWM_experiment,2022.2.3,59.99649621
,,,,,,,,,,,,,,,,,,,,1,0,1,0,3,0,3,0,,,,,,,,,,,,,,,,,,,,,,,,,,,,,,,,,,,,,,,,,,,,,,,,,,,,,,,,,,,,,,,,,,,,,,0.035,,,,,,,,,,,,,,,,,,,,,,,,,,,,left,0,100,30,130,1,774.2521738,774.2521738,774.2521738,None,None,1,1,0.794558,,,,,,,,,,,,,,,,,,,,,,10,3,2,2024-10-21_08h32.12.942,uWM_experiment,2022.2.3,59.99649621
,,,,,,,,,,,,,,,,,,,,1,0,1,0,4,0,4,0,,,,,,,,,,,,,,,,,,,,,,,,,,,,,,,,,,,,,,,,,,,,,,,,,,,,,,,,,,,,,,,,,,,,,,0.045,,,,,,,,,,,,,,,,,,,,,,,,,,,,left,0,130,30,160,1,780.6857654,780.6857654,780.6857654,None,None,1,1,0.5608986,,,,,,,,,,,,,,,,,,,,,,10,3,2,2024-10-21_08h32.12.942,uWM_experiment,2022.2.3,59.99649621
,,,,,,,,,,,,,,,,,,,,1,0,1,0,5,0,5,0,,,,,,,,,,,,,,,,,,,,,,,,,,,,,,,,,,,,,,,,,,,,,,,,,,,,,,,,,,,,,,,,,,,,,,0.1,,,,,,,,,,,,,,,,,,,,,,,,,,,,right,1,160,30,190,2,787.252754,787.252754,787.252754,None,None,4,0,1.065855,,,,,,,,,,,,,,,,,,,,,,10,3,2,2024-10-21_08h32.12.942,uWM_experiment,2022.2.3,59.99649621
,,,,,,,,,,,,,,,,,,,,1,0,1,0,6,0,6,0,,,,,,,,,,,,,,,,,,,,,,,,,,,,,,,,,,,,,,,,,,,,,,,,,,,,,,,,,,,,,,,,,,,,,,0,,,,,,,,,,,,,,,,,,,,,,,,,,,,right,1,10,30,40,0,793.7529938,793.7529938,793.7529938,None,None,1,1,0.6695704,,,,,,,,,,,,,,,,,,,,,,10,3,2,2024-10-21_08h32.12.942,uWM_experiment,2022.2.3,59.99649621
,,,,,,,,,,,,,,,,,,,,1,0,1,0,7,0,7,0,,,,,,,,,,,,,,,,,,,,,,,,,,,,,,,,,,,,,,,,,,,,,,,,,,,,,,,,,,,,,,,,,,,,,,0.055,,,,,,,,,,,,,,,,,,,,,,,,,,,,right,0,100,-30,70,1,800.8199421,800.8199421,800.8199421,None,None,2,0,0.8586553,,,,,,,,,,,,,,,,,,,,,,10,3,2,2024-10-21_08h32.12.942,uWM_experiment,2022.2.3,59.99649621
,,,,,,,,,,,,,,,,,,,,1,0,1,0,8,0,8,0,,,,,,,,,,,,,,,,,,,,,,,,,,,,,,,,,,,,,,,,,,,,,,,,,,,,,,,,,,,,,,,,,,,,,,0.045,,,,,,,,,,,,,,,,,,,,,,,,,,,,right,0,100,-30,70,1,807.6202093,807.6202093,807.6202093,None,None,2,0,0.9783649,,,,,,,,,,,,,,,,,,,,,,10,3,2,2024-10-21_08h32.12.942,uWM_experiment,2022.2.3,59.99649621
,,,,,,,,,,,,,,,,,,,,1,0,1,0,9,0,9,0,,,,,,,,,,,,,,,,,,,,,,,,,,,,,,,,,,,,,,,,,,,,,,,,,,,,,,,,,,,,,,,,,,,,,,0.035,,,,,,,,,,,,,,,,,,,,,,,,,,,,left,1,40,-30,10,1,814.58716,814.58716,814.58716,None,None,2,0,1.7153703,,,,,,,,,,,,,,,,,,,,,,10,3,2,2024-10-21_08h32.12.942,uWM_experiment,2022.2.3,59.99649621
,,,,,,,,,,,,,,,,,,,,1,0,1,0,10,0,10,0,,,,,,,,,,,,,,,,,,,,,,,,,,,,,,,,,,,,,,,,,,,,,,,,,,,,,,,,,,,,,,,,,,,,,,0.025,,,,,,,,,,,,,,,,,,,,,,,,,,,,right,1,10,30,40,1,822.1208295,822.1208295,822.1208295,None,None,2,0,1.0375991,,,,,,,,,,,,,,,,,,,,,,10,3,2,2024-10-21_08h32.12.942,uWM_experiment,2022.2.3,59.99649621
,,,,,,,,,,,,,,,,,,,,1,0,1,0,11,0,11,0,,,,,,,,,,,,,,,,,,,,,,,,,,,,,,,,,,,,,,,,,,,,,,,,,,,,,,,,,,,,,,,,,,,,,,0.1,,,,,,,,,,,,,,,,,,,,,,,,,,,,left,0,130,30,160,2,830.2878005,830.2878005,830.2878005,None,None,3,0,1.2307081,,,,,,,,,,,,,,,,,,,,,,10,3,2,2024-10-21_08h32.12.942,uWM_experiment,2022.2.3,59.99649621
,,,,,,,,,,,,,,,,,,,,1,0,1,0,12,0,12,0,,,,,,,,,,,,,,,,,,,,,,,,,,,,,,,,,,,,,,,,,,,,,,,,,,,,,,,,,,,,,,,,,,,,,,0.1,,,,,,,,,,,,,,,,,,,,,,,,,,,,left,1,160,-30,130,2,837.2881128,837.2881128,837.2881128,None,None,4,0,1.0783839,,,,,,,,,,,,,,,,,,,,,,10,3,2,2024-10-21_08h32.12.942,uWM_experiment,2022.2.3,59.99649621
,,,,,,,,,,,,,,,,,,,,1,0,1,0,13,0,13,0,,,,,,,,,,,,,,,,,,,,,,,,,,,,,,,,,,,,,,,,,,,,,,,,,,,,,,,,,,,,,,,,,,,,,,0.015,,,,,,,,,,,,,,,,,,,,,,,,,,,,left,0,70,30,100,1,844.1717199,844.1717199,844.1717199,None,None,2,0,1.0186444,,,,,,,,,,,,,,,,,,,,,,10,3,2,2024-10-21_08h32.12.942,uWM_experiment,2022.2.3,59.99649621
,,,,,,,,,,,,,,,,,,,,1,0,1,0,14,0,14,0,,,,,,,,,,,,,,,,,,,,,,,,,,,,,,,,,,,,,,,,,,,,,,,,,,,,,,,,,,,,,,,,,,,,,,0.005,,,,,,,,,,,,,,,,,,,,,,,,,,,,left,1,40,-30,10,1,851.5553542,851.5553542,851.5553542,None,None,2,0,1.0349907,,,,,,,,,,,,,,,,,,,,,,10,3,2,2024-10-21_08h32.12.942,uWM_experiment,2022.2.3,59.99649621
,,,,,,,,,,,,,,,,,,,,1,0,1,0,15,0,15,0,,,,,,,,,,,,,,,,,,,,,,,,,,,,,,,,,,,,,,,,,,,,,,,,,,,,,,,,,,,,,,,,,,,,,,0.005,,,,,,,,,,,,,,,,,,,,,,,,,,,,right,0,70,-30,40,1,858.3222809,858.3222809,858.3222809,None,None,2,0,0.9241185,,,,,,,,,,,,,,,,,,,,,,10,3,2,2024-10-21_08h32.12.942,uWM_experiment,2022.2.3,59.99649621
,,,,,,,,,,,,,,,,,,,,1,0,1,0,16,0,16,0,,,,,,,,,,,,,,,,,,,,,,,,,,,,,,,,,,,,,,,,,,,,,,,,,,,,,,,,,,,,,,,,,,,,,,0.005,,,,,,,,,,,,,,,,,,,,,,,,,,,,left,0,160,30,190,1,865.6225894,865.6225894,865.6225894,None,None,2,0,1.231753,,,,,,,,,,,,,,,,,,,,,,10,3,2,2024-10-21_08h32.12.942,uWM_experiment,2022.2.3,59.99649621
,,,,,,,,,,,,,,,,,,,,1,0,1,0,17,0,17,0,,,,,,,,,,,,,,,,,,,,,,,,,,,,,,,,,,,,,,,,,,,,,,,,,,,,,,,,,,,,,,,,,,,,,,0.005,,,,,,,,,,,,,,,,,,,,,,,,,,,,left,0,100,30,130,1,872.5728762,872.5728762,872.5728762,None,None,2,0,0.9533966,,,,,,,,,,,,,,,,,,,,,,10,3,2,2024-10-21_08h32.12.942,uWM_experiment,2022.2.3,59.99649621
,,,,,,,,,,,,,,,,,,,,1,0,1,0,18,0,18,0,,,,,,,,,,,,,,,,,,,,,,,,,,,,,,,,,,,,,,,,,,,,,,,,,,,,,,,,,,,,,,,,,,,,,,0,,,,,,,,,,,,,,,,,,,,,,,,,,,,right,1,10,30,40,0,879.2564641,879.2564641,879.2564641,None,None,2,0,1.0938771,,,,,,,,,,,,,,,,,,,,,,10,3,2,2024-10-21_08h32.12.942,uWM_experiment,2022.2.3,59.99649621
,,,,,,,,,,,,,,,,,,,,1,0,1,0,19,0,19,0,,,,,,,,,,,,,,,,,,,,,,,,,,,,,,,,,,,,,,,,,,,,,,,,,,,,,,,,,,,,,,,,,,,,,,0,,,,,,,,,,,,,,,,,,,,,,,,,,,,left,0,10,30,40,0,886.3067885,886.3067885,886.3067885,None,None,2,0,1.2034198,,,,,,,,,,,,,,,,,,,,,,10,3,2,2024-10-21_08h32.12.942,uWM_experiment,2022.2.3,59.99649621
,,,,,,,,,,,,,,,,,,,,1,0,1,0,20,0,20,0,,,,,,,,,,,,,,,,,,,,,,,,,,,,,,,,,,,,,,,,,,,,,,,,,,,,,,,,,,,,,,,,,,,,,,0,,,,,,,,,,,,,,,,,,,,,,,,,,,,left,1,130,-30,100,0,894.6570912,894.6570912,894.6570912,None,None,1,1,0.4612673,,,,,,,,,,,,,,,,,,,,,,10,3,2,2024-10-21_08h32.12.942,uWM_experiment,2022.2.3,59.99649621
,,,,,,,,,,,,,,,,,,,,1,0,1,0,21,0,21,0,,,,,,,,,,,,,,,,,,,,,,,,,,,,,,,,,,,,,,,,,,,,,,,,,,,,,,,,,,,,,,,,,,,,,,0,,,,,,,,,,,,,,,,,,,,,,,,,,,,left,1,160,-30,130,0,900.8907297,900.8907297,900.8907297,None,None,1,1,1.4916044,,,,,,,,,,,,,,,,,,,,,,10,3,2,2024-10-21_08h32.12.942,uWM_experiment,2022.2.3,59.99649621
,,,,,,,,,,,,,,,,,,,,1,0,1,0,22,0,22,0,,,,,,,,,,,,,,,,,,,,,,,,,,,,,,,,,,,,,,,,,,,,,,,,,,,,,,,,,,,,,,,,,,,,,,0,,,,,,,,,,,,,,,,,,,,,,,,,,,,right,1,100,30,130,0,908.7076972,908.7076972,908.7076972,None,None,2,0,5.1864249,,,,,,,,,,,,,,,,,,,,,,10,3,2,2024-10-21_08h32.12.942,uWM_experiment,2022.2.3,59.99649621
,,,,,,,,,,,,,,,,,,,,1,0,1,0,23,0,23,0,,,,,,,,,,,,,,,,,,,,,,,,,,,,,,,,,,,,,,,,,,,,,,,,,,,,,,,,,,,,,,,,,,,,,,0.005,,,,,,,,,,,,,,,,,,,,,,,,,,,,right,1,40,30,70,1,919.5414626,919.5414626,919.5414626,None,None,1,1,0.4247629,,,,,,,,,,,,,,,,,,,,,,10,3,2,2024-10-21_08h32.12.942,uWM_experiment,2022.2.3,59.99649621
,,,,,,,,,,,,,,,,,,,,1,0,1,0,,,,,0,0,0,0,,,,,,,,,,,,,,,,,,,,,,,,,,,,,,,,,,,,,,,,,,,,,,,,,,,,,,,,,,,,,,,,,,,,,,,,,,,,,,,,,,,,,,,,,,,,,,,,,,,,,,,,,,,,919.9914812,919.9914812,space,24.5745826,None,None,,,,,,,,,,,,,,,,10,3,2,2024-10-21_08h32.12.942,uWM_experiment,2022.2.3,59.99649621
,,,,,,,,,,,,,,,,,,,,1,0,1,0,,,,,1,0,1,0,,,,,,,,,,,,,,,,,,,,,,,,,,,,,,,,,,,,,,,,,,,,,,,,,,,,,,,,,,,,,,,,,,,,,,,,,,,,,,,,,,,,,,,,,,,,,,,,,,,,,,,,,,,,,,,,,,,,,,,,,,,,,,,,,10,3,2,2024-10-21_08h32.12.942,uWM_experiment,2022.2.3,59.99649621
,,,,,,,,,,,,,,,,,,,,1,0,1,0,,,,,2,0,2,0,,,,,,,,,,,,,,,,,,,,,,,,,,,,,,,,,,,,,,,,,,,,,,,,,,,,,,,,,,,,,,,,,,,,,,,,,,,,,,,,,,,,,,,,,,,,,,,,,,,,,,,,,,,,,,,,,,,,,,,,,,,,,,,,,10,3,2,2024-10-21_08h32.12.942,uWM_experiment,2022.2.3,59.99649621
,,,,,,,,,,,,,,,,,,,,2,0,2,0,0,0,0,0,,,,,,,,,,,,,,,,,,,,,,,,,,,,,,,,,,,,,,,,,,,,,,,,,,,,,,,,,,,,,,,,,,,,,,0.015,,,,,,,,,,,,,,,,,,,,944.5924806,945.2924922,945.5925192,946.2925475,946.5925622,947.2926106,947.2926106,947.6092767,right,0,130,-30,100,1,952.0428025,952.0428025,952.0428025,None,None,1,1,0.7872111,,,,,,,None,,,,,,,,,,,,,,,10,3,2,2024-10-21_08h32.12.942,uWM_experiment,2022.2.3,59.99649621
,,,,,,,,,,,,,,,,,,,,2,0,2,0,1,0,1,0,,,,,,,,,,,,,,,,,,,,,,,,,,,,,,,,,,,,,,,,,,,,,,,,,,,,,,,,,,,,,,,,,,,,,,0,,,,,,,,,,,,,,,,,,,,,,,,,,,,left,0,70,30,100,0,958.5597402,958.5597402,958.5597402,None,None,1,1,0.8623611,,,,,,,,,,,,,,,,,,,,,,10,3,2,2024-10-21_08h32.12.942,uWM_experiment,2022.2.3,59.99649621
,,,,,,,,,,,,,,,,,,,,2,0,2,0,2,0,2,0,,,,,,,,,,,,,,,,,,,,,,,,,,,,,,,,,,,,,,,,,,,,,,,,,,,,,,,,,,,,,,,,,,,,,,0.025,,,,,,,,,,,,,,,,,,,,,,,,,,,,right,1,40,30,70,1,965.0600356,965.0600356,965.0600356,None,None,1,1,0.7300399,,,,,,,,,,,,,,,,,,,,,,10,3,2,2024-10-21_08h32.12.942,uWM_experiment,2022.2.3,59.99649621
,,,,,,,,,,,,,,,,,,,,2,0,2,0,3,0,3,0,,,,,,,,,,,,,,,,,,,,,,,,,,,,,,,,,,,,,,,,,,,,,,,,,,,,,,,,,,,,,,,,,,,,,,0,,,,,,,,,,,,,,,,,,,,,,,,,,,,left,1,160,-30,130,0,971.6102706,971.6102706,971.6102706,None,None,1,1,1.0676573,,,,,,,,,,,,,,,,,,,,,,10,3,2,2024-10-21_08h32.12.942,uWM_experiment,2022.2.3,59.99649621
,,,,,,,,,,,,,,,,,,,,2,0,2,0,4,0,4,0,,,,,,,,,,,,,,,,,,,,,,,,,,,,,,,,,,,,,,,,,,,,,,,,,,,,,,,,,,,,,,,,,,,,,,0,,,,,,,,,,,,,,,,,,,,,,,,,,,,left,1,130,-30,100,0,978.7105354,978.7105354,978.7105354,None,None,2,0,1.0155004,,,,,,,,,,,,,,,,,,,,,,10,3,2,2024-10-21_08h32.12.942,uWM_experiment,2022.2.3,59.99649621
,,,,,,,,,,,,,,,,,,,,2,0,2,0,5,0,5,0,,,,,,,,,,,,,,,,,,,,,,,,,,,,,,,,,,,,,,,,,,,,,,,,,,,,,,,,,,,,,,,,,,,,,,0,,,,,,,,,,,,,,,,,,,,,,,,,,,,left,0,160,30,190,0,986.5108635,986.5108635,986.5108635,None,None,1,1,0.6951548,,,,,,,,,,,,,,,,,,,,,,10,3,2,2024-10-21_08h32.12.942,uWM_experiment,2022.2.3,59.99649621
,,,,,,,,,,,,,,,,,,,,2,0,2,0,6,0,6,0,,,,,,,,,,,,,,,,,,,,,,,,,,,,,,,,,,,,,,,,,,,,,,,,,,,,,,,,,,,,,,,,,,,,,,0,,,,,,,,,,,,,,,,,,,,,,,,,,,,left,0,130,30,160,0,992.7444318,992.7444318,992.7444318,None,None,1,1,0.3656001,,,,,,,,,,,,,,,,,,,,,,10,3,2,2024-10-21_08h32.12.942,uWM_experiment,2022.2.3,59.99649621
,,,,,,,,,,,,,,,,,,,,2,0,2,0,7,0,7,0,,,,,,,,,,,,,,,,,,,,,,,,,,,,,,,,,,,,,,,,,,,,,,,,,,,,,,,,,,,,,,,,,,,,,,0,,,,,,,,,,,,,,,,,,,,,,,,,,,,left,0,100,30,130,0,998.7947235,998.7947235,998.7947235,None,None,1,1,0.6272461,,,,,,,,,,,,,,,,,,,,,,10,3,2,2024-10-21_08h32.12.942,uWM_experiment,2022.2.3,59.99649621
,,,,,,,,,,,,,,,,,,,,2,0,2,0,8,0,8,0,,,,,,,,,,,,,,,,,,,,,,,,,,,,,,,,,,,,,,,,,,,,,,,,,,,,,,,,,,,,,,,,,,,,,,0.035,,,,,,,,,,,,,,,,,,,,,,,,,,,,left,1,130,-30,100,1,1004.944951,1004.944951,1004.944951,None,None,1,1,0.4529495,,,,,,,,,,,,,,,,,,,,,,10,3,2,2024-10-21_08h32.12.942,uWM_experiment,2022.2.3,59.99649621
,,,,,,,,,,,,,,,,,,,,2,0,2,0,9,0,9,0,,,,,,,,,,,,,,,,,,,,,,,,,,,,,,,,,,,,,,,,,,,,,,,,,,,,,,,,,,,,,,,,,,,,,,0.1,,,,,,,,,,,,,,,,,,,,,,,,,,,,right,1,160,30,190,2,1011.478541,1011.478541,1011.478541,None,None,4,0,1.5113892,,,,,,,,,,,,,,,,,,,,,,10,3,2,2024-10-21_08h32.12.942,uWM_experiment,2022.2.3,59.99649621
,,,,,,,,,,,,,,,,,,,,2,0,2,0,10,0,10,0,,,,,,,,,,,,,,,,,,,,,,,,,,,,,,,,,,,,,,,,,,,,,,,,,,,,,,,,,,,,,,,,,,,,,,0.045,,,,,,,,,,,,,,,,,,,,,,,,,,,,right,1,10,30,40,1,1018.712212,1018.712212,1018.712212,None,None,2,0,0.3175897,,,,,,,,,,,,,,,,,,,,,,10,3,2,2024-10-21_08h32.12.942,uWM_experiment,2022.2.3,59.99649621
,,,,,,,,,,,,,,,,,,,,2,0,2,0,11,0,11,0,,,,,,,,,,,,,,,,,,,,,,,,,,,,,,,,,,,,,,,,,,,,,,,,,,,,,,,,,,,,,,,,,,,,,,0.035,,,,,,,,,,,,,,,,,,,,,,,,,,,,left,1,160,-30,130,1,1024.712436,1024.712436,1024.712436,None,None,2,0,1.0294766,,,,,,,,,,,,,,,,,,,,,,10,3,2,2024-10-21_08h32.12.942,uWM_experiment,2022.2.3,59.99649621
,,,,,,,,,,,,,,,,,,,,2,0,2,0,12,0,12,0,,,,,,,,,,,,,,,,,,,,,,,,,,,,,,,,,,,,,,,,,,,,,,,,,,,,,,,,,,,,,,,,,,,,,,0.025,,,,,,,,,,,,,,,,,,,,,,,,,,,,right,1,10,30,40,1,1031.646067,1031.646067,1031.646067,None,None,1,1,0.5917289,,,,,,,,,,,,,,,,,,,,,,10,3,2,2024-10-21_08h32.12.942,uWM_experiment,2022.2.3,59.99649621
,,,,,,,,,,,,,,,,,,,,2,0,2,0,13,0,13,0,,,,,,,,,,,,,,,,,,,,,,,,,,,,,,,,,,,,,,,,,,,,,,,,,,,,,,,,,,,,,,,,,,,,,,0,,,,,,,,,,,,,,,,,,,,,,,,,,,,left,0,130,30,160,0,1037.946338,1037.946338,1037.946338,None,None,1,1,0.5234681,,,,,,,,,,,,,,,,,,,,,,10,3,2,2024-10-21_08h32.12.942,uWM_experiment,2022.2.3,59.99649621
,,,,,,,,,,,,,,,,,,,,2,0,2,0,14,0,14,0,,,,,,,,,,,,,,,,,,,,,,,,,,,,,,,,,,,,,,,,,,,,,,,,,,,,,,,,,,,,,,,,,,,,,,0.035,,,,,,,,,,,,,,,,,,,,,,,,,,,,left,1,160,-30,130,1,1044.52989,1044.52989,1044.52989,None,None,1,1,0.6759466,,,,,,,,,,,,,,,,,,,,,,10,3,2,2024-10-21_08h32.12.942,uWM_experiment,2022.2.3,59.99649621
,,,,,,,,,,,,,,,,,,,,2,0,2,0,15,0,15,0,,,,,,,,,,,,,,,,,,,,,,,,,,,,,,,,,,,,,,,,,,,,,,,,,,,,,,,,,,,,,,,,,,,,,,0.045,,,,,,,,,,,,,,,,,,,,,,,,,,,,right,1,70,30,100,1,1051.29684,1051.29684,1051.29684,None,None,2,0,0.5009051,,,,,,,,,,,,,,,,,,,,,,10,3,2,2024-10-21_08h32.12.942,uWM_experiment,2022.2.3,59.99649621
,,,,,,,,,,,,,,,,,,,,2,0,2,0,16,0,16,0,,,,,,,,,,,,,,,,,,,,,,,,,,,,,,,,,,,,,,,,,,,,,,,,,,,,,,,,,,,,,,,,,,,,,,0.035,,,,,,,,,,,,,,,,,,,,,,,,,,,,right,0,100,-30,70,1,1057.380442,1057.380442,1057.380442,None,None,1,1,0.321246,,,,,,,,,,,,,,,,,,,,,,10,3,2,2024-10-21_08h32.12.942,uWM_experiment,2022.2.3,59.99649621
,,,,,,,,,,,,,,,,,,,,2,0,2,0,17,0,17,0,,,,,,,,,,,,,,,,,,,,,,,,,,,,,,,,,,,,,,,,,,,,,,,,,,,,,,,,,,,,,,,,,,,,,,0.045,,,,,,,,,,,,,,,,,,,,,,,,,,,,right,1,40,30,70,1,1063.897352,1063.897352,1063.897352,None,None,1,1,0.5564223,,,,,,,,,,,,,,,,,,,,,,10,3,2,2024-10-21_08h32.12.942,uWM_experiment,2022.2.3,59.99649621
,,,,,,,,,,,,,,,,,,,,2,0,2,0,18,0,18,0,,,,,,,,,,,,,,,,,,,,,,,,,,,,,,,,,,,,,,,,,,,,,,,,,,,,,,,,,,,,,,,,,,,,,,0.055,,,,,,,,,,,,,,,,,,,,,,,,,,,,right,0,70,-30,40,1,1070.297629,1070.297629,1070.297629,None,None,1,1,0.8281123,,,,,,,,,,,,,,,,,,,,,,10,3,2,2024-10-21_08h32.12.942,uWM_experiment,2022.2.3,59.99649621
,,,,,,,,,,,,,,,,,,,,2,0,2,0,19,0,19,0,,,,,,,,,,,,,,,,,,,,,,,,,,,,,,,,,,,,,,,,,,,,,,,,,,,,,,,,,,,,,,,,,,,,,,0.065,,,,,,,,,,,,,,,,,,,,,,,,,,,,left,0,70,30,100,1,1076.847893,1076.847893,1076.847893,None,None,1,1,0.4938296,,,,,,,,,,,,,,,,,,,,,,10,3,2,2024-10-21_08h32.12.942,uWM_experiment,2022.2.3,59.99649621
,,,,,,,,,,,,,,,,,,,,2,0,2,0,20,0,20,0,,,,,,,,,,,,,,,,,,,,,,,,,,,,,,,,,,,,,,,,,,,,,,,,,,,,,,,,,,,,,,,,,,,,,,0,,,,,,,,,,,,,,,,,,,,,,,,,,,,right,0,70,-30,40,0,1083.031484,1083.031484,1083.031484,None,None,1,1,0.3581526,,,,,,,,,,,,,,,,,,,,,,10,3,2,2024-10-21_08h32.12.942,uWM_experiment,2022.2.3,59.99649621
,,,,,,,,,,,,,,,,,,,,2,0,2,0,21,0,21,0,,,,,,,,,,,,,,,,,,,,,,,,,,,,,,,,,,,,,,,,,,,,,,,,,,,,,,,,,,,,,,,,,,,,,,0,,,,,,,,,,,,,,,,,,,,,,,,,,,,left,0,100,30,130,0,1089.065059,1089.065059,1089.065059,None,None,1,1,0.3004927,,,,,,,,,,,,,,,,,,,,,,10,3,2,2024-10-21_08h32.12.942,uWM_experiment,2022.2.3,59.99649621
,,,,,,,,,,,,,,,,,,,,2,0,2,0,22,0,22,0,,,,,,,,,,,,,,,,,,,,,,,,,,,,,,,,,,,,,,,,,,,,,,,,,,,,,,,,,,,,,,,,,,,,,,0.075,,,,,,,,,,,,,,,,,,,,,,,,,,,,right,0,10,-30,-20,1,1095.582003,1095.582003,1095.582003,None,None,1,1,0.3195479,,,,,,,,,,,,,,,,,,,,,,10,3,2,2024-10-21_08h32.12.942,uWM_experiment,2022.2.3,59.99649621
,,,,,,,,,,,,,,,,,,,,2,0,2,0,23,0,23,0,,,,,,,,,,,,,,,,,,,,,,,,,,,,,,,,,,,,,,,,,,,,,,,,,,,,,,,,,,,,,,,,,,,,,,0.085,,,,,,,,,,,,,,,,,,,,,,,,,,,,left,0,70,30,100,1,1101.615594,1101.615594,1101.615594,None,None,2,0,0.862101,,,,,,,,,,,,,,,,,,,,,,10,3,2,2024-10-21_08h32.12.942,uWM_experiment,2022.2.3,59.99649621
,,,,,,,,,,,,,,,,,,,,2,0,2,0,,,,,0,0,0,0,,,,,,,,,,,,,,,,,,,,,,,,,,,,,,,,,,,,,,,,,,,,,,,,,,,,,,,,,,,,,,,,,,,,,,,,,,,,,,,,,,,,,,,,,,,,,,,,,,,,,,,,,,,,1102.498925,1102.498925,space,23.4267601,space,None,,1125.949875,1125.949875,6.967679,,,,,,,,,,,,10,3,2,2024-10-21_08h32.12.942,uWM_experiment,2022.2.3,59.99649621
,,,,,,,,,,,,,,,,,,,,2,0,2,0,,,,,1,0,1,0,,,,,,,,,,,,,,,,,,,,,,,,,,,,,,,,,,,,,,,,,,,,,,,,,,,,,,,,,,,,,,,,,,,,,,,,,,,,,,,,,,,,,,,,,,,,,,,,,,,,,,,,,,,,,,,,,,,,,,,,,,,,,,,,,10,3,2,2024-10-21_08h32.12.942,uWM_experiment,2022.2.3,59.99649621
,,,,,,,,,,,,,,,,,,,,2,0,2,0,,,,,2,0,2,0,,,,,,,,,,,,,,,,,,,,,,,,,,,,,,,,,,,,,,,,,,,,,,,,,,,,,,,,,,,,,,,,,,,,,,,,,,,,,,,,,,,,,,,,,,,,,,,,,,,,,,,,,,,,,,,,,,,,,,,,,,,,,,,,,10,3,2,2024-10-21_08h32.12.942,uWM_experiment,2022.2.3,59.99649621
,,,,,,,,,,,,,,,,,,,,3,0,3,0,0,0,0,0,,,,,,,,,,,,,,,,,,,,,,,,,,,,,,,,,,,,,,,,,,,,,,,,,,,,,,,,,,,,,,,,,,,,,,0.075,,,,,,,,,,,,,,,,,,,,1132.95018,1133.650209,1133.950217,1134.650246,1134.950258,1135.65029,1135.65029,1135.966971,left,0,70,30,100,1,1140.68382,1140.68382,1140.68382,None,None,2,0,0.8016128,,,,,,,None,,,,,,,,,,,,,,,10,3,2,2024-10-21_08h32.12.942,uWM_experiment,2022.2.3,59.99649621
,,,,,,,,,,,,,,,,,,,,3,0,3,0,1,0,1,0,,,,,,,,,,,,,,,,,,,,,,,,,,,,,,,,,,,,,,,,,,,,,,,,,,,,,,,,,,,,,,,,,,,,,,0.065,,,,,,,,,,,,,,,,,,,,,,,,,,,,left,1,10,-30,-20,1,1146.867405,1146.867405,1146.867405,None,None,2,0,0.7219958,,,,,,,,,,,,,,,,,,,,,,10,3,2,2024-10-21_08h32.12.942,uWM_experiment,2022.2.3,59.99649621
,,,,,,,,,,,,,,,,,,,,3,0,3,0,2,0,2,0,,,,,,,,,,,,,,,,,,,,,,,,,,,,,,,,,,,,,,,,,,,,,,,,,,,,,,,,,,,,,,,,,,,,,,0.055,,,,,,,,,,,,,,,,,,,,,,,,,,,,right,1,40,30,70,1,1153.184341,1153.184341,1153.184341,None,None,2,0,1.0931449,,,,,,,,,,,,,,,,,,,,,,10,3,2,2024-10-21_08h32.12.942,uWM_experiment,2022.2.3,59.99649621
,,,,,,,,,,,,,,,,,,,,3,0,3,0,3,0,3,0,,,,,,,,,,,,,,,,,,,,,,,,,,,,,,,,,,,,,,,,,,,,,,,,,,,,,,,,,,,,,,,,,,,,,,0.045,,,,,,,,,,,,,,,,,,,,,,,,,,,,right,0,40,-30,10,1,1159.951297,1159.951297,1159.951297,None,None,2,0,2.6781943,,,,,,,,,,,,,,,,,,,,,,10,3,2,2024-10-21_08h32.12.942,uWM_experiment,2022.2.3,59.99649621
,,,,,,,,,,,,,,,,,,,,3,0,3,0,4,0,4,0,,,,,,,,,,,,,,,,,,,,,,,,,,,,,,,,,,,,,,,,,,,,,,,,,,,,,,,,,,,,,,,,,,,,,,0.1,,,,,,,,,,,,,,,,,,,,,,,,,,,,left,0,70,30,100,2,1169.835007,1169.835007,1169.835007,None,None,3,0,2.31451,,,,,,,,,,,,,,,,,,,,,,10,3,2,2024-10-21_08h32.12.942,uWM_experiment,2022.2.3,59.99649621
,,,,,,,,,,,,,,,,,,,,3,0,3,0,5,0,5,0,,,,,,,,,,,,,,,,,,,,,,,,,,,,,,,,,,,,,,,,,,,,,,,,,,,,,,,,,,,,,,,,,,,,,,0.035,,,,,,,,,,,,,,,,,,,,,,,,,,,,left,1,10,-30,-20,1,1178.40205,1178.40205,1178.40205,None,None,2,0,0.4754753,,,,,,,,,,,,,,,,,,,,,,10,3,2,2024-10-21_08h32.12.942,uWM_experiment,2022.2.3,59.99649621
,,,,,,,,,,,,,,,,,,,,3,0,3,0,6,0,6,0,,,,,,,,,,,,,,,,,,,,,,,,,,,,,,,,,,,,,,,,,,,,,,,,,,,,,,,,,,,,,,,,,,,,,,0.025,,,,,,,,,,,,,,,,,,,,,,,,,,,,left,1,10,-30,-20,1,1184.91898,1184.91898,1184.91898,None,None,2,0,0.6382821,,,,,,,,,,,,,,,,,,,,,,10,3,2,2024-10-21_08h32.12.942,uWM_experiment,2022.2.3,59.99649621
,,,,,,,,,,,,,,,,,,,,3,0,3,0,7,0,7,0,,,,,,,,,,,,,,,,,,,,,,,,,,,,,,,,,,,,,,,,,,,,,,,,,,,,,,,,,,,,,,,,,,,,,,0.015,,,,,,,,,,,,,,,,,,,,,,,,,,,,right,0,40,-30,10,1,1191.152567,1191.152567,1191.152567,None,None,2,0,0.5408235,,,,,,,,,,,,,,,,,,,,,,10,3,2,2024-10-21_08h32.12.942,uWM_experiment,2022.2.3,59.99649621
,,,,,,,,,,,,,,,,,,,,3,0,3,0,8,0,8,0,,,,,,,,,,,,,,,,,,,,,,,,,,,,,,,,,,,,,,,,,,,,,,,,,,,,,,,,,,,,,,,,,,,,,,0.005,,,,,,,,,,,,,,,,,,,,,,,,,,,,left,1,10,-30,-20,1,1197.419463,1197.419463,1197.419463,None,None,1,1,0.3377765,,,,,,,,,,,,,,,,,,,,,,10,3,2,2024-10-21_08h32.12.942,uWM_experiment,2022.2.3,59.99649621
,,,,,,,,,,,,,,,,,,,,3,0,3,0,9,0,9,0,,,,,,,,,,,,,,,,,,,,,,,,,,,,,,,,,,,,,,,,,,,,,,,,,,,,,,,,,,,,,,,,,,,,,,0.015,,,,,,,,,,,,,,,,,,,,,,,,,,,,right,1,160,30,190,1,1203.786403,1203.786403,1203.786403,None,None,2,0,0.6508319,,,,,,,,,,,,,,,,,,,,,,10,3,2,2024-10-21_08h32.12.942,uWM_experiment,2022.2.3,59.99649621
,,,,,,,,,,,,,,,,,,,,3,0,3,0,10,0,10,0,,,,,,,,,,,,,,,,,,,,,,,,,,,,,,,,,,,,,,,,,,,,,,,,,,,,,,,,,,,,,,,,,,,,,,0.005,,,,,,,,,,,,,,,,,,,,,,,,,,,,left,1,10,-30,-20,1,1210.136688,1210.136688,1210.136688,None,None,1,1,0.3405312,,,,,,,,,,,,,,,,,,,,,,10,3,2,2024-10-21_08h32.12.942,uWM_experiment,2022.2.3,59.99649621
,,,,,,,,,,,,,,,,,,,,3,0,3,0,11,0,11,0,,,,,,,,,,,,,,,,,,,,,,,,,,,,,,,,,,,,,,,,,,,,,,,,,,,,,,,,,,,,,,,,,,,,,,0,,,,,,,,,,,,,,,,,,,,,,,,,,,,right,0,70,-30,40,0,1215.870255,1215.870255,1215.870255,None,None,1,1,0.3590218,,,,,,,,,,,,,,,,,,,,,,10,3,2,2024-10-21_08h32.12.942,uWM_experiment,2022.2.3,59.99649621
,,,,,,,,,,,,,,,,,,,,3,0,3,0,12,0,12,0,,,,,,,,,,,,,,,,,,,,,,,,,,,,,,,,,,,,,,,,,,,,,,,,,,,,,,,,,,,,,,,,,,,,,,0.015,,,,,,,,,,,,,,,,,,,,,,,,,,,,left,1,10,-30,-20,1,1221.870476,1221.870476,1221.870476,None,None,1,1,0.4228008,,,,,,,,,,,,,,,,,,,,,,10,3,2,2024-10-21_08h32.12.942,uWM_experiment,2022.2.3,59.99649621
,,,,,,,,,,,,,,,,,,,,3,0,3,0,13,0,13,0,,,,,,,,,,,,,,,,,,,,,,,,,,,,,,,,,,,,,,,,,,,,,,,,,,,,,,,,,,,,,,,,,,,,,,0,,,,,,,,,,,,,,,,,,,,,,,,,,,,left,0,100,30,130,0,1228.587442,1228.587442,1228.587442,None,None,1,1,0.6418106,,,,,,,,,,,,,,,,,,,,,,10,3,2,2024-10-21_08h32.12.942,uWM_experiment,2022.2.3,59.99649621
,,,,,,,,,,,,,,,,,,,,3,0,3,0,14,0,14,0,,,,,,,,,,,,,,,,,,,,,,,,,,,,,,,,,,,,,,,,,,,,,,,,,,,,,,,,,,,,,,,,,,,,,,0.025,,,,,,,,,,,,,,,,,,,,,,,,,,,,right,1,40,30,70,1,1234.854347,1234.854347,1234.854347,None,None,1,1,0.9748838,,,,,,,,,,,,,,,,,,,,,,10,3,2,2024-10-21_08h32.12.942,uWM_experiment,2022.2.3,59.99649621
,,,,,,,,,,,,,,,,,,,,3,0,3,0,15,0,15,0,,,,,,,,,,,,,,,,,,,,,,,,,,,,,,,,,,,,,,,,,,,,,,,,,,,,,,,,,,,,,,,,,,,,,,0.035,,,,,,,,,,,,,,,,,,,,,,,,,,,,right,0,10,-30,-20,1,1241.587935,1241.587935,1241.587935,None,None,2,0,0.9292927,,,,,,,,,,,,,,,,,,,,,,10,3,2,2024-10-21_08h32.12.942,uWM_experiment,2022.2.3,59.99649621
,,,,,,,,,,,,,,,,,,,,3,0,3,0,16,0,16,0,,,,,,,,,,,,,,,,,,,,,,,,,,,,,,,,,,,,,,,,,,,,,,,,,,,,,,,,,,,,,,,,,,,,,,0.025,,,,,,,,,,,,,,,,,,,,,,,,,,,,left,0,70,30,100,1,1248.421577,1248.421577,1248.421577,None,None,2,0,1.0076077,,,,,,,,,,,,,,,,,,,,,,10,3,2,2024-10-21_08h32.12.942,uWM_experiment,2022.2.3,59.99649621
,,,,,,,,,,,,,,,,,,,,3,0,3,0,17,0,17,0,,,,,,,,,,,,,,,,,,,,,,,,,,,,,,,,,,,,,,,,,,,,,,,,,,,,,,,,,,,,,,,,,,,,,,0.015,,,,,,,,,,,,,,,,,,,,,,,,,,,,left,1,160,-30,130,1,1255.088497,1255.088497,1255.088497,None,None,2,0,0.4606913,,,,,,,,,,,,,,,,,,,,,,10,3,2,2024-10-21_08h32.12.942,uWM_experiment,2022.2.3,59.99649621
,,,,,,,,,,,,,,,,,,,,3,0,3,0,18,0,18,0,,,,,,,,,,,,,,,,,,,,,,,,,,,,,,,,,,,,,,,,,,,,,,,,,,,,,,,,,,,,,,,,,,,,,,0,,,,,,,,,,,,,,,,,,,,,,,,,,,,left,0,70,30,100,0,1261.172086,1261.172086,1261.172086,None,None,2,0,0.9529605,,,,,,,,,,,,,,,,,,,,,,10,3,2,2024-10-21_08h32.12.942,uWM_experiment,2022.2.3,59.99649621
,,,,,,,,,,,,,,,,,,,,3,0,3,0,19,0,19,0,,,,,,,,,,,,,,,,,,,,,,,,,,,,,,,,,,,,,,,,,,,,,,,,,,,,,,,,,,,,,,,,,,,,,,0,,,,,,,,,,,,,,,,,,,,,,,,,,,,right,1,130,30,160,0,1267.922347,1267.922347,1267.922347,None,None,2,0,0.8107684,,,,,,,,,,,,,,,,,,,,,,10,3,2,2024-10-21_08h32.12.942,uWM_experiment,2022.2.3,59.99649621
,,,,,,,,,,,,,,,,,,,,3,0,3,0,20,0,20,0,,,,,,,,,,,,,,,,,,,,,,,,,,,,,,,,,,,,,,,,,,,,,,,,,,,,,,,,,,,,,,,,,,,,,,0,,,,,,,,,,,,,,,,,,,,,,,,,,,,right,0,40,-30,10,0,1274.339303,1274.339303,1274.339303,None,None,1,1,0.4738146,,,,,,,,,,,,,,,,,,,,,,10,3,2,2024-10-21_08h32.12.942,uWM_experiment,2022.2.3,59.99649621
,,,,,,,,,,,,,,,,,,,,3,0,3,0,21,0,21,0,,,,,,,,,,,,,,,,,,,,,,,,,,,,,,,,,,,,,,,,,,,,,,,,,,,,,,,,,,,,,,,,,,,,,,0.005,,,,,,,,,,,,,,,,,,,,,,,,,,,,left,1,130,-30,100,1,1280.556232,1280.556232,1280.556232,None,None,1,1,0.5448117,,,,,,,,,,,,,,,,,,,,,,10,3,2,2024-10-21_08h32.12.942,uWM_experiment,2022.2.3,59.99649621
,,,,,,,,,,,,,,,,,,,,3,0,3,0,22,0,22,0,,,,,,,,,,,,,,,,,,,,,,,,,,,,,,,,,,,,,,,,,,,,,,,,,,,,,,,,,,,,,,,,,,,,,,0.015,,,,,,,,,,,,,,,,,,,,,,,,,,,,right,0,100,-30,70,1,1286.789789,1286.789789,1286.789789,None,None,2,0,0.4871746,,,,,,,,,,,,,,,,,,,,,,10,3,2,2024-10-21_08h32.12.942,uWM_experiment,2022.2.3,59.99649621
,,,,,,,,,,,,,,,,,,,,3,0,3,0,23,0,23,0,,,,,,,,,,,,,,,,,,,,,,,,,,,,,,,,,,,,,,,,,,,,,,,,,,,,,,,,,,,,,,,,,,,,,,0.005,,,,,,,,,,,,,,,,,,,,,,,,,,,,right,1,10,30,40,1,1293.523392,1293.523392,1293.523392,None,None,1,1,0.8175462,,,,,,,,,,,,,,,,,,,,,,10,3,2,2024-10-21_08h32.12.942,uWM_experiment,2022.2.3,59.99649621
,,,,,,,,,,,,,,,,,,,,3,0,3,0,,,,,0,0,0,0,,,,,,,,,,,,,,,,,,,,,,,,,,,,,,,,,,,,,,,,,,,,,,,,,,,,,,,,,,,,,,,,,,,,,,,,,,,,,,,,,,,,,,,,,,,,,,,,,,,,,,,,,,,,1294.373422,1294.373422,space,60.4794652,None,None,,,,,,,,,,,,,,,,10,3,2,2024-10-21_08h32.12.942,uWM_experiment,2022.2.3,59.99649621
,,,,,,,,,,,,,,,,,,,,3,0,3,0,,,,,1,0,1,0,,,,,,,,,,,,,,,,,,,,,,,,,,,,,,,,,,,,,,,,,,,,,,,,,,,,,,,,,,,,,,,,,,,,,,,,,,,,,,,,,,,,,,,,,,,,,,,,,,,,,,,,,,,,,,,,,,,,,,,,,,,,,,,,,10,3,2,2024-10-21_08h32.12.942,uWM_experiment,2022.2.3,59.99649621
,,,,,,,,,,,,,,,,,,,,3,0,3,0,,,,,2,0,2,0,,,,,,,,,,,,,,,,,,,,,,,,,,,,,,,,,,,,,,,,,,,,,,,,,,,,,,,,,,,,,,,,,,,,,,,,,,,,,,,,,,,,,,,,,,,,,,,,,,,,,,,,,,,,,,,,,,,,,,,,,,,,,,,,,10,3,2,2024-10-21_08h32.12.942,uWM_experiment,2022.2.3,59.99649621
,,,,,,,,,,,,,,,,,,,,4,0,4,0,0,0,0,0,,,,,,,,,,,,,,,,,,,,,,,,,,,,,,,,,,,,,,,,,,,,,,,,,,,,,,,,,,,,,,,,,,,,,,0.015,,,,,,,,,,,,,,,,,,,,1354.875916,1355.575932,1355.87594,1356.575966,1356.875981,1357.576011,1357.576011,1357.892699,left,0,70,30,100,1,1362.476226,1362.476226,1362.476226,None,None,1,1,0.824604,,,,,,,None,,,,,,,,,,,,,,,10,3,2,2024-10-21_08h32.12.942,uWM_experiment,2022.2.3,59.99649621
,,,,,,,,,,,,,,,,,,,,4,0,4,0,1,0,1,0,,,,,,,,,,,,,,,,,,,,,,,,,,,,,,,,,,,,,,,,,,,,,,,,,,,,,,,,,,,,,,,,,,,,,,0.025,,,,,,,,,,,,,,,,,,,,,,,,,,,,left,1,40,-30,10,1,1368.909799,1368.909799,1368.909799,None,None,1,1,0.4548835,,,,,,,,,,,,,,,,,,,,,,10,3,2,2024-10-21_08h32.12.942,uWM_experiment,2022.2.3,59.99649621
,,,,,,,,,,,,,,,,,,,,4,0,4,0,2,0,2,0,,,,,,,,,,,,,,,,,,,,,,,,,,,,,,,,,,,,,,,,,,,,,,,,,,,,,,,,,,,,,,,,,,,,,,0,,,,,,,,,,,,,,,,,,,,,,,,,,,,right,0,10,-30,-20,0,1374.976743,1374.976743,1374.976743,None,None,1,1,0.859999,,,,,,,,,,,,,,,,,,,,,,10,3,2,2024-10-21_08h32.12.942,uWM_experiment,2022.2.3,59.99649621
,,,,,,,,,,,,,,,,,,,,4,0,4,0,3,0,3,0,,,,,,,,,,,,,,,,,,,,,,,,,,,,,,,,,,,,,,,,,,,,,,,,,,,,,,,,,,,,,,,,,,,,,,0.035,,,,,,,,,,,,,,,,,,,,,,,,,,,,left,0,100,30,130,1,1381.710379,1381.710379,1381.710379,None,None,2,0,0.6783778,,,,,,,,,,,,,,,,,,,,,,10,3,2,2024-10-21_08h32.12.942,uWM_experiment,2022.2.3,59.99649621
,,,,,,,,,,,,,,,,,,,,4,0,4,0,4,0,4,0,,,,,,,,,,,,,,,,,,,,,,,,,,,,,,,,,,,,,,,,,,,,,,,,,,,,,,,,,,,,,,,,,,,,,,0.025,,,,,,,,,,,,,,,,,,,,,,,,,,,,right,1,40,30,70,1,1387.943901,1387.943901,1387.943901,None,None,1,1,0.4527205,,,,,,,,,,,,,,,,,,,,,,10,3,2,2024-10-21_08h32.12.942,uWM_experiment,2022.2.3,59.99649621
,,,,,,,,,,,,,,,,,,,,4,0,4,0,5,0,5,0,,,,,,,,,,,,,,,,,,,,,,,,,,,,,,,,,,,,,,,,,,,,,,,,,,,,,,,,,,,,,,,,,,,,,,0.035,,,,,,,,,,,,,,,,,,,,,,,,,,,,left,1,10,-30,-20,1,1394.210849,1394.210849,1394.210849,None,None,1,1,0.4339519,,,,,,,,,,,,,,,,,,,,,,10,3,2,2024-10-21_08h32.12.942,uWM_experiment,2022.2.3,59.99649621
,,,,,,,,,,,,,,,,,,,,4,0,4,0,6,0,6,0,,,,,,,,,,,,,,,,,,,,,,,,,,,,,,,,,,,,,,,,,,,,,,,,,,,,,,,,,,,,,,,,,,,,,,0.045,,,,,,,,,,,,,,,,,,,,,,,,,,,,right,1,40,30,70,1,1400.794438,1400.794438,1400.794438,None,None,1,1,0.5782897,,,,,,,,,,,,,,,,,,,,,,10,3,2,2024-10-21_08h32.12.942,uWM_experiment,2022.2.3,59.99649621
,,,,,,,,,,,,,,,,,,,,4,0,4,0,7,0,7,0,,,,,,,,,,,,,,,,,,,,,,,,,,,,,,,,,,,,,,,,,,,,,,,,,,,,,,,,,,,,,,,,,,,,,,0.055,,,,,,,,,,,,,,,,,,,,,,,,,,,,left,1,10,-30,-20,1,1406.978055,1406.978055,1406.978055,None,None,1,1,0.362665,,,,,,,,,,,,,,,,,,,,,,10,3,2,2024-10-21_08h32.12.942,uWM_experiment,2022.2.3,59.99649621
,,,,,,,,,,,,,,,,,,,,4,0,4,0,8,0,8,0,,,,,,,,,,,,,,,,,,,,,,,,,,,,,,,,,,,,,,,,,,,,,,,,,,,,,,,,,,,,,,,,,,,,,,0,,,,,,,,,,,,,,,,,,,,,,,,,,,,right,1,10,30,40,0,1412.82827,1412.82827,1412.82827,None,None,1,1,0.4004558,,,,,,,,,,,,,,,,,,,,,,10,3,2,2024-10-21_08h32.12.942,uWM_experiment,2022.2.3,59.99649621
,,,,,,,,,,,,,,,,,,,,4,0,4,0,9,0,9,0,,,,,,,,,,,,,,,,,,,,,,,,,,,,,,,,,,,,,,,,,,,,,,,,,,,,,,,,,,,,,,,,,,,,,,0.065,,,,,,,,,,,,,,,,,,,,,,,,,,,,left,1,70,-30,40,1,1419.045193,1419.045193,1419.045193,None,None,1,1,0.255389,,,,,,,,,,,,,,,,,,,,,,10,3,2,2024-10-21_08h32.12.942,uWM_experiment,2022.2.3,59.99649621
,,,,,,,,,,,,,,,,,,,,4,0,4,0,10,0,10,0,,,,,,,,,,,,,,,,,,,,,,,,,,,,,,,,,,,,,,,,,,,,,,,,,,,,,,,,,,,,,,,,,,,,,,0,,,,,,,,,,,,,,,,,,,,,,,,,,,,right,0,70,-30,40,0,1424.762099,1424.762099,1424.762099,None,None,1,1,0.3703956,,,,,,,,,,,,,,,,,,,,,,10,3,2,2024-10-21_08h32.12.942,uWM_experiment,2022.2.3,59.99649621
,,,,,,,,,,,,,,,,,,,,4,0,4,0,11,0,11,0,,,,,,,,,,,,,,,,,,,,,,,,,,,,,,,,,,,,,,,,,,,,,,,,,,,,,,,,,,,,,,,,,,,,,,0.075,,,,,,,,,,,,,,,,,,,,,,,,,,,,left,1,40,-30,10,1,1430.762329,1430.762329,1430.762329,None,None,1,1,0.7381849,,,,,,,,,,,,,,,,,,,,,,10,3,2,2024-10-21_08h32.12.942,uWM_experiment,2022.2.3,59.99649621
,,,,,,,,,,,,,,,,,,,,4,0,4,0,12,0,12,0,,,,,,,,,,,,,,,,,,,,,,,,,,,,,,,,,,,,,,,,,,,,,,,,,,,,,,,,,,,,,,,,,,,,,,0,,,,,,,,,,,,,,,,,,,,,,,,,,,,right,1,160,30,190,0,1437.31262,1437.31262,1437.31262,None,None,1,1,0.3878707,,,,,,,,,,,,,,,,,,,,,,10,3,2,2024-10-21_08h32.12.942,uWM_experiment,2022.2.3,59.99649621
,,,,,,,,,,,,,,,,,,,,4,0,4,0,13,0,13,0,,,,,,,,,,,,,,,,,,,,,,,,,,,,,,,,,,,,,,,,,,,,,,,,,,,,,,,,,,,,,,,,,,,,,,0.085,,,,,,,,,,,,,,,,,,,,,,,,,,,,left,1,130,-30,100,1,1444.229545,1444.229545,1444.229545,None,None,1,1,0.9189482,,,,,,,,,,,,,,,,,,,,,,10,3,2,2024-10-21_08h32.12.942,uWM_experiment,2022.2.3,59.99649621
,,,,,,,,,,,,,,,,,,,,4,0,4,0,14,0,14,0,,,,,,,,,,,,,,,,,,,,,,,,,,,,,,,,,,,,,,,,,,,,,,,,,,,,,,,,,,,,,,,,,,,,,,0.095,,,,,,,,,,,,,,,,,,,,,,,,,,,,left,0,160,30,190,1,1451.54652,1451.54652,1451.54652,None,None,1,1,0.8420466,,,,,,,,,,,,,,,,,,,,,,10,3,2,2024-10-21_08h32.12.942,uWM_experiment,2022.2.3,59.99649621
,,,,,,,,,,,,,,,,,,,,4,0,4,0,15,0,15,0,,,,,,,,,,,,,,,,,,,,,,,,,,,,,,,,,,,,,,,,,,,,,,,,,,,,,,,,,,,,,,,,,,,,,,0.105,,,,,,,,,,,,,,,,,,,,,,,,,,,,right,1,100,30,130,1,1458.830152,1458.830152,1458.830152,None,None,1,1,0.7263481,,,,,,,,,,,,,,,,,,,,,,10,3,2,2024-10-21_08h32.12.942,uWM_experiment,2022.2.3,59.99649621
,,,,,,,,,,,,,,,,,,,,4,0,4,0,16,0,16,0,,,,,,,,,,,,,,,,,,,,,,,,,,,,,,,,,,,,,,,,,,,,,,,,,,,,,,,,,,,,,,,,,,,,,,0.115,,,,,,,,,,,,,,,,,,,,,,,,,,,,left,1,40,-30,10,1,1465.447101,1465.447101,1465.447101,None,None,2,0,0.6933727,,,,,,,,,,,,,,,,,,,,,,10,3,2,2024-10-21_08h32.12.942,uWM_experiment,2022.2.3,59.99649621
,,,,,,,,,,,,,,,,,,,,4,0,4,0,17,0,17,0,,,,,,,,,,,,,,,,,,,,,,,,,,,,,,,,,,,,,,,,,,,,,,,,,,,,,,,,,,,,,,,,,,,,,,0,,,,,,,,,,,,,,,,,,,,,,,,,,,,right,1,40,30,70,0,1472.114018,1472.114018,1472.114018,None,None,1,1,0.8664601,,,,,,,,,,,,,,,,,,,,,,10,3,2,2024-10-21_08h32.12.942,uWM_experiment,2022.2.3,59.99649621
,,,,,,,,,,,,,,,,,,,,4,0,4,0,18,0,18,0,,,,,,,,,,,,,,,,,,,,,,,,,,,,,,,,,,,,,,,,,,,,,,,,,,,,,,,,,,,,,,,,,,,,,,0.105,,,,,,,,,,,,,,,,,,,,,,,,,,,,right,1,160,30,190,1,1478.964295,1478.964295,1478.964295,None,None,2,0,1.0401163,,,,,,,,,,,,,,,,,,,,,,10,3,2,2024-10-21_08h32.12.942,uWM_experiment,2022.2.3,59.99649621
,,,,,,,,,,,,,,,,,,,,4,0,4,0,19,0,19,0,,,,,,,,,,,,,,,,,,,,,,,,,,,,,,,,,,,,,,,,,,,,,,,,,,,,,,,,,,,,,,,,,,,,,,0.095,,,,,,,,,,,,,,,,,,,,,,,,,,,,left,1,160,-30,130,1,1485.981261,1485.981261,1485.981261,None,None,2,0,0.7351133,,,,,,,,,,,,,,,,,,,,,,10,3,2,2024-10-21_08h32.12.942,uWM_experiment,2022.2.3,59.99649621
,,,,,,,,,,,,,,,,,,,,4,0,4,0,20,0,20,0,,,,,,,,,,,,,,,,,,,,,,,,,,,,,,,,,,,,,,,,,,,,,,,,,,,,,,,,,,,,,,,,,,,,,,0.085,,,,,,,,,,,,,,,,,,,,,,,,,,,,right,0,70,-30,40,1,1493.03154,1493.03154,1493.03154,None,None,2,0,0.8847482,,,,,,,,,,,,,,,,,,,,,,10,3,2,2024-10-21_08h32.12.942,uWM_experiment,2022.2.3,59.99649621
,,,,,,,,,,,,,,,,,,,,4,0,4,0,21,0,21,0,,,,,,,,,,,,,,,,,,,,,,,,,,,,,,,,,,,,,,,,,,,,,,,,,,,,,,,,,,,,,,,,,,,,,,0.075,,,,,,,,,,,,,,,,,,,,,,,,,,,,left,0,70,30,100,1,1500.215188,1500.215188,1500.215188,None,None,2,0,0.7010967,,,,,,,,,,,,,,,,,,,,,,10,3,2,2024-10-21_08h32.12.942,uWM_experiment,2022.2.3,59.99649621
,,,,,,,,,,,,,,,,,,,,4,0,4,0,22,0,22,0,,,,,,,,,,,,,,,,,,,,,,,,,,,,,,,,,,,,,,,,,,,,,,,,,,,,,,,,,,,,,,,,,,,,,,0,,,,,,,,,,,,,,,,,,,,,,,,,,,,right,0,70,-30,40,0,1506.615432,1506.615432,1506.615432,None,None,1,1,1.5249036,,,,,,,,,,,,,,,,,,,,,,10,3,2,2024-10-21_08h32.12.942,uWM_experiment,2022.2.3,59.99649621
,,,,,,,,,,,,,,,,,,,,4,0,4,0,23,0,23,0,,,,,,,,,,,,,,,,,,,,,,,,,,,,,,,,,,,,,,,,,,,,,,,,,,,,,,,,,,,,,,,,,,,,,,0,,,,,,,,,,,,,,,,,,,,,,,,,,,,left,0,130,30,160,0,1513.715705,1513.715705,1513.715705,None,None,1,1,0.4406608,,,,,,,,,,,,,,,,,,,,,,10,3,2,2024-10-21_08h32.12.942,uWM_experiment,2022.2.3,59.99649621
,,,,,,,,,,,,,,,,,,,,4,0,4,0,,,,,0,0,0,0,,,,,,,,,,,,,,,,,,,,,,,,,,,,,,,,,,,,,,,,,,,,,,,,,,,,,,,,,,,,,,,,,,,,,,,,,,,,,,,,,,,,,,,,,,,,,,,,,,,,,,,,,,,,1514.182402,1514.182402,space,68.493731,None,None,,,,,,,,,,,,,,,,10,3,2,2024-10-21_08h32.12.942,uWM_experiment,2022.2.3,59.99649621
,,,,,,,,,,,,,,,,,,,,4,0,4,0,,,,,1,0,1,0,,,,,,,,,,,,,,,,,,,,,,,,,,,,,,,,,,,,,,,,,,,,,,,,,,,,,,,,,,,,,,,,,,,,,,,,,,,,,,,,,,,,,,,,,,,,,,,,,,,,,,,,,,,,,,,,,,,,,,,,,,,,,,,,,10,3,2,2024-10-21_08h32.12.942,uWM_experiment,2022.2.3,59.99649621
,,,,,,,,,,,,,,,,,,,,4,0,4,0,,,,,2,0,2,0,,,,,,,,,,,,,,,,,,,,,,,,,,,,,,,,,,,,,,,,,,,,,,,,,,,,,,,,,,,,,,,,,,,,,,,,,,,,,,,,,,,,,,,,,,,,,,,,,,,,,,,,,,,,,,,,,,,,,,,,,,,,,,,,,10,3,2,2024-10-21_08h32.12.942,uWM_experiment,2022.2.3,59.99649621
,,,,,,,,,,,,,,,,,,,,5,0,5,0,0,0,0,0,,,,,,,,,,,,,,,,,,,,,,,,,,,,,,,,,,,,,,,,,,,,,,,,,,,,,,,,,,,,,,,,,,,,,,0,,,,,,,,,,,,,,,,,,,,1582.701905,1583.401903,1583.701906,1584.401939,1584.701968,1585.401983,1585.401983,1585.718667,left,0,70,30,100,0,1590.15217,1590.15217,1590.15217,None,None,1,1,0.6038572,,,,,,,None,,,,,,,,,,,,,,,10,3,2,2024-10-21_08h32.12.942,uWM_experiment,2022.2.3,59.99649621
,,,,,,,,,,,,,,,,,,,,5,0,5,0,1,0,1,0,,,,,,,,,,,,,,,,,,,,,,,,,,,,,,,,,,,,,,,,,,,,,,,,,,,,,,,,,,,,,,,,,,,,,,0.065,,,,,,,,,,,,,,,,,,,,,,,,,,,,left,0,100,30,130,1,1596.652454,1596.652454,1596.652454,None,None,1,1,0.7116495,,,,,,,,,,,,,,,,,,,,,,10,3,2,2024-10-21_08h32.12.942,uWM_experiment,2022.2.3,59.99649621
,,,,,,,,,,,,,,,,,,,,5,0,5,0,2,0,2,0,,,,,,,,,,,,,,,,,,,,,,,,,,,,,,,,,,,,,,,,,,,,,,,,,,,,,,,,,,,,,,,,,,,,,,0.075,,,,,,,,,,,,,,,,,,,,,,,,,,,,left,0,70,30,100,1,1603.036047,1603.036047,1603.036047,None,None,2,0,0.4079161,,,,,,,,,,,,,,,,,,,,,,10,3,2,2024-10-21_08h32.12.942,uWM_experiment,2022.2.3,59.99649621
,,,,,,,,,,,,,,,,,,,,5,0,5,0,3,0,3,0,,,,,,,,,,,,,,,,,,,,,,,,,,,,,,,,,,,,,,,,,,,,,,,,,,,,,,,,,,,,,,,,,,,,,,0.065,,,,,,,,,,,,,,,,,,,,,,,,,,,,right,0,70,-30,40,1,1609.302974,1609.302974,1609.302974,None,None,2,0,0.7570593,,,,,,,,,,,,,,,,,,,,,,10,3,2,2024-10-21_08h32.12.942,uWM_experiment,2022.2.3,59.99649621
,,,,,,,,,,,,,,,,,,,,5,0,5,0,4,0,4,0,,,,,,,,,,,,,,,,,,,,,,,,,,,,,,,,,,,,,,,,,,,,,,,,,,,,,,,,,,,,,,,,,,,,,,0.055,,,,,,,,,,,,,,,,,,,,,,,,,,,,right,1,160,30,190,1,1615.686559,1615.686559,1615.686559,None,None,1,1,0.4614924,,,,,,,,,,,,,,,,,,,,,,10,3,2,2024-10-21_08h32.12.942,uWM_experiment,2022.2.3,59.99649621
,,,,,,,,,,,,,,,,,,,,5,0,5,0,5,0,5,0,,,,,,,,,,,,,,,,,,,,,,,,,,,,,,,,,,,,,,,,,,,,,,,,,,,,,,,,,,,,,,,,,,,,,,0.1,,,,,,,,,,,,,,,,,,,,,,,,,,,,left,1,130,-30,100,2,1621.936805,1621.936805,1621.936805,None,None,4,0,1.0751888,,,,,,,,,,,,,,,,,,,,,,10,3,2,2024-10-21_08h32.12.942,uWM_experiment,2022.2.3,59.99649621
,,,,,,,,,,,,,,,,,,,,5,0,5,0,6,0,6,0,,,,,,,,,,,,,,,,,,,,,,,,,,,,,,,,,,,,,,,,,,,,,,,,,,,,,,,,,,,,,,,,,,,,,,0.065,,,,,,,,,,,,,,,,,,,,,,,,,,,,right,1,10,30,40,1,1629.287117,1629.287117,1629.287117,None,None,2,0,0.3328954,,,,,,,,,,,,,,,,,,,,,,10,3,2,2024-10-21_08h32.12.942,uWM_experiment,2022.2.3,59.99649621
,,,,,,,,,,,,,,,,,,,,5,0,5,0,7,0,7,0,,,,,,,,,,,,,,,,,,,,,,,,,,,,,,,,,,,,,,,,,,,,,,,,,,,,,,,,,,,,,,,,,,,,,,0.055,,,,,,,,,,,,,,,,,,,,,,,,,,,,left,0,70,30,100,1,1635.070708,1635.070708,1635.070708,None,None,1,1,0.2772902,,,,,,,,,,,,,,,,,,,,,,10,3,2,2024-10-21_08h32.12.942,uWM_experiment,2022.2.3,59.99649621
,,,,,,,,,,,,,,,,,,,,5,0,5,0,8,0,8,0,,,,,,,,,,,,,,,,,,,,,,,,,,,,,,,,,,,,,,,,,,,,,,,,,,,,,,,,,,,,,,,,,,,,,,0.065,,,,,,,,,,,,,,,,,,,,,,,,,,,,right,0,40,-30,10,1,1641.387591,1641.387591,1641.387591,None,None,1,1,0.6162426,,,,,,,,,,,,,,,,,,,,,,10,3,2,2024-10-21_08h32.12.942,uWM_experiment,2022.2.3,59.99649621
,,,,,,,,,,,,,,,,,,,,5,0,5,0,9,0,9,0,,,,,,,,,,,,,,,,,,,,,,,,,,,,,,,,,,,,,,,,,,,,,,,,,,,,,,,,,,,,,,,,,,,,,,0,,,,,,,,,,,,,,,,,,,,,,,,,,,,left,0,130,30,160,0,1647.771225,1647.771225,1647.771225,None,None,1,1,0.288688,,,,,,,,,,,,,,,,,,,,,,10,3,2,2024-10-21_08h32.12.942,uWM_experiment,2022.2.3,59.99649621
,,,,,,,,,,,,,,,,,,,,5,0,5,0,10,0,10,0,,,,,,,,,,,,,,,,,,,,,,,,,,,,,,,,,,,,,,,,,,,,,,,,,,,,,,,,,,,,,,,,,,,,,,0.075,,,,,,,,,,,,,,,,,,,,,,,,,,,,right,1,70,30,100,1,1654.154777,1654.154777,1654.154777,None,None,2,0,0.2650924,,,,,,,,,,,,,,,,,,,,,,10,3,2,2024-10-21_08h32.12.942,uWM_experiment,2022.2.3,59.99649621
,,,,,,,,,,,,,,,,,,,,5,0,5,0,11,0,11,0,,,,,,,,,,,,,,,,,,,,,,,,,,,,,,,,,,,,,,,,,,,,,,,,,,,,,,,,,,,,,,,,,,,,,,0.065,,,,,,,,,,,,,,,,,,,,,,,,,,,,left,1,10,-30,-20,1,1659.955037,1659.955037,1659.955037,None,None,1,1,0.5367269,,,,,,,,,,,,,,,,,,,,,,10,3,2,2024-10-21_08h32.12.942,uWM_experiment,2022.2.3,59.99649621
,,,,,,,,,,,,,,,,,,,,5,0,5,0,12,0,12,0,,,,,,,,,,,,,,,,,,,,,,,,,,,,,,,,,,,,,,,,,,,,,,,,,,,,,,,,,,,,,,,,,,,,,,0.075,,,,,,,,,,,,,,,,,,,,,,,,,,,,left,1,10,-30,-20,1,1666.288638,1666.288638,1666.288638,None,None,1,1,0.9951456,,,,,,,,,,,,,,,,,,,,,,10,3,2,2024-10-21_08h32.12.942,uWM_experiment,2022.2.3,59.99649621
,,,,,,,,,,,,,,,,,,,,5,0,5,0,13,0,13,0,,,,,,,,,,,,,,,,,,,,,,,,,,,,,,,,,,,,,,,,,,,,,,,,,,,,,,,,,,,,,,,,,,,,,,0.085,,,,,,,,,,,,,,,,,,,,,,,,,,,,right,0,70,-30,40,1,1673.288911,1673.288911,1673.288911,None,None,1,1,1.186834,,,,,,,,,,,,,,,,,,,,,,10,3,2,2024-10-21_08h32.12.942,uWM_experiment,2022.2.3,59.99649621
,,,,,,,,,,,,,,,,,,,,5,0,5,0,14,0,14,0,,,,,,,,,,,,,,,,,,,,,,,,,,,,,,,,,,,,,,,,,,,,,,,,,,,,,,,,,,,,,,,,,,,,,,0.095,,,,,,,,,,,,,,,,,,,,,,,,,,,,right,1,160,30,190,1,1680.305894,1680.305894,1680.305894,None,None,1,1,0.7778988,,,,,,,,,,,,,,,,,,,,,,10,3,2,2024-10-21_08h32.12.942,uWM_experiment,2022.2.3,59.99649621
,,,,,,,,,,,,,,,,,,,,5,0,5,0,15,0,15,0,,,,,,,,,,,,,,,,,,,,,,,,,,,,,,,,,,,,,,,,,,,,,,,,,,,,,,,,,,,,,,,,,,,,,,0.105,,,,,,,,,,,,,,,,,,,,,,,,,,,,left,0,70,30,100,1,1686.756178,1686.756178,1686.756178,None,None,1,1,1.063565,,,,,,,,,,,,,,,,,,,,,,10,3,2,2024-10-21_08h32.12.942,uWM_experiment,2022.2.3,59.99649621
,,,,,,,,,,,,,,,,,,,,5,0,5,0,16,0,16,0,,,,,,,,,,,,,,,,,,,,,,,,,,,,,,,,,,,,,,,,,,,,,,,,,,,,,,,,,,,,,,,,,,,,,,0,,,,,,,,,,,,,,,,,,,,,,,,,,,,left,0,100,30,130,0,1693.55641,1693.55641,1693.55641,None,None,1,1,0.5593886,,,,,,,,,,,,,,,,,,,,,,10,3,2,2024-10-21_08h32.12.942,uWM_experiment,2022.2.3,59.99649621
,,,,,,,,,,,,,,,,,,,,5,0,5,0,17,0,17,0,,,,,,,,,,,,,,,,,,,,,,,,,,,,,,,,,,,,,,,,,,,,,,,,,,,,,,,,,,,,,,,,,,,,,,0.115,,,,,,,,,,,,,,,,,,,,,,,,,,,,right,0,40,-30,10,1,1700.240015,1700.240015,1700.240015,None,None,1,1,0.9157372,,,,,,,,,,,,,,,,,,,,,,10,3,2,2024-10-21_08h32.12.942,uWM_experiment,2022.2.3,59.99649621
,,,,,,,,,,,,,,,,,,,,5,0,5,0,18,0,18,0,,,,,,,,,,,,,,,,,,,,,,,,,,,,,,,,,,,,,,,,,,,,,,,,,,,,,,,,,,,,,,,,,,,,,,0.125,,,,,,,,,,,,,,,,,,,,,,,,,,,,right,1,10,30,40,1,1706.823615,1706.823615,1706.823615,None,None,1,1,0.4921109,,,,,,,,,,,,,,,,,,,,,,10,3,2,2024-10-21_08h32.12.942,uWM_experiment,2022.2.3,59.99649621
,,,,,,,,,,,,,,,,,,,,5,0,5,0,19,0,19,0,,,,,,,,,,,,,,,,,,,,,,,,,,,,,,,,,,,,,,,,,,,,,,,,,,,,,,,,,,,,,,,,,,,,,,0,,,,,,,,,,,,,,,,,,,,,,,,,,,,left,0,130,30,160,0,1713.423896,1713.423896,1713.423896,None,None,1,1,0.4758204,,,,,,,,,,,,,,,,,,,,,,10,3,2,2024-10-21_08h32.12.942,uWM_experiment,2022.2.3,59.99649621
,,,,,,,,,,,,,,,,,,,,5,0,5,0,20,0,20,0,,,,,,,,,,,,,,,,,,,,,,,,,,,,,,,,,,,,,,,,,,,,,,,,,,,,,,,,,,,,,,,,,,,,,,0,,,,,,,,,,,,,,,,,,,,,,,,,,,,right,0,40,-30,10,0,1719.507458,1719.507458,1719.507458,None,None,1,1,0.4161625,,,,,,,,,,,,,,,,,,,,,,10,3,2,2024-10-21_08h32.12.942,uWM_experiment,2022.2.3,59.99649621
,,,,,,,,,,,,,,,,,,,,5,0,5,0,21,0,21,0,,,,,,,,,,,,,,,,,,,,,,,,,,,,,,,,,,,,,,,,,,,,,,,,,,,,,,,,,,,,,,,,,,,,,,0.135,,,,,,,,,,,,,,,,,,,,,,,,,,,,right,0,40,-30,10,1,1725.274372,1725.274372,1725.274372,None,None,2,0,0.5692381,,,,,,,,,,,,,,,,,,,,,,10,3,2,2024-10-21_08h32.12.942,uWM_experiment,2022.2.3,59.99649621
,,,,,,,,,,,,,,,,,,,,5,0,5,0,22,0,22,0,,,,,,,,,,,,,,,,,,,,,,,,,,,,,,,,,,,,,,,,,,,,,,,,,,,,,,,,,,,,,,,,,,,,,,0.125,,,,,,,,,,,,,,,,,,,,,,,,,,,,right,0,70,-30,40,1,1731.491297,1731.491297,1731.491297,None,None,2,0,0.432298,,,,,,,,,,,,,,,,,,,,,,10,3,2,2024-10-21_08h32.12.942,uWM_experiment,2022.2.3,59.99649621
,,,,,,,,,,,,,,,,,,,,5,0,5,0,23,0,23,0,,,,,,,,,,,,,,,,,,,,,,,,,,,,,,,,,,,,,,,,,,,,,,,,,,,,,,,,,,,,,,,,,,,,,,0.115,,,,,,,,,,,,,,,,,,,,,,,,,,,,left,0,130,30,160,1,1737.858217,1737.858217,1737.858217,None,None,2,0,0.4894341,,,,,,,,,,,,,,,,,,,,,,10,3,2,2024-10-21_08h32.12.942,uWM_experiment,2022.2.3,59.99649621
,,,,,,,,,,,,,,,,,,,,5,0,5,0,,,,,0,0,0,0,,,,,,,,,,,,,,,,,,,,,,,,,,,,,,,,,,,,,,,,,,,,,,,,,,,,,,,,,,,,,,,,,,,,,,,,,,,,,,,,,,,,,,,,,,,,,,,,,,,,,,,,,,,,1738.374888,1738.374888,space,52.7165103,space,None,,1791.110381,1791.110381,3.7570163,,,,,,,,,,,,10,3,2,2024-10-21_08h32.12.942,uWM_experiment,2022.2.3,59.99649621
,,,,,,,,,,,,,,,,,,,,5,0,5,0,,,,,1,0,1,0,,,,,,,,,,,,,,,,,,,,,,,,,,,,,,,,,,,,,,,,,,,,,,,,,,,,,,,,,,,,,,,,,,,,,,,,,,,,,,,,,,,,,,,,,,,,,,,,,,,,,,,,,,,,,,,,,,,,,,,,,,,,,,,,,10,3,2,2024-10-21_08h32.12.942,uWM_experiment,2022.2.3,59.99649621
,,,,,,,,,,,,,,,,,,,,5,0,5,0,,,,,2,0,2,0,,,,,,,,,,,,,,,,,,,,,,,,,,,,,,,,,,,,,,,,,,,,,,,,,,,,,,,,,,,,,,,,,,,,,,,,,,,,,,,,,,,,,,,,,,,,,,,,,,,,,,,,,,,,,,,,,,,,,,,,,,,,,,,,,10,3,2,2024-10-21_08h32.12.942,uWM_experiment,2022.2.3,59.99649621
,,,,,,,,,,,,,,,,,,,,6,0,6,0,0,0,0,0,,,,,,,,,,,,,,,,,,,,,,,,,,,,,,,,,,,,,,,,,,,,,,,,,,,,,,,,,,,,,,,,,,,,,,0,,,,,,,,,,,,,,,,,,,,1794.893866,1795.593898,1795.893901,1796.593951,1796.893963,1797.593979,1797.593979,1797.910666,right,0,100,-30,70,0,1802.694202,1802.694202,1802.694202,None,None,1,1,0.4452104,,,,,,,None,,,,,,,,,,,,,,,10,3,2,2024-10-21_08h32.12.942,uWM_experiment,2022.2.3,59.99649621
,,,,,,,,,,,,,,,,,,,,6,0,6,0,1,0,1,0,,,,,,,,,,,,,,,,,,,,,,,,,,,,,,,,,,,,,,,,,,,,,,,,,,,,,,,,,,,,,,,,,,,,,,0.105,,,,,,,,,,,,,,,,,,,,,,,,,,,,left,1,130,-30,100,1,1809.161135,1809.161135,1809.161135,None,None,2,0,0.5781789,,,,,,,,,,,,,,,,,,,,,,10,3,2,2024-10-21_08h32.12.942,uWM_experiment,2022.2.3,59.99649621
,,,,,,,,,,,,,,,,,,,,6,0,6,0,2,0,2,0,,,,,,,,,,,,,,,,,,,,,,,,,,,,,,,,,,,,,,,,,,,,,,,,,,,,,,,,,,,,,,,,,,,,,,0.095,,,,,,,,,,,,,,,,,,,,,,,,,,,,left,1,100,-30,70,1,1815.494722,1815.494722,1815.494722,None,None,1,1,0.4766383,,,,,,,,,,,,,,,,,,,,,,10,3,2,2024-10-21_08h32.12.942,uWM_experiment,2022.2.3,59.99649621
,,,,,,,,,,,,,,,,,,,,6,0,6,0,3,0,3,0,,,,,,,,,,,,,,,,,,,,,,,,,,,,,,,,,,,,,,,,,,,,,,,,,,,,,,,,,,,,,,,,,,,,,,0.105,,,,,,,,,,,,,,,,,,,,,,,,,,,,left,0,160,30,190,1,1822.445021,1822.445021,1822.445021,None,None,1,1,0.4143604,,,,,,,,,,,,,,,,,,,,,,10,3,2,2024-10-21_08h32.12.942,uWM_experiment,2022.2.3,59.99649621
,,,,,,,,,,,,,,,,,,,,6,0,6,0,4,0,4,0,,,,,,,,,,,,,,,,,,,,,,,,,,,,,,,,,,,,,,,,,,,,,,,,,,,,,,,,,,,,,,,,,,,,,,0.115,,,,,,,,,,,,,,,,,,,,,,,,,,,,right,1,160,30,190,1,1828.678586,1828.678586,1828.678586,None,None,2,0,0.7647795,,,,,,,,,,,,,,,,,,,,,,10,3,2,2024-10-21_08h32.12.942,uWM_experiment,2022.2.3,59.99649621
,,,,,,,,,,,,,,,,,,,,6,0,6,0,5,0,5,0,,,,,,,,,,,,,,,,,,,,,,,,,,,,,,,,,,,,,,,,,,,,,,,,,,,,,,,,,,,,,,,,,,,,,,0.105,,,,,,,,,,,,,,,,,,,,,,,,,,,,left,1,70,-30,40,1,1835.195528,1835.195528,1835.195528,None,None,1,1,0.5518038,,,,,,,,,,,,,,,,,,,,,,10,3,2,2024-10-21_08h32.12.942,uWM_experiment,2022.2.3,59.99649621
,,,,,,,,,,,,,,,,,,,,6,0,6,0,6,0,6,0,,,,,,,,,,,,,,,,,,,,,,,,,,,,,,,,,,,,,,,,,,,,,,,,,,,,,,,,,,,,,,,,,,,,,,0,,,,,,,,,,,,,,,,,,,,,,,,,,,,right,1,40,30,70,0,1841.429109,1841.429109,1841.429109,None,None,1,1,0.7181726,,,,,,,,,,,,,,,,,,,,,,10,3,2,2024-10-21_08h32.12.942,uWM_experiment,2022.2.3,59.99649621
,,,,,,,,,,,,,,,,,,,,6,0,6,0,7,0,7,0,,,,,,,,,,,,,,,,,,,,,,,,,,,,,,,,,,,,,,,,,,,,,,,,,,,,,,,,,,,,,,,,,,,,,,0.115,,,,,,,,,,,,,,,,,,,,,,,,,,,,left,1,40,-30,10,1,1848.362744,1848.362744,1848.362744,None,None,3,0,0.4084782,,,,,,,,,,,,,,,,,,,,,,10,3,2,2024-10-21_08h32.12.942,uWM_experiment,2022.2.3,59.99649621
,,,,,,,,,,,,,,,,,,,,6,0,6,0,8,0,8,0,,,,,,,,,,,,,,,,,,,,,,,,,,,,,,,,,,,,,,,,,,,,,,,,,,,,,,,,,,,,,,,,,,,,,,0.105,,,,,,,,,,,,,,,,,,,,,,,,,,,,left,1,160,-30,130,1,1854.746308,1854.746308,1854.746308,None,None,1,1,0.3769207,,,,,,,,,,,,,,,,,,,,,,10,3,2,2024-10-21_08h32.12.942,uWM_experiment,2022.2.3,59.99649621
,,,,,,,,,,,,,,,,,,,,6,0,6,0,9,0,9,0,,,,,,,,,,,,,,,,,,,,,,,,,,,,,,,,,,,,,,,,,,,,,,,,,,,,,,,,,,,,,,,,,,,,,,0,,,,,,,,,,,,,,,,,,,,,,,,,,,,right,0,40,-30,10,0,1860.963231,1860.963231,1860.963231,None,None,1,1,0.3119815,,,,,,,,,,,,,,,,,,,,,,10,3,2,2024-10-21_08h32.12.942,uWM_experiment,2022.2.3,59.99649621
,,,,,,,,,,,,,,,,,,,,6,0,6,0,10,0,10,0,,,,,,,,,,,,,,,,,,,,,,,,,,,,,,,,,,,,,,,,,,,,,,,,,,,,,,,,,,,,,,,,,,,,,,0.115,,,,,,,,,,,,,,,,,,,,,,,,,,,,left,0,70,30,100,1,1867.030158,1867.030158,1867.030158,None,None,1,1,0.4689483,,,,,,,,,,,,,,,,,,,,,,10,3,2,2024-10-21_08h32.12.942,uWM_experiment,2022.2.3,59.99649621
,,,,,,,,,,,,,,,,,,,,6,0,6,0,11,0,11,0,,,,,,,,,,,,,,,,,,,,,,,,,,,,,,,,,,,,,,,,,,,,,,,,,,,,,,,,,,,,,,,,,,,,,,0.125,,,,,,,,,,,,,,,,,,,,,,,,,,,,right,1,70,30,100,1,1872.663717,1872.663717,1872.663717,None,None,2,0,1.4354086,,,,,,,,,,,,,,,,,,,,,,10,3,2,2024-10-21_08h32.12.942,uWM_experiment,2022.2.3,59.99649621
,,,,,,,,,,,,,,,,,,,,6,0,6,0,12,0,12,0,,,,,,,,,,,,,,,,,,,,,,,,,,,,,,,,,,,,,,,,,,,,,,,,,,,,,,,,,,,,,,,,,,,,,,0,,,,,,,,,,,,,,,,,,,,,,,,,,,,right,0,130,-30,100,0,1879.34733,1879.34733,1879.34733,None,None,1,1,0.9278157,,,,,,,,,,,,,,,,,,,,,,10,3,2,2024-10-21_08h32.12.942,uWM_experiment,2022.2.3,59.99649621
,,,,,,,,,,,,,,,,,,,,6,0,6,0,13,0,13,0,,,,,,,,,,,,,,,,,,,,,,,,,,,,,,,,,,,,,,,,,,,,,,,,,,,,,,,,,,,,,,,,,,,,,,0,,,,,,,,,,,,,,,,,,,,,,,,,,,,left,1,160,-30,130,0,1887.164311,1887.164311,1887.164311,None,None,1,1,0.4628477,,,,,,,,,,,,,,,,,,,,,,10,3,2,2024-10-21_08h32.12.942,uWM_experiment,2022.2.3,59.99649621
,,,,,,,,,,,,,,,,,,,,6,0,6,0,14,0,14,0,,,,,,,,,,,,,,,,,,,,,,,,,,,,,,,,,,,,,,,,,,,,,,,,,,,,,,,,,,,,,,,,,,,,,,0.115,,,,,,,,,,,,,,,,,,,,,,,,,,,,right,1,10,30,40,1,1893.264554,1893.264554,1893.264554,None,None,2,0,0.5065756,,,,,,,,,,,,,,,,,,,,,,10,3,2,2024-10-21_08h32.12.942,uWM_experiment,2022.2.3,59.99649621
,,,,,,,,,,,,,,,,,,,,6,0,6,0,15,0,15,0,,,,,,,,,,,,,,,,,,,,,,,,,,,,,,,,,,,,,,,,,,,,,,,,,,,,,,,,,,,,,,,,,,,,,,0,,,,,,,,,,,,,,,,,,,,,,,,,,,,right,0,100,-30,70,0,1899.198138,1899.198138,1899.198138,None,None,1,1,0.292986,,,,,,,,,,,,,,,,,,,,,,10,3,2,2024-10-21_08h32.12.942,uWM_experiment,2022.2.3,59.99649621
,,,,,,,,,,,,,,,,,,,,6,0,6,0,16,0,16,0,,,,,,,,,,,,,,,,,,,,,,,,,,,,,,,,,,,,,,,,,,,,,,,,,,,,,,,,,,,,,,,,,,,,,,0,,,,,,,,,,,,,,,,,,,,,,,,,,,,left,1,130,-30,100,0,1904.898378,1904.898378,1904.898378,None,None,1,1,0.4326524,,,,,,,,,,,,,,,,,,,,,,10,3,2,2024-10-21_08h32.12.942,uWM_experiment,2022.2.3,59.99649621
,,,,,,,,,,,,,,,,,,,,6,0,6,0,17,0,17,0,,,,,,,,,,,,,,,,,,,,,,,,,,,,,,,,,,,,,,,,,,,,,,,,,,,,,,,,,,,,,,,,,,,,,,0.105,,,,,,,,,,,,,,,,,,,,,,,,,,,,left,1,130,-30,100,1,1911.882005,1911.882005,1911.882005,None,None,2,0,0.5850066,,,,,,,,,,,,,,,,,,,,,,10,3,2,2024-10-21_08h32.12.942,uWM_experiment,2022.2.3,59.99649621
,,,,,,,,,,,,,,,,,,,,6,0,6,0,18,0,18,0,,,,,,,,,,,,,,,,,,,,,,,,,,,,,,,,,,,,,,,,,,,,,,,,,,,,,,,,,,,,,,,,,,,,,,0.095,,,,,,,,,,,,,,,,,,,,,,,,,,,,left,0,10,30,40,1,1918.832277,1918.832277,1918.832277,None,None,2,0,0.9307623,,,,,,,,,,,,,,,,,,,,,,10,3,2,2024-10-21_08h32.12.942,uWM_experiment,2022.2.3,59.99649621
,,,,,,,,,,,,,,,,,,,,6,0,6,0,19,0,19,0,,,,,,,,,,,,,,,,,,,,,,,,,,,,,,,,,,,,,,,,,,,,,,,,,,,,,,,,,,,,,,,,,,,,,,0,,,,,,,,,,,,,,,,,,,,,,,,,,,,left,0,100,30,130,0,1925.782548,1925.782548,1925.782548,None,None,1,1,0.4285139,,,,,,,,,,,,,,,,,,,,,,10,3,2,2024-10-21_08h32.12.942,uWM_experiment,2022.2.3,59.99649621
,,,,,,,,,,,,,,,,,,,,6,0,6,0,20,0,20,0,,,,,,,,,,,,,,,,,,,,,,,,,,,,,,,,,,,,,,,,,,,,,,,,,,,,,,,,,,,,,,,,,,,,,,0.085,,,,,,,,,,,,,,,,,,,,,,,,,,,,right,1,40,30,70,1,1932.982848,1932.982848,1932.982848,None,None,2,0,0.7161533,,,,,,,,,,,,,,,,,,,,,,10,3,2,2024-10-21_08h32.12.942,uWM_experiment,2022.2.3,59.99649621
,,,,,,,,,,,,,,,,,,,,6,0,6,0,21,0,21,0,,,,,,,,,,,,,,,,,,,,,,,,,,,,,,,,,,,,,,,,,,,,,,,,,,,,,,,,,,,,,,,,,,,,,,0.1,,,,,,,,,,,,,,,,,,,,,,,,,,,,right,1,130,30,160,2,1939.616431,1939.616431,1939.616431,None,None,4,0,0.7784823,,,,,,,,,,,,,,,,,,,,,,10,3,2,2024-10-21_08h32.12.942,uWM_experiment,2022.2.3,59.99649621
,,,,,,,,,,,,,,,,,,,,6,0,6,0,22,0,22,0,,,,,,,,,,,,,,,,,,,,,,,,,,,,,,,,,,,,,,,,,,,,,,,,,,,,,,,,,,,,,,,,,,,,,,0,,,,,,,,,,,,,,,,,,,,,,,,,,,,left,0,100,30,130,0,1945.983371,1945.983371,1945.983371,None,None,1,1,0.395565,,,,,,,,,,,,,,,,,,,,,,10,3,2,2024-10-21_08h32.12.942,uWM_experiment,2022.2.3,59.99649621
,,,,,,,,,,,,,,,,,,,,6,0,6,0,23,0,23,0,,,,,,,,,,,,,,,,,,,,,,,,,,,,,,,,,,,,,,,,,,,,,,,,,,,,,,,,,,,,,,,,,,,,,,0.1,,,,,,,,,,,,,,,,,,,,,,,,,,,,left,1,40,-30,10,2,1952.73364,1952.73364,1952.73364,None,None,4,0,0.5253341,,,,,,,,,,,,,,,,,,,,,,10,3,2,2024-10-21_08h32.12.942,uWM_experiment,2022.2.3,59.99649621
,,,,,,,,,,,,,,,,,,,,6,0,6,0,,,,,0,0,0,0,,,,,,,,,,,,,,,,,,,,,,,,,,,,,,,,,,,,,,,,,,,,,,,,,,,,,,,,,,,,,,,,,,,,,,,,,,,,,,,,,,,,,,,,,,,,,,,,,,,,,,,,,,,,1953.283683,1953.283683,space,44.4871008,None,space,,,,,1997.802138,1997.802138,15.1365961,,,,,,,,,10,3,2,2024-10-21_08h32.12.942,uWM_experiment,2022.2.3,59.99649621
,,,,,,,,,,,,,,,,,,,,6,0,6,0,,,,,1,0,1,0,,,,,,,,,,,,,,,,,,,,,,,,,,,,,,,,,,,,,,,,,,,,,,,,,,,,,,,,,,,,,,,,,,,,,,,,,,,,,,,,,,,,,,,,,,,,,,,,,,,,,,,,,,,,,,,,,,,,,,,,,,,,,,,,,10,3,2,2024-10-21_08h32.12.942,uWM_experiment,2022.2.3,59.99649621
,,,,,,,,,,,,,,,,,,,,6,0,6,0,,,,,2,0,2,0,,,,,,,,,,,,,,,,,,,,,,,,,,,,,,,,,,,,,,,,,,,,,,,,,,,,,,,,,,,,,,,,,,,,,,,,,,,,,,,,,,,,,,,,,,,,,,,,,,,,,,,,,,,,,,,,,,,,,,,,,,,,,,,,,10,3,2,2024-10-21_08h32.12.942,uWM_experiment,2022.2.3,59.99649621
,,,,,,,,,,,,,,,,,,,,7,0,7,0,0,0,0,0,,,,,,,,,,,,,,,,,,,,,,,,,,,,,,,,,,,,,,,,,,,,,,,,,,,,,,,,,,,,,,,,,,,,,,0,,,,,,,,,,,,,,,,,,,,2029.953465,2030.653489,2030.93684,2031.636864,2031.936877,2032.636893,2032.636893,2032.953591,left,1,130,-30,100,0,2038.137149,2038.137149,2038.137149,None,None,1,1,1.1374048,,,,,,,space,,,,,,,2022.719844,2022.719844,7.2108355,,,,,,10,3,2,2024-10-21_08h32.12.942,uWM_experiment,2022.2.3,59.99649621
,,,,,,,,,,,,,,,,,,,,7,0,7,0,1,0,1,0,,,,,,,,,,,,,,,,,,,,,,,,,,,,,,,,,,,,,,,,,,,,,,,,,,,,,,,,,,,,,,,,,,,,,,0.075,,,,,,,,,,,,,,,,,,,,,,,,,,,,left,1,130,-30,100,1,2045.470776,2045.470776,2045.470776,None,None,2,0,0.4919357,,,,,,,,,,,,,,,,,,,,,,10,3,2,2024-10-21_08h32.12.942,uWM_experiment,2022.2.3,59.99649621
,,,,,,,,,,,,,,,,,,,,7,0,7,0,2,0,2,0,,,,,,,,,,,,,,,,,,,,,,,,,,,,,,,,,,,,,,,,,,,,,,,,,,,,,,,,,,,,,,,,,,,,,,0,,,,,,,,,,,,,,,,,,,,,,,,,,,,right,0,40,-30,10,0,2051.23765,2051.23765,2051.23765,None,None,1,1,0.7729798,,,,,,,,,,,,,,,,,,,,,,10,3,2,2024-10-21_08h32.12.942,uWM_experiment,2022.2.3,59.99649621
,,,,,,,,,,,,,,,,,,,,7,0,7,0,3,0,3,0,,,,,,,,,,,,,,,,,,,,,,,,,,,,,,,,,,,,,,,,,,,,,,,,,,,,,,,,,,,,,,,,,,,,,,0.065,,,,,,,,,,,,,,,,,,,,,,,,,,,,left,0,130,30,160,1,2057.787936,2057.787936,2057.787936,None,None,1,1,0.9186285,,,,,,,,,,,,,,,,,,,,,,10,3,2,2024-10-21_08h32.12.942,uWM_experiment,2022.2.3,59.99649621
,,,,,,,,,,,,,,,,,,,,7,0,7,0,4,0,4,0,,,,,,,,,,,,,,,,,,,,,,,,,,,,,,,,,,,,,,,,,,,,,,,,,,,,,,,,,,,,,,,,,,,,,,0.075,,,,,,,,,,,,,,,,,,,,,,,,,,,,right,1,40,30,70,1,2064.75489,2064.75489,2064.75489,None,None,3,0,2.6555927,,,,,,,,,,,,,,,,,,,,,,10,3,2,2024-10-21_08h32.12.942,uWM_experiment,2022.2.3,59.99649621
,,,,,,,,,,,,,,,,,,,,7,0,7,0,5,0,5,0,,,,,,,,,,,,,,,,,,,,,,,,,,,,,,,,,,,,,,,,,,,,,,,,,,,,,,,,,,,,,,,,,,,,,,0.065,,,,,,,,,,,,,,,,,,,,,,,,,,,,right,1,160,30,190,1,2073.338591,2073.338591,2073.338591,None,None,1,1,0.3119526,,,,,,,,,,,,,,,,,,,,,,10,3,2,2024-10-21_08h32.12.942,uWM_experiment,2022.2.3,59.99649621
,,,,,,,,,,,,,,,,,,,,7,0,7,0,6,0,6,0,,,,,,,,,,,,,,,,,,,,,,,,,,,,,,,,,,,,,,,,,,,,,,,,,,,,,,,,,,,,,,,,,,,,,,0.075,,,,,,,,,,,,,,,,,,,,,,,,,,,,left,1,40,-30,10,1,2079.15549,2079.15549,2079.15549,None,None,1,1,0.2790097,,,,,,,,,,,,,,,,,,,,,,10,3,2,2024-10-21_08h32.12.942,uWM_experiment,2022.2.3,59.99649621
,,,,,,,,,,,,,,,,,,,,7,0,7,0,7,0,7,0,,,,,,,,,,,,,,,,,,,,,,,,,,,,,,,,,,,,,,,,,,,,,,,,,,,,,,,,,,,,,,,,,,,,,,0.085,,,,,,,,,,,,,,,,,,,,,,,,,,,,left,1,10,-30,-20,1,2084.939043,2084.939043,2084.939043,None,None,1,1,0.2793941,,,,,,,,,,,,,,,,,,,,,,10,3,2,2024-10-21_08h32.12.942,uWM_experiment,2022.2.3,59.99649621
,,,,,,,,,,,,,,,,,,,,7,0,7,0,8,0,8,0,,,,,,,,,,,,,,,,,,,,,,,,,,,,,,,,,,,,,,,,,,,,,,,,,,,,,,,,,,,,,,,,,,,,,,0.095,,,,,,,,,,,,,,,,,,,,,,,,,,,,right,1,10,30,40,1,2090.789284,2090.789284,2090.789284,None,None,2,0,0.2691584,,,,,,,,,,,,,,,,,,,,,,10,3,2,2024-10-21_08h32.12.942,uWM_experiment,2022.2.3,59.99649621
,,,,,,,,,,,,,,,,,,,,7,0,7,0,9,0,9,0,,,,,,,,,,,,,,,,,,,,,,,,,,,,,,,,,,,,,,,,,,,,,,,,,,,,,,,,,,,,,,,,,,,,,,0.085,,,,,,,,,,,,,,,,,,,,,,,,,,,,right,1,40,30,70,1,2096.372847,2096.372847,2096.372847,None,None,1,1,0.5815912,,,,,,,,,,,,,,,,,,,,,,10,3,2,2024-10-21_08h32.12.942,uWM_experiment,2022.2.3,59.99649621
,,,,,,,,,,,,,,,,,,,,7,0,7,0,10,0,10,0,,,,,,,,,,,,,,,,,,,,,,,,,,,,,,,,,,,,,,,,,,,,,,,,,,,,,,,,,,,,,,,,,,,,,,0.095,,,,,,,,,,,,,,,,,,,,,,,,,,,,left,1,130,-30,100,1,2103.673149,2103.673149,2103.673149,None,None,1,1,0.5932495,,,,,,,,,,,,,,,,,,,,,,10,3,2,2024-10-21_08h32.12.942,uWM_experiment,2022.2.3,59.99649621
,,,,,,,,,,,,,,,,,,,,7,0,7,0,11,0,11,0,,,,,,,,,,,,,,,,,,,,,,,,,,,,,,,,,,,,,,,,,,,,,,,,,,,,,,,,,,,,,,,,,,,,,,0,,,,,,,,,,,,,,,,,,,,,,,,,,,,right,0,40,-30,10,0,2109.790061,2109.790061,2109.790061,None,None,1,1,0.3004574,,,,,,,,,,,,,,,,,,,,,,10,3,2,2024-10-21_08h32.12.942,uWM_experiment,2022.2.3,59.99649621
,,,,,,,,,,,,,,,,,,,,7,0,7,0,12,0,12,0,,,,,,,,,,,,,,,,,,,,,,,,,,,,,,,,,,,,,,,,,,,,,,,,,,,,,,,,,,,,,,,,,,,,,,0.105,,,,,,,,,,,,,,,,,,,,,,,,,,,,right,0,100,-30,70,1,2115.706988,2115.706988,2115.706988,None,None,1,1,0.2794333,,,,,,,,,,,,,,,,,,,,,,10,3,2,2024-10-21_08h32.12.942,uWM_experiment,2022.2.3,59.99649621
,,,,,,,,,,,,,,,,,,,,7,0,7,0,13,0,13,0,,,,,,,,,,,,,,,,,,,,,,,,,,,,,,,,,,,,,,,,,,,,,,,,,,,,,,,,,,,,,,,,,,,,,,0.1,,,,,,,,,,,,,,,,,,,,,,,,,,,,left,1,70,-30,40,2,2122.640577,2122.640577,2122.640577,None,None,4,0,0.865781,,,,,,,,,,,,,,,,,,,,,,10,3,2,2024-10-21_08h32.12.942,uWM_experiment,2022.2.3,59.99649621
,,,,,,,,,,,,,,,,,,,,7,0,7,0,14,0,14,0,,,,,,,,,,,,,,,,,,,,,,,,,,,,,,,,,,,,,,,,,,,,,,,,,,,,,,,,,,,,,,,,,,,,,,0.115,,,,,,,,,,,,,,,,,,,,,,,,,,,,right,0,100,-30,70,1,2129.49085,2129.49085,2129.49085,None,None,2,0,0.7275561,,,,,,,,,,,,,,,,,,,,,,10,3,2,2024-10-21_08h32.12.942,uWM_experiment,2022.2.3,59.99649621
,,,,,,,,,,,,,,,,,,,,7,0,7,0,15,0,15,0,,,,,,,,,,,,,,,,,,,,,,,,,,,,,,,,,,,,,,,,,,,,,,,,,,,,,,,,,,,,,,,,,,,,,,0.105,,,,,,,,,,,,,,,,,,,,,,,,,,,,left,1,100,-30,70,1,2136.224467,2136.224467,2136.224467,None,None,2,0,1.0978889,,,,,,,,,,,,,,,,,,,,,,10,3,2,2024-10-21_08h32.12.942,uWM_experiment,2022.2.3,59.99649621
,,,,,,,,,,,,,,,,,,,,7,0,7,0,16,0,16,0,,,,,,,,,,,,,,,,,,,,,,,,,,,,,,,,,,,,,,,,,,,,,,,,,,,,,,,,,,,,,,,,,,,,,,0,,,,,,,,,,,,,,,,,,,,,,,,,,,,left,0,100,30,130,0,2143.774781,2143.774781,2143.774781,None,None,1,1,0.7795696,,,,,,,,,,,,,,,,,,,,,,10,3,2,2024-10-21_08h32.12.942,uWM_experiment,2022.2.3,59.99649621
,,,,,,,,,,,,,,,,,,,,7,0,7,0,17,0,17,0,,,,,,,,,,,,,,,,,,,,,,,,,,,,,,,,,,,,,,,,,,,,,,,,,,,,,,,,,,,,,,,,,,,,,,0.095,,,,,,,,,,,,,,,,,,,,,,,,,,,,left,1,100,-30,70,1,2150.725066,2150.725066,2150.725066,None,None,1,1,0.7412456,,,,,,,,,,,,,,,,,,,,,,10,3,2,2024-10-21_08h32.12.942,uWM_experiment,2022.2.3,59.99649621
,,,,,,,,,,,,,,,,,,,,7,0,7,0,18,0,18,0,,,,,,,,,,,,,,,,,,,,,,,,,,,,,,,,,,,,,,,,,,,,,,,,,,,,,,,,,,,,,,,,,,,,,,0.105,,,,,,,,,,,,,,,,,,,,,,,,,,,,right,0,10,-30,-20,1,2157.708751,2157.708751,2157.708751,None,None,2,0,0.8694591,,,,,,,,,,,,,,,,,,,,,,10,3,2,2024-10-21_08h32.12.942,uWM_experiment,2022.2.3,59.99649621
,,,,,,,,,,,,,,,,,,,,7,0,7,0,19,0,19,0,,,,,,,,,,,,,,,,,,,,,,,,,,,,,,,,,,,,,,,,,,,,,,,,,,,,,,,,,,,,,,,,,,,,,,0.095,,,,,,,,,,,,,,,,,,,,,,,,,,,,left,1,10,-30,-20,1,2164.225635,2164.225635,2164.225635,None,None,1,1,0.7286402,,,,,,,,,,,,,,,,,,,,,,10,3,2,2024-10-21_08h32.12.942,uWM_experiment,2022.2.3,59.99649621
,,,,,,,,,,,,,,,,,,,,7,0,7,0,20,0,20,0,,,,,,,,,,,,,,,,,,,,,,,,,,,,,,,,,,,,,,,,,,,,,,,,,,,,,,,,,,,,,,,,,,,,,,0.105,,,,,,,,,,,,,,,,,,,,,,,,,,,,left,1,10,-30,-20,1,2171.025903,2171.025903,2171.025903,None,None,2,0,0.7123905,,,,,,,,,,,,,,,,,,,,,,10,3,2,2024-10-21_08h32.12.942,uWM_experiment,2022.2.3,59.99649621
,,,,,,,,,,,,,,,,,,,,7,0,7,0,21,0,21,0,,,,,,,,,,,,,,,,,,,,,,,,,,,,,,,,,,,,,,,,,,,,,,,,,,,,,,,,,,,,,,,,,,,,,,0.095,,,,,,,,,,,,,,,,,,,,,,,,,,,,right,1,160,30,190,1,2177.67618,2177.67618,2177.67618,None,None,1,1,0.781999,,,,,,,,,,,,,,,,,,,,,,10,3,2,2024-10-21_08h32.12.942,uWM_experiment,2022.2.3,59.99649621
,,,,,,,,,,,,,,,,,,,,7,0,7,0,22,0,22,0,,,,,,,,,,,,,,,,,,,,,,,,,,,,,,,,,,,,,,,,,,,,,,,,,,,,,,,,,,,,,,,,,,,,,,0.105,,,,,,,,,,,,,,,,,,,,,,,,,,,,left,0,130,30,160,1,2184.993122,2184.993122,2184.993122,None,None,1,1,0.6971052,,,,,,,,,,,,,,,,,,,,,,10,3,2,2024-10-21_08h32.12.942,uWM_experiment,2022.2.3,59.99649621
,,,,,,,,,,,,,,,,,,,,7,0,7,0,23,0,23,0,,,,,,,,,,,,,,,,,,,,,,,,,,,,,,,,,,,,,,,,,,,,,,,,,,,,,,,,,,,,,,,,,,,,,,0,,,,,,,,,,,,,,,,,,,,,,,,,,,,left,0,100,30,130,0,2191.376716,2191.376716,2191.376716,None,None,1,1,0.5935322,,,,,,,,,,,,,,,,,,,,,,10,3,2,2024-10-21_08h32.12.942,uWM_experiment,2022.2.3,59.99649621
,,,,,,,,,,,,,,,,,,,,7,0,7,0,,,,,0,0,0,0,,,,,,,,,,,,,,,,,,,,,,,,,,,,,,,,,,,,,,,,,,,,,,,,,,,,,,,,,,,,,,,,,,,,,,,,,,,,,,,,,,,,,,,,,,,,,,,,,,,,,,,,,,,,2191.993389,2191.993389,space,70.1045878,None,None,,,,,,,,,,,,,,,,10,3,2,2024-10-21_08h32.12.942,uWM_experiment,2022.2.3,59.99649621
,,,,,,,,,,,,,,,,,,,,7,0,7,0,,,,,1,0,1,0,,,,,,,,,,,,,,,,,,,,,,,,,,,,,,,,,,,,,,,,,,,,,,,,,,,,,,,,,,,,,,,,,,,,,,,,,,,,,,,,,,,,,,,,,,,,,,,,,,,,,,,,,,,,,,,,,,,,,,,,,,,,,,,,,10,3,2,2024-10-21_08h32.12.942,uWM_experiment,2022.2.3,59.99649621
,,,,,,,,,,,,,,,,,,,,7,0,7,0,,,,,2,0,2,0,,,,,,,,,,,,,,,,,,,,,,,,,,,,,,,,,,,,,,,,,,,,,,,,,,,,,,,,,,,,,,,,,,,,,,,,,,,,,,,,,,,,,,,,,,,,,,,,,,,,,,,,,,,,,,,,,,,,,,,,,,,,,,,,,10,3,2,2024-10-21_08h32.12.942,uWM_experiment,2022.2.3,59.99649621
,,,,,,,,,,,,,,,,,,,,8,0,8,0,0,0,0,0,,,,,,,,,,,,,,,,,,,,,,,,,,,,,,,,,,,,,,,,,,,,,,,,,,,,,,,,,,,,,,,,,,,,,,0,,,,,,,,,,,,,,,,,,,,2262.129599,2262.829635,2263.129649,2263.829678,2264.129689,2264.829717,2264.829717,2265.146403,left,0,130,30,160,0,2270.496624,2270.496624,2270.496624,None,None,1,1,1.9211831,,,,,,,None,,,,,,,,,,,,,,,10,3,2,2024-10-21_08h32.12.942,uWM_experiment,2022.2.3,59.99649621
,,,,,,,,,,,,,,,,,,,,8,0,8,0,1,0,1,0,,,,,,,,,,,,,,,,,,,,,,,,,,,,,,,,,,,,,,,,,,,,,,,,,,,,,,,,,,,,,,,,,,,,,,0.115,,,,,,,,,,,,,,,,,,,,,,,,,,,,right,1,70,30,100,1,2279.280319,2279.280319,2279.280319,None,None,2,0,0.7854955,,,,,,,,,,,,,,,,,,,,,,10,3,2,2024-10-21_08h32.12.942,uWM_experiment,2022.2.3,59.99649621
,,,,,,,,,,,,,,,,,,,,8,0,8,0,2,0,2,0,,,,,,,,,,,,,,,,,,,,,,,,,,,,,,,,,,,,,,,,,,,,,,,,,,,,,,,,,,,,,,,,,,,,,,0,,,,,,,,,,,,,,,,,,,,,,,,,,,,right,0,100,-30,70,0,2286.23058,2286.23058,2286.23058,None,None,2,0,0.9312935,,,,,,,,,,,,,,,,,,,,,,10,3,2,2024-10-21_08h32.12.942,uWM_experiment,2022.2.3,59.99649621
,,,,,,,,,,,,,,,,,,,,8,0,8,0,3,0,3,0,,,,,,,,,,,,,,,,,,,,,,,,,,,,,,,,,,,,,,,,,,,,,,,,,,,,,,,,,,,,,,,,,,,,,,0.105,,,,,,,,,,,,,,,,,,,,,,,,,,,,right,1,40,30,70,1,2293.130912,2293.130912,2293.130912,None,None,2,0,0.9429692,,,,,,,,,,,,,,,,,,,,,,10,3,2,2024-10-21_08h32.12.942,uWM_experiment,2022.2.3,59.99649621
,,,,,,,,,,,,,,,,,,,,8,0,8,0,4,0,4,0,,,,,,,,,,,,,,,,,,,,,,,,,,,,,,,,,,,,,,,,,,,,,,,,,,,,,,,,,,,,,,,,,,,,,,0.095,,,,,,,,,,,,,,,,,,,,,,,,,,,,left,1,160,-30,130,1,2299.781131,2299.781131,2299.781131,None,None,2,0,0.8447067,,,,,,,,,,,,,,,,,,,,,,10,3,2,2024-10-21_08h32.12.942,uWM_experiment,2022.2.3,59.99649621
,,,,,,,,,,,,,,,,,,,,8,0,8,0,5,0,5,0,,,,,,,,,,,,,,,,,,,,,,,,,,,,,,,,,,,,,,,,,,,,,,,,,,,,,,,,,,,,,,,,,,,,,,0,,,,,,,,,,,,,,,,,,,,,,,,,,,,right,0,70,-30,40,0,2306.148079,2306.148079,2306.148079,None,None,1,1,0.389755,,,,,,,,,,,,,,,,,,,,,,10,3,2,2024-10-21_08h32.12.942,uWM_experiment,2022.2.3,59.99649621
,,,,,,,,,,,,,,,,,,,,8,0,8,0,6,0,6,0,,,,,,,,,,,,,,,,,,,,,,,,,,,,,,,,,,,,,,,,,,,,,,,,,,,,,,,,,,,,,,,,,,,,,,0.1,,,,,,,,,,,,,,,,,,,,,,,,,,,,right,0,100,-30,70,2,2312.664999,2312.664999,2312.664999,None,None,1,1,0.7367418,,,,,,,,,,,,,,,,,,,,,,10,3,2,2024-10-21_08h32.12.942,uWM_experiment,2022.2.3,59.99649621
,,,,,,,,,,,,,,,,,,,,8,0,8,0,7,0,7,0,,,,,,,,,,,,,,,,,,,,,,,,,,,,,,,,,,,,,,,,,,,,,,,,,,,,,,,,,,,,,,,,,,,,,,0,,,,,,,,,,,,,,,,,,,,,,,,,,,,left,0,70,30,100,0,2318.798574,2318.798574,2318.798574,None,None,1,1,0.4592134,,,,,,,,,,,,,,,,,,,,,,10,3,2,2024-10-21_08h32.12.942,uWM_experiment,2022.2.3,59.99649621
,,,,,,,,,,,,,,,,,,,,8,0,8,0,8,0,8,0,,,,,,,,,,,,,,,,,,,,,,,,,,,,,,,,,,,,,,,,,,,,,,,,,,,,,,,,,,,,,,,,,,,,,,0.085,,,,,,,,,,,,,,,,,,,,,,,,,,,,left,1,160,-30,130,1,2324.915513,2324.915513,2324.915513,None,None,1,1,0.3422318,,,,,,,,,,,,,,,,,,,,,,10,3,2,2024-10-21_08h32.12.942,uWM_experiment,2022.2.3,59.99649621
,,,,,,,,,,,,,,,,,,,,8,0,8,0,9,0,9,0,,,,,,,,,,,,,,,,,,,,,,,,,,,,,,,,,,,,,,,,,,,,,,,,,,,,,,,,,,,,,,,,,,,,,,0.095,,,,,,,,,,,,,,,,,,,,,,,,,,,,left,0,10,30,40,1,2331.032444,2331.032444,2331.032444,None,None,1,1,0.3933203,,,,,,,,,,,,,,,,,,,,,,10,3,2,2024-10-21_08h32.12.942,uWM_experiment,2022.2.3,59.99649621
,,,,,,,,,,,,,,,,,,,,8,0,8,0,10,0,10,0,,,,,,,,,,,,,,,,,,,,,,,,,,,,,,,,,,,,,,,,,,,,,,,,,,,,,,,,,,,,,,,,,,,,,,0,,,,,,,,,,,,,,,,,,,,,,,,,,,,right,1,10,30,40,0,2337.232702,2337.232702,2337.232702,None,None,1,1,0.9689348,,,,,,,,,,,,,,,,,,,,,,10,3,2,2024-10-21_08h32.12.942,uWM_experiment,2022.2.3,59.99649621
,,,,,,,,,,,,,,,,,,,,8,0,8,0,11,0,11,0,,,,,,,,,,,,,,,,,,,,,,,,,,,,,,,,,,,,,,,,,,,,,,,,,,,,,,,,,,,,,,,,,,,,,,0,,,,,,,,,,,,,,,,,,,,,,,,,,,,left,1,10,-30,-20,0,2343.749632,2343.749632,2343.749632,None,None,1,1,0.7959942,,,,,,,,,,,,,,,,,,,,,,10,3,2,2024-10-21_08h32.12.942,uWM_experiment,2022.2.3,59.99649621
,,,,,,,,,,,,,,,,,,,,8,0,8,0,12,0,12,0,,,,,,,,,,,,,,,,,,,,,,,,,,,,,,,,,,,,,,,,,,,,,,,,,,,,,,,,,,,,,,,,,,,,,,0.105,,,,,,,,,,,,,,,,,,,,,,,,,,,,right,1,40,30,70,1,2350.199887,2350.199887,2350.199887,None,None,1,1,0.689776,,,,,,,,,,,,,,,,,,,,,,10,3,2,2024-10-21_08h32.12.942,uWM_experiment,2022.2.3,59.99649621
,,,,,,,,,,,,,,,,,,,,8,0,8,0,13,0,13,0,,,,,,,,,,,,,,,,,,,,,,,,,,,,,,,,,,,,,,,,,,,,,,,,,,,,,,,,,,,,,,,,,,,,,,0.115,,,,,,,,,,,,,,,,,,,,,,,,,,,,left,1,130,-30,100,1,2356.566805,2356.566805,2356.566805,None,None,1,1,0.7948803,,,,,,,,,,,,,,,,,,,,,,10,3,2,2024-10-21_08h32.12.942,uWM_experiment,2022.2.3,59.99649621
,,,,,,,,,,,,,,,,,,,,8,0,8,0,14,0,14,0,,,,,,,,,,,,,,,,,,,,,,,,,,,,,,,,,,,,,,,,,,,,,,,,,,,,,,,,,,,,,,,,,,,,,,0.1,,,,,,,,,,,,,,,,,,,,,,,,,,,,left,1,160,-30,130,2,2363.35043,2363.35043,2363.35043,None,None,4,0,1.9792416,,,,,,,,,,,,,,,,,,,,,,10,3,2,2024-10-21_08h32.12.942,uWM_experiment,2022.2.3,59.99649621
,,,,,,,,,,,,,,,,,,,,8,0,8,0,15,0,15,0,,,,,,,,,,,,,,,,,,,,,,,,,,,,,,,,,,,,,,,,,,,,,,,,,,,,,,,,,,,,,,,,,,,,,,0,,,,,,,,,,,,,,,,,,,,,,,,,,,,right,1,160,30,190,0,2372.150784,2372.150784,2372.150784,None,None,2,0,0.9947892,,,,,,,,,,,,,,,,,,,,,,10,3,2,2024-10-21_08h32.12.942,uWM_experiment,2022.2.3,59.99649621
,,,,,,,,,,,,,,,,,,,,8,0,8,0,16,0,16,0,,,,,,,,,,,,,,,,,,,,,,,,,,,,,,,,,,,,,,,,,,,,,,,,,,,,,,,,,,,,,,,,,,,,,,0.125,,,,,,,,,,,,,,,,,,,,,,,,,,,,right,0,70,-30,40,1,2378.701043,2378.701043,2378.701043,None,None,2,0,0.3724412,,,,,,,,,,,,,,,,,,,,,,10,3,2,2024-10-21_08h32.12.942,uWM_experiment,2022.2.3,59.99649621
,,,,,,,,,,,,,,,,,,,,8,0,8,0,17,0,17,0,,,,,,,,,,,,,,,,,,,,,,,,,,,,,,,,,,,,,,,,,,,,,,,,,,,,,,,,,,,,,,,,,,,,,,0.115,,,,,,,,,,,,,,,,,,,,,,,,,,,,right,1,160,30,190,1,2384.967978,2384.967978,2384.967978,None,None,1,1,0.3456936,,,,,,,,,,,,,,,,,,,,,,10,3,2,2024-10-21_08h32.12.942,uWM_experiment,2022.2.3,59.99649621
,,,,,,,,,,,,,,,,,,,,8,0,8,0,18,0,18,0,,,,,,,,,,,,,,,,,,,,,,,,,,,,,,,,,,,,,,,,,,,,,,,,,,,,,,,,,,,,,,,,,,,,,,0.125,,,,,,,,,,,,,,,,,,,,,,,,,,,,right,0,160,-30,130,1,2392.45161,2392.45161,2392.45161,None,None,2,0,0.349932,,,,,,,,,,,,,,,,,,,,,,10,3,2,2024-10-21_08h32.12.942,uWM_experiment,2022.2.3,59.99649621
,,,,,,,,,,,,,,,,,,,,8,0,8,0,19,0,19,0,,,,,,,,,,,,,,,,,,,,,,,,,,,,,,,,,,,,,,,,,,,,,,,,,,,,,,,,,,,,,,,,,,,,,,0.115,,,,,,,,,,,,,,,,,,,,,,,,,,,,right,1,100,30,130,1,2399.101854,2399.101854,2399.101854,None,None,2,0,0.4996581,,,,,,,,,,,,,,,,,,,,,,10,3,2,2024-10-21_08h32.12.942,uWM_experiment,2022.2.3,59.99649621
,,,,,,,,,,,,,,,,,,,,8,0,8,0,20,0,20,0,,,,,,,,,,,,,,,,,,,,,,,,,,,,,,,,,,,,,,,,,,,,,,,,,,,,,,,,,,,,,,,,,,,,,,0,,,,,,,,,,,,,,,,,,,,,,,,,,,,right,0,40,-30,10,0,2405.618793,2405.618793,2405.618793,None,None,2,0,0.3346506,,,,,,,,,,,,,,,,,,,,,,10,3,2,2024-10-21_08h32.12.942,uWM_experiment,2022.2.3,59.99649621
,,,,,,,,,,,,,,,,,,,,8,0,8,0,21,0,21,0,,,,,,,,,,,,,,,,,,,,,,,,,,,,,,,,,,,,,,,,,,,,,,,,,,,,,,,,,,,,,,,,,,,,,,0.105,,,,,,,,,,,,,,,,,,,,,,,,,,,,right,0,100,-30,70,1,2412.102413,2412.102413,2412.102413,None,None,2,0,0.8670109,,,,,,,,,,,,,,,,,,,,,,10,3,2,2024-10-21_08h32.12.942,uWM_experiment,2022.2.3,59.99649621
,,,,,,,,,,,,,,,,,,,,8,0,8,0,22,0,22,0,,,,,,,,,,,,,,,,,,,,,,,,,,,,,,,,,,,,,,,,,,,,,,,,,,,,,,,,,,,,,,,,,,,,,,0,,,,,,,,,,,,,,,,,,,,,,,,,,,,left,1,10,-30,-20,0,2418.835995,2418.835995,2418.835995,None,None,2,0,0.5734366,,,,,,,,,,,,,,,,,,,,,,10,3,2,2024-10-21_08h32.12.942,uWM_experiment,2022.2.3,59.99649621
,,,,,,,,,,,,,,,,,,,,8,0,8,0,23,0,23,0,,,,,,,,,,,,,,,,,,,,,,,,,,,,,,,,,,,,,,,,,,,,,,,,,,,,,,,,,,,,,,,,,,,,,,0.095,,,,,,,,,,,,,,,,,,,,,,,,,,,,left,1,70,-30,40,1,2425.069595,2425.069595,2425.069595,None,None,1,1,0.3398377,,,,,,,,,,,,,,,,,,,,,,10,3,2,2024-10-21_08h32.12.942,uWM_experiment,2022.2.3,59.99649621
,,,,,,,,,,,,,,,,,,,,8,0,8,0,,,,,0,0,0,0,,,,,,,,,,,,,,,,,,,,,,,,,,,,,,,,,,,,,,,,,,,,,,,,,,,,,,,,,,,,,,,,,,,,,,,,,,,,,,,,,,,,,,,,,,,,,,,,,,,,,,,,,,,,2425.436242,2425.436242,space,6.5491434,space,None,,2432.003222,2432.003222,11.0301884,,,,,,,,,,,,10,3,2,2024-10-21_08h32.12.942,uWM_experiment,2022.2.3,59.99649621
,,,,,,,,,,,,,,,,,,,,8,0,8,0,,,,,1,0,1,0,,,,,,,,,,,,,,,,,,,,,,,,,,,,,,,,,,,,,,,,,,,,,,,,,,,,,,,,,,,,,,,,,,,,,,,,,,,,,,,,,,,,,,,,,,,,,,,,,,,,,,,,,,,,,,,,,,,,,,,,,,,,,,,,,10,3,2,2024-10-21_08h32.12.942,uWM_experiment,2022.2.3,59.99649621
,,,,,,,,,,,,,,,,,,,,8,0,8,0,,,,,2,0,2,0,,,,,,,,,,,,,,,,,,,,,,,,,,,,,,,,,,,,,,,,,,,,,,,,,,,,,,,,,,,,,,,,,,,,,,,,,,,,,,,,,,,,,,,,,,,,,,,,,,,,,,,,,,,,,,,,,,,,,,,,,,,,,,,,,10,3,2,2024-10-21_08h32.12.942,uWM_experiment,2022.2.3,59.99649621
,,,,,,,,,,,,,,,,,,,,9,0,9,0,0,0,0,0,,,,,,,,,,,,,,,,,,,,,,,,,,,,,,,,,,,,,,,,,,,,,,,,,,,,,,,,,,,,,,,,,,,,,,0.105,,,,,,,,,,,,,,,,,,,,2443.053659,2443.753683,2444.053739,2444.753723,2445.05374,2445.753769,2445.753769,2446.070478,left,0,40,30,70,1,2450.820648,2450.820648,2450.820648,None,None,2,0,0.492725,,,,,,,None,,,,,,,,,,,,,,,10,3,2,2024-10-21_08h32.12.942,uWM_experiment,2022.2.3,59.99649621
,,,,,,,,,,,,,,,,,,,,9,0,9,0,1,0,1,0,,,,,,,,,,,,,,,,,,,,,,,,,,,,,,,,,,,,,,,,,,,,,,,,,,,,,,,,,,,,,,,,,,,,,,0.095,,,,,,,,,,,,,,,,,,,,,,,,,,,,right,1,40,30,70,1,2456.537544,2456.537544,2456.537544,None,None,1,1,0.2637472,,,,,,,,,,,,,,,,,,,,,,10,3,2,2024-10-21_08h32.12.942,uWM_experiment,2022.2.3,59.99649621
,,,,,,,,,,,,,,,,,,,,9,0,9,0,2,0,2,0,,,,,,,,,,,,,,,,,,,,,,,,,,,,,,,,,,,,,,,,,,,,,,,,,,,,,,,,,,,,,,,,,,,,,,0,,,,,,,,,,,,,,,,,,,,,,,,,,,,right,0,130,-30,100,0,2462.52112,2462.52112,2462.52112,None,None,1,1,0.6482423,,,,,,,,,,,,,,,,,,,,,,10,3,2,2024-10-21_08h32.12.942,uWM_experiment,2022.2.3,59.99649621
,,,,,,,,,,,,,,,,,,,,9,0,9,0,3,0,3,0,,,,,,,,,,,,,,,,,,,,,,,,,,,,,,,,,,,,,,,,,,,,,,,,,,,,,,,,,,,,,,,,,,,,,,0.105,,,,,,,,,,,,,,,,,,,,,,,,,,,,left,1,10,-30,-20,1,2468.921367,2468.921367,2468.921367,None,None,1,1,0.4799673,,,,,,,,,,,,,,,,,,,,,,10,3,2,2024-10-21_08h32.12.942,uWM_experiment,2022.2.3,59.99649621
,,,,,,,,,,,,,,,,,,,,9,0,9,0,4,0,4,0,,,,,,,,,,,,,,,,,,,,,,,,,,,,,,,,,,,,,,,,,,,,,,,,,,,,,,,,,,,,,,,,,,,,,,0,,,,,,,,,,,,,,,,,,,,,,,,,,,,left,1,130,-30,100,0,2475.10495,2475.10495,2475.10495,None,None,1,1,0.552232,,,,,,,,,,,,,,,,,,,,,,10,3,2,2024-10-21_08h32.12.942,uWM_experiment,2022.2.3,59.99649621
,,,,,,,,,,,,,,,,,,,,9,0,9,0,5,0,5,0,,,,,,,,,,,,,,,,,,,,,,,,,,,,,,,,,,,,,,,,,,,,,,,,,,,,,,,,,,,,,,,,,,,,,,0.1,,,,,,,,,,,,,,,,,,,,,,,,,,,,left,1,160,-30,130,2,2483.221958,2483.221958,2483.221958,None,None,3,0,0.9153273,,,,,,,,,,,,,,,,,,,,,,10,3,2,2024-10-21_08h32.12.942,uWM_experiment,2022.2.3,59.99649621
,,,,,,,,,,,,,,,,,,,,9,0,9,0,6,0,6,0,,,,,,,,,,,,,,,,,,,,,,,,,,,,,,,,,,,,,,,,,,,,,,,,,,,,,,,,,,,,,,,,,,,,,,0.115,,,,,,,,,,,,,,,,,,,,,,,,,,,,left,0,100,30,130,1,2489.972251,2489.972251,2489.972251,None,None,2,0,0.3170127,,,,,,,,,,,,,,,,,,,,,,10,3,2,2024-10-21_08h32.12.942,uWM_experiment,2022.2.3,59.99649621
,,,,,,,,,,,,,,,,,,,,9,0,9,0,7,0,7,0,,,,,,,,,,,,,,,,,,,,,,,,,,,,,,,,,,,,,,,,,,,,,,,,,,,,,,,,,,,,,,,,,,,,,,0.105,,,,,,,,,,,,,,,,,,,,,,,,,,,,left,1,70,-30,40,1,2495.889166,2495.889166,2495.889166,None,None,1,1,0.3920413,,,,,,,,,,,,,,,,,,,,,,10,3,2,2024-10-21_08h32.12.942,uWM_experiment,2022.2.3,59.99649621
,,,,,,,,,,,,,,,,,,,,9,0,9,0,8,0,8,0,,,,,,,,,,,,,,,,,,,,,,,,,,,,,,,,,,,,,,,,,,,,,,,,,,,,,,,,,,,,,,,,,,,,,,0.115,,,,,,,,,,,,,,,,,,,,,,,,,,,,left,1,160,-30,130,1,2503.389469,2503.389469,2503.389469,None,None,1,1,0.3716435,,,,,,,,,,,,,,,,,,,,,,10,3,2,2024-10-21_08h32.12.942,uWM_experiment,2022.2.3,59.99649621
,,,,,,,,,,,,,,,,,,,,9,0,9,0,9,0,9,0,,,,,,,,,,,,,,,,,,,,,,,,,,,,,,,,,,,,,,,,,,,,,,,,,,,,,,,,,,,,,,,,,,,,,,0.125,,,,,,,,,,,,,,,,,,,,,,,,,,,,right,1,160,30,190,1,2509.989719,2509.989719,2509.989719,None,None,1,1,1.0033662,,,,,,,,,,,,,,,,,,,,,,10,3,2,2024-10-21_08h32.12.942,uWM_experiment,2022.2.3,59.99649621
,,,,,,,,,,,,,,,,,,,,9,0,9,0,10,0,10,0,,,,,,,,,,,,,,,,,,,,,,,,,,,,,,,,,,,,,,,,,,,,,,,,,,,,,,,,,,,,,,,,,,,,,,0.135,,,,,,,,,,,,,,,,,,,,,,,,,,,,left,0,130,30,160,1,2516.856679,2516.856679,2516.856679,None,None,1,1,0.8565145,,,,,,,,,,,,,,,,,,,,,,10,3,2,2024-10-21_08h32.12.942,uWM_experiment,2022.2.3,59.99649621
,,,,,,,,,,,,,,,,,,,,9,0,9,0,11,0,11,0,,,,,,,,,,,,,,,,,,,,,,,,,,,,,,,,,,,,,,,,,,,,,,,,,,,,,,,,,,,,,,,,,,,,,,0.145,,,,,,,,,,,,,,,,,,,,,,,,,,,,right,0,10,-30,-20,1,2523.506948,2523.506948,2523.506948,None,None,1,1,0.8860818,,,,,,,,,,,,,,,,,,,,,,10,3,2,2024-10-21_08h32.12.942,uWM_experiment,2022.2.3,59.99649621
,,,,,,,,,,,,,,,,,,,,9,0,9,0,12,0,12,0,,,,,,,,,,,,,,,,,,,,,,,,,,,,,,,,,,,,,,,,,,,,,,,,,,,,,,,,,,,,,,,,,,,,,,0.155,,,,,,,,,,,,,,,,,,,,,,,,,,,,right,0,100,-30,70,1,2530.990601,2530.990601,2530.990601,None,None,2,0,0.9144905,,,,,,,,,,,,,,,,,,,,,,10,3,2,2024-10-21_08h32.12.942,uWM_experiment,2022.2.3,59.99649621
,,,,,,,,,,,,,,,,,,,,9,0,9,0,13,0,13,0,,,,,,,,,,,,,,,,,,,,,,,,,,,,,,,,,,,,,,,,,,,,,,,,,,,,,,,,,,,,,,,,,,,,,,0,,,,,,,,,,,,,,,,,,,,,,,,,,,,left,0,160,30,190,0,2537.557541,2537.557541,2537.557541,None,None,1,1,0.9635233,,,,,,,,,,,,,,,,,,,,,,10,3,2,2024-10-21_08h32.12.942,uWM_experiment,2022.2.3,59.99649621
,,,,,,,,,,,,,,,,,,,,9,0,9,0,14,0,14,0,,,,,,,,,,,,,,,,,,,,,,,,,,,,,,,,,,,,,,,,,,,,,,,,,,,,,,,,,,,,,,,,,,,,,,0.145,,,,,,,,,,,,,,,,,,,,,,,,,,,,left,1,70,-30,40,1,2545.157838,2545.157838,2545.157838,None,None,2,0,0.9232549,,,,,,,,,,,,,,,,,,,,,,10,3,2,2024-10-21_08h32.12.942,uWM_experiment,2022.2.3,59.99649621
,,,,,,,,,,,,,,,,,,,,9,0,9,0,15,0,15,0,,,,,,,,,,,,,,,,,,,,,,,,,,,,,,,,,,,,,,,,,,,,,,,,,,,,,,,,,,,,,,,,,,,,,,0.135,,,,,,,,,,,,,,,,,,,,,,,,,,,,left,1,130,-30,100,1,2551.591448,2551.591448,2551.591448,None,None,1,1,1.0016176,,,,,,,,,,,,,,,,,,,,,,10,3,2,2024-10-21_08h32.12.942,uWM_experiment,2022.2.3,59.99649621
,,,,,,,,,,,,,,,,,,,,9,0,9,0,16,0,16,0,,,,,,,,,,,,,,,,,,,,,,,,,,,,,,,,,,,,,,,,,,,,,,,,,,,,,,,,,,,,,,,,,,,,,,0.145,,,,,,,,,,,,,,,,,,,,,,,,,,,,right,0,40,-30,10,1,2558.441727,2558.441727,2558.441727,None,None,2,0,1.3752993,,,,,,,,,,,,,,,,,,,,,,10,3,2,2024-10-21_08h32.12.942,uWM_experiment,2022.2.3,59.99649621
,,,,,,,,,,,,,,,,,,,,9,0,9,0,17,0,17,0,,,,,,,,,,,,,,,,,,,,,,,,,,,,,,,,,,,,,,,,,,,,,,,,,,,,,,,,,,,,,,,,,,,,,,0,,,,,,,,,,,,,,,,,,,,,,,,,,,,right,0,100,-30,70,0,2566.825405,2566.825405,2566.825405,None,None,2,0,0.9915837,,,,,,,,,,,,,,,,,,,,,,10,3,2,2024-10-21_08h32.12.942,uWM_experiment,2022.2.3,59.99649621
,,,,,,,,,,,,,,,,,,,,9,0,9,0,18,0,18,0,,,,,,,,,,,,,,,,,,,,,,,,,,,,,,,,,,,,,,,,,,,,,,,,,,,,,,,,,,,,,,,,,,,,,,0.135,,,,,,,,,,,,,,,,,,,,,,,,,,,,right,0,100,-30,70,1,2573.425654,2573.425654,2573.425654,None,None,3,0,0.8551904,,,,,,,,,,,,,,,,,,,,,,10,3,2,2024-10-21_08h32.12.942,uWM_experiment,2022.2.3,59.99649621
,,,,,,,,,,,,,,,,,,,,9,0,9,0,19,0,19,0,,,,,,,,,,,,,,,,,,,,,,,,,,,,,,,,,,,,,,,,,,,,,,,,,,,,,,,,,,,,,,,,,,,,,,0.125,,,,,,,,,,,,,,,,,,,,,,,,,,,,right,1,10,30,40,1,2580.059272,2580.059272,2580.059272,None,None,2,0,1.1015676,,,,,,,,,,,,,,,,,,,,,,10,3,2,2024-10-21_08h32.12.942,uWM_experiment,2022.2.3,59.99649621
,,,,,,,,,,,,,,,,,,,,9,0,9,0,20,0,20,0,,,,,,,,,,,,,,,,,,,,,,,,,,,,,,,,,,,,,,,,,,,,,,,,,,,,,,,,,,,,,,,,,,,,,,0.115,,,,,,,,,,,,,,,,,,,,,,,,,,,,left,0,130,30,160,1,2587.676229,2587.676229,2587.676229,None,None,1,1,0.6927075,,,,,,,,,,,,,,,,,,,,,,10,3,2,2024-10-21_08h32.12.942,uWM_experiment,2022.2.3,59.99649621
,,,,,,,,,,,,,,,,,,,,9,0,9,0,21,0,21,0,,,,,,,,,,,,,,,,,,,,,,,,,,,,,,,,,,,,,,,,,,,,,,,,,,,,,,,,,,,,,,,,,,,,,,0.1,,,,,,,,,,,,,,,,,,,,,,,,,,,,left,1,160,-30,130,2,2594.359868,2594.359868,2594.359868,None,None,4,0,1.0091393,,,,,,,,,,,,,,,,,,,,,,10,3,2,2024-10-21_08h32.12.942,uWM_experiment,2022.2.3,59.99649621
,,,,,,,,,,,,,,,,,,,,9,0,9,0,22,0,22,0,,,,,,,,,,,,,,,,,,,,,,,,,,,,,,,,,,,,,,,,,,,,,,,,,,,,,,,,,,,,,,,,,,,,,,0,,,,,,,,,,,,,,,,,,,,,,,,,,,,right,0,10,-30,-20,0,2601.460124,2601.460124,2601.460124,None,None,1,1,0.8607933,,,,,,,,,,,,,,,,,,,,,,10,3,2,2024-10-21_08h32.12.942,uWM_experiment,2022.2.3,59.99649621
,,,,,,,,,,,,,,,,,,,,9,0,9,0,23,0,23,0,,,,,,,,,,,,,,,,,,,,,,,,,,,,,,,,,,,,,,,,,,,,,,,,,,,,,,,,,,,,,,,,,,,,,,0.125,,,,,,,,,,,,,,,,,,,,,,,,,,,,right,1,160,30,190,1,2608.277092,2608.277092,2608.277092,None,None,2,0,0.8036989,,,,,,,,,,,,,,,,,,,,,,10,3,2,2024-10-21_08h32.12.942,uWM_experiment,2022.2.3,59.99649621
,,,,,,,,,,,,,,,,,,,,9,0,9,0,,,,,0,0,0,0,,,,,,,,,,,,,,,,,,,,,,,,,,,,,,,,,,,,,,,,,,,,,,,,,,,,,,,,,,,,,,,,,,,,,,,,,,,,,,,,,,,,,,,,,,,,,,,,,,,,,,,,,,,,2609.110434,2609.110434,space,5.5064079,None,None,,,,,,,,,,,,,,,,10,3,2,2024-10-21_08h32.12.942,uWM_experiment,2022.2.3,59.99649621
,,,,,,,,,,,,,,,,,,,,9,0,9,0,,,,,1,0,1,0,,,,,,,,,,,,,,,,,,,,,,,,,,,,,,,,,,,,,,,,,,,,,,,,,,,,,,,,,,,,,,,,,,,,,,,,,,,,,,,,,,,,,,,,,,,,,,,,,,,,,,,,,,,,,,,,,,,,,,,,,,,,,,,,,10,3,2,2024-10-21_08h32.12.942,uWM_experiment,2022.2.3,59.99649621
,,,,,,,,,,,,,,,,,,,,9,0,9,0,,,,,2,0,2,0,,,,,,,,,,,,,,,,,,,,,,,,,,,,,,,,,,,,,,,,,,,,,,,,,,,,,,,,,,,,,,,,,,,,,,,,,,,,,,,,,,,,,,,,,,,,,,,,,,,,,,,,,,,,,,,,,,,,,,,,,,,,,,,,,10,3,2,2024-10-21_08h32.12.942,uWM_experiment,2022.2.3,59.99649621
,,,,,,,,,,,,,,,,,,,,10,0,10,0,0,0,0,0,,,,,,,,,,,,,,,,,,,,,,,,,,,,,,,,,,,,,,,,,,,,,,,,,,,,,,,,,,,,,,,,,,,,,,0.115,,,,,,,,,,,,,,,,,,,,2614.644004,2615.344042,2615.644056,2616.344085,2616.644077,2617.344203,2617.344203,2617.660832,left,0,160,30,190,1,2622.160964,2622.160964,2622.160964,None,None,1,1,0.9278367,,,,,,,None,,,,,,,,,,,,,,,10,3,2,2024-10-21_08h32.12.942,uWM_experiment,2022.2.3,59.99649621
,,,,,,,,,,,,,,,,,,,,10,0,10,0,1,0,1,0,,,,,,,,,,,,,,,,,,,,,,,,,,,,,,,,,,,,,,,,,,,,,,,,,,,,,,,,,,,,,,,,,,,,,,0,,,,,,,,,,,,,,,,,,,,,,,,,,,,right,0,70,-30,40,0,2628.64458,2628.64458,2628.64458,None,None,1,1,0.8602742,,,,,,,,,,,,,,,,,,,,,,10,3,2,2024-10-21_08h32.12.942,uWM_experiment,2022.2.3,59.99649621
,,,,,,,,,,,,,,,,,,,,10,0,10,0,2,0,2,0,,,,,,,,,,,,,,,,,,,,,,,,,,,,,,,,,,,,,,,,,,,,,,,,,,,,,,,,,,,,,,,,,,,,,,0.125,,,,,,,,,,,,,,,,,,,,,,,,,,,,left,1,40,-30,10,1,2635.178188,2635.178188,2635.178188,None,None,1,1,0.8864829,,,,,,,,,,,,,,,,,,,,,,10,3,2,2024-10-21_08h32.12.942,uWM_experiment,2022.2.3,59.99649621
,,,,,,,,,,,,,,,,,,,,10,0,10,0,3,0,3,0,,,,,,,,,,,,,,,,,,,,,,,,,,,,,,,,,,,,,,,,,,,,,,,,,,,,,,,,,,,,,,,,,,,,,,0.135,,,,,,,,,,,,,,,,,,,,,,,,,,,,left,1,40,-30,10,1,2641.628457,2641.628457,2641.628457,None,None,1,1,0.8603803,,,,,,,,,,,,,,,,,,,,,,10,3,2,2024-10-21_08h32.12.942,uWM_experiment,2022.2.3,59.99649621
,,,,,,,,,,,,,,,,,,,,10,0,10,0,4,0,4,0,,,,,,,,,,,,,,,,,,,,,,,,,,,,,,,,,,,,,,,,,,,,,,,,,,,,,,,,,,,,,,,,,,,,,,0.145,,,,,,,,,,,,,,,,,,,,,,,,,,,,right,0,130,-30,100,1,2649.045431,2649.045431,2649.045431,None,None,2,0,0.9392935,,,,,,,,,,,,,,,,,,,,,,10,3,2,2024-10-21_08h32.12.942,uWM_experiment,2022.2.3,59.99649621
,,,,,,,,,,,,,,,,,,,,10,0,10,0,5,0,5,0,,,,,,,,,,,,,,,,,,,,,,,,,,,,,,,,,,,,,,,,,,,,,,,,,,,,,,,,,,,,,,,,,,,,,,0.135,,,,,,,,,,,,,,,,,,,,,,,,,,,,left,0,70,30,100,1,2655.162324,2655.162324,2655.162324,None,None,2,0,1.0064229,,,,,,,,,,,,,,,,,,,,,,10,3,2,2024-10-21_08h32.12.942,uWM_experiment,2022.2.3,59.99649621
,,,,,,,,,,,,,,,,,,,,10,0,10,0,6,0,6,0,,,,,,,,,,,,,,,,,,,,,,,,,,,,,,,,,,,,,,,,,,,,,,,,,,,,,,,,,,,,,,,,,,,,,,0.125,,,,,,,,,,,,,,,,,,,,,,,,,,,,left,1,40,-30,10,1,2661.829253,2661.829253,2661.829253,None,None,2,0,0.9154295,,,,,,,,,,,,,,,,,,,,,,10,3,2,2024-10-21_08h32.12.942,uWM_experiment,2022.2.3,59.99649621
,,,,,,,,,,,,,,,,,,,,10,0,10,0,7,0,7,0,,,,,,,,,,,,,,,,,,,,,,,,,,,,,,,,,,,,,,,,,,,,,,,,,,,,,,,,,,,,,,,,,,,,,,0,,,,,,,,,,,,,,,,,,,,,,,,,,,,left,1,70,-30,40,0,2668.529532,2668.529532,2668.529532,None,None,1,1,0.8790834,,,,,,,,,,,,,,,,,,,,,,10,3,2,2024-10-21_08h32.12.942,uWM_experiment,2022.2.3,59.99649621
,,,,,,,,,,,,,,,,,,,,10,0,10,0,8,0,8,0,,,,,,,,,,,,,,,,,,,,,,,,,,,,,,,,,,,,,,,,,,,,,,,,,,,,,,,,,,,,,,,,,,,,,,0.115,,,,,,,,,,,,,,,,,,,,,,,,,,,,left,1,160,-30,130,1,2676.029826,2676.029826,2676.029826,None,None,2,0,1.1707264,,,,,,,,,,,,,,,,,,,,,,10,3,2,2024-10-21_08h32.12.942,uWM_experiment,2022.2.3,59.99649621
,,,,,,,,,,,,,,,,,,,,10,0,10,0,9,0,9,0,,,,,,,,,,,,,,,,,,,,,,,,,,,,,,,,,,,,,,,,,,,,,,,,,,,,,,,,,,,,,,,,,,,,,,0.105,,,,,,,,,,,,,,,,,,,,,,,,,,,,right,1,10,30,40,1,2682.980134,2682.980134,2682.980134,None,None,1,1,0.9244668,,,,,,,,,,,,,,,,,,,,,,10,3,2,2024-10-21_08h32.12.942,uWM_experiment,2022.2.3,59.99649621
,,,,,,,,,,,,,,,,,,,,10,0,10,0,10,0,10,0,,,,,,,,,,,,,,,,,,,,,,,,,,,,,,,,,,,,,,,,,,,,,,,,,,,,,,,,,,,,,,,,,,,,,,0.115,,,,,,,,,,,,,,,,,,,,,,,,,,,,left,0,40,30,70,1,2689.747066,2689.747066,2689.747066,None,None,2,0,0.9814553,,,,,,,,,,,,,,,,,,,,,,10,3,2,2024-10-21_08h32.12.942,uWM_experiment,2022.2.3,59.99649621
,,,,,,,,,,,,,,,,,,,,10,0,10,0,11,0,11,0,,,,,,,,,,,,,,,,,,,,,,,,,,,,,,,,,,,,,,,,,,,,,,,,,,,,,,,,,,,,,,,,,,,,,,0.105,,,,,,,,,,,,,,,,,,,,,,,,,,,,right,0,10,-30,-20,1,2696.514013,2696.514013,2696.514013,None,None,2,0,1.3184598,,,,,,,,,,,,,,,,,,,,,,10,3,2,2024-10-21_08h32.12.942,uWM_experiment,2022.2.3,59.99649621
,,,,,,,,,,,,,,,,,,,,10,0,10,0,12,0,12,0,,,,,,,,,,,,,,,,,,,,,,,,,,,,,,,,,,,,,,,,,,,,,,,,,,,,,,,,,,,,,,,,,,,,,,0,,,,,,,,,,,,,,,,,,,,,,,,,,,,right,0,160,-30,130,0,2703.597622,2703.597622,2703.597622,None,None,2,0,0.9149612,,,,,,,,,,,,,,,,,,,,,,10,3,2,2024-10-21_08h32.12.942,uWM_experiment,2022.2.3,59.99649621
,,,,,,,,,,,,,,,,,,,,10,0,10,0,13,0,13,0,,,,,,,,,,,,,,,,,,,,,,,,,,,,,,,,,,,,,,,,,,,,,,,,,,,,,,,,,,,,,,,,,,,,,,0.095,,,,,,,,,,,,,,,,,,,,,,,,,,,,left,0,130,30,160,1,2710.447908,2710.447908,2710.447908,None,None,2,0,0.848596,,,,,,,,,,,,,,,,,,,,,,10,3,2,2024-10-21_08h32.12.942,uWM_experiment,2022.2.3,59.99649621
,,,,,,,,,,,,,,,,,,,,10,0,10,0,14,0,14,0,,,,,,,,,,,,,,,,,,,,,,,,,,,,,,,,,,,,,,,,,,,,,,,,,,,,,,,,,,,,,,,,,,,,,,0.085,,,,,,,,,,,,,,,,,,,,,,,,,,,,left,0,40,30,70,1,2717.214866,2717.214866,2717.214866,None,None,2,0,0.7215912,,,,,,,,,,,,,,,,,,,,,,10,3,2,2024-10-21_08h32.12.942,uWM_experiment,2022.2.3,59.99649621
,,,,,,,,,,,,,,,,,,,,10,0,10,0,15,0,15,0,,,,,,,,,,,,,,,,,,,,,,,,,,,,,,,,,,,,,,,,,,,,,,,,,,,,,,,,,,,,,,,,,,,,,,0,,,,,,,,,,,,,,,,,,,,,,,,,,,,left,1,130,-30,100,0,2725.01518,2725.01518,2725.01518,None,None,2,0,1.937187,,,,,,,,,,,,,,,,,,,,,,10,3,2,2024-10-21_08h32.12.942,uWM_experiment,2022.2.3,59.99649621
,,,,,,,,,,,,,,,,,,,,10,0,10,0,16,0,16,0,,,,,,,,,,,,,,,,,,,,,,,,,,,,,,,,,,,,,,,,,,,,,,,,,,,,,,,,,,,,,,,,,,,,,,0.075,,,,,,,,,,,,,,,,,,,,,,,,,,,,left,0,10,30,40,1,2732.498816,2732.498816,2732.498816,None,None,2,0,0.9656993,,,,,,,,,,,,,,,,,,,,,,10,3,2,2024-10-21_08h32.12.942,uWM_experiment,2022.2.3,59.99649621
,,,,,,,,,,,,,,,,,,,,10,0,10,0,17,0,17,0,,,,,,,,,,,,,,,,,,,,,,,,,,,,,,,,,,,,,,,,,,,,,,,,,,,,,,,,,,,,,,,,,,,,,,0.065,,,,,,,,,,,,,,,,,,,,,,,,,,,,left,1,100,-30,70,1,2739.865772,2739.865772,2739.865772,None,None,2,0,0.8466557,,,,,,,,,,,,,,,,,,,,,,10,3,2,2024-10-21_08h32.12.942,uWM_experiment,2022.2.3,59.99649621
,,,,,,,,,,,,,,,,,,,,10,0,10,0,18,0,18,0,,,,,,,,,,,,,,,,,,,,,,,,,,,,,,,,,,,,,,,,,,,,,,,,,,,,,,,,,,,,,,,,,,,,,,0,,,,,,,,,,,,,,,,,,,,,,,,,,,,right,0,100,-30,70,0,2746.749407,2746.749407,2746.749407,None,None,1,1,0.7949421,,,,,,,,,,,,,,,,,,,,,,10,3,2,2024-10-21_08h32.12.942,uWM_experiment,2022.2.3,59.99649621
