PreTrainingPAS4_loop.thisRepN,PreTrainingPAS4_loop.thisTrialN,PreTrainingPAS4_loop.thisN,PreTrainingPAS4_loop.thisIndex,PreTrainingPAS1_loop.thisRepN,PreTrainingPAS1_loop.thisTrialN,PreTrainingPAS1_loop.thisN,PreTrainingPAS1_loop.thisIndex,RepeatCV_loop.thisRepN,RepeatCV_loop.thisTrialN,RepeatCV_loop.thisN,RepeatCV_loop.thisIndex,TrainingCV_loop.thisRepN,TrainingCV_loop.thisTrialN,TrainingCV_loop.thisN,TrainingCV_loop.thisIndex,TrainingCAL_loop.thisRepN,TrainingCAL_loop.thisTrialN,TrainingCAL_loop.thisN,TrainingCAL_loop.thisIndex,blocks_loop.thisRepN,blocks_loop.thisTrialN,blocks_loop.thisN,blocks_loop.thisIndex,trials_loop.thisRepN,trials_loop.thisTrialN,trials_loop.thisN,trials_loop.thisIndex,TrainingPAS1_loop.thisRepN,TrainingPAS1_loop.thisTrialN,TrainingPAS1_loop.thisN,TrainingPAS1_loop.thisIndex,spacebarWelcome0.started,spacebarWelcome0.keys,spacebarWelcome0.rt,spacebarWelcome1.started,gaborWelcome1.started,maskWelcome1.started,textMaskWelcome1.started,spacebarWelcome1.keys,spacebarWelcome1.rt,spacebarWelcome2.started,spacebarWelcome2.keys,spacebarWelcome2.rt,textInst_PreTrainingPAS4.started,spacebarPreTrainingPAS4.started,spacebarPreTrainingPAS4.keys,spacebarPreTrainingPAS4.rt,textPreTrainingPAS1.started,spacebarPreTrainingPAS1.started,spacebarPreTrainingPAS1.keys,spacebarPreTrainingPAS1.rt,textQUEST0.started,spacebarQUEST0.started,spacebarQUEST0.keys,spacebarQUEST0.rt,spacebar0.started,spacebar0.keys,spacebar0.rt,spacebar1.started,spacebar1.keys,spacebar1.rt,textInstructions2.started,spacebar2.started,Gabor1Inst2.started,Gabor2Inst2.started,Gabor3Inst2.started,Gabor4Inst2.started,spacebar2.keys,spacebar2.rt,textInstructionsPAS.started,spacebarInstPAS.started,spacebarInstPAS.keys,spacebarInstPAS.rt,textInstructions3.started,spacebar3.started,spacebar3.keys,spacebar3.rt,WMresp_CV,WMresp_CV_acc,oriMemo_CV,gyre_CV,oriTest_CV,feedbackText.started,feedbackText.stopped,sliderCV.started,PAStextCV.started,PASkeyCV.started,sliderCV.response,sliderCV.rt,PASkeyCV.keys,PASkeyCV.corr,PASkeyCV.rt,TextInstructionsCAL.started,spacebarCAL.started,spacebarCAL.keys,spacebarCAL.rt,contrast,WMresp_CAL,WMresp_CAL_acc,oriMemo_CAL,gyre_CAL,oriTest_CAL,cue_CAL,sliderCAL.started,PAStextCAL.started,PASkeyCAL.started,sliderCAL.response,sliderCAL.rt,PASkeyCAL.keys,PASkeyCAL.corr,PASkeyCAL.rt,propUnseen_CAL,textStart.started,spacebar4.started,spacebar4.keys,spacebar4.rt,three.started,three.stopped,two.started,two.stopped,one.started,one.stopped,blank_countdown.started,blank_countdown.stopped,WMresp,WMresp_acc,oriMemo,gyre,oriTest,cue,slider.started,textPAS_firstGabor.started,PASkey.started,slider.response,slider.rt,PASkey.keys,PASkey.corr,PASkey.rt,spacebarContinue.started,textBreak.started,spacebarContinue.keys,spacebarContinue.rt,spacebar_reminder.keys,spacebar_TrainingPAS1.keys,spacebar_endpractice.keys,spacebar_reminder.started,textReminder.started,spacebar_reminder.rt,textInst_TrainingPAS1.started,spacebar_TrainingPAS1.started,spacebar_TrainingPAS1.rt,textend_practicePAS1.started,spacebar_endpractice.started,spacebar_endpractice.rt,textThanks.started,textThanks.stopped,laboratory,participant,session,date,expName,psychopyVersion,frameRate
,,,,,,,,,,,,,,,,,,,,,,,,,,,,,,,,4212.333299,space,11.0188666,,,,,,,,,,,,,,,,,,,,,,,,,,,,,,,,,,,,,,,,,,,,,,,,,,,,,,,,,,,,,,,,,,,,,,,,,,,,,,,,,,,,,,,,,,,,,,,,,,,,,,,,,,,,,,,,,,,,,,,,,,,10,4,1,2024-10-17_10h55.38.620,uWM_experiment,2022.2.3,59.96720993
,,,,,,,,,,,,,,,,,,,,,,,,,,,,,,,,,,,4223.400172,4223.400172,4223.400172,4223.400172,space,27.9119061,,,,,,,,,,,,,,,,,,,,,,,,,,,,,,,,,,,,,,,,,,,,,,,,,,,,,,,,,,,,,,,,,,,,,,,,,,,,,,,,,,,,,,,,,,,,,,,,,,,,,,,,,,,,,,,,,,,,,10,4,1,2024-10-17_10h55.38.620,uWM_experiment,2022.2.3,59.96720993
,,,,,,,,,,,,,,,,,,,,,,,,,,,,,,,,,,,,,,,,,4251.334596,space,39.1452018,,,,,,,,,,,,,,,,,,,,,,,,,,,,,,,,,,,,,,,,,,,,,,,,,,,,,,,,,,,,,,,,,,,,,,,,,,,,,,,,,,,,,,,,,,,,,,,,,,,,,,,,,,,,,,,,,,10,4,1,2024-10-17_10h55.38.620,uWM_experiment,2022.2.3,59.96720993
,,,,,,,,,,,,,,,,,,,,,,,,,,,,,,,,,,,,,,,,,,,,4290.502784,4290.502784,space,17.1849898,,,,,,,,,,,,,,,,,,,,,,,,,,,,,,,,,,,,,,,,,,,,,,,,,,,,,,,,,,,,,,,,,,,,,,,,,,,,,,,,,,,,,,,,,,,,,,,,,,,,,,,,,,,,,,10,4,1,2024-10-17_10h55.38.620,uWM_experiment,2022.2.3,59.96720993
0,0,0,0,,,,,,,,,,,,,,,,,,,,,,,,,,,,,,,,,,,,,,,,,,,,,,,,,,,,,,,,,,,,,,,,,,,,,,,,,,,,,,,,,,,,,,,,,,,,,,,,,,,,,,,,,,,,,,,,,,,,,,,,,,,,,,,,,,,,,,,,,,,,,,,,,,,,,,,,,,10,4,1,2024-10-17_10h55.38.620,uWM_experiment,2022.2.3,59.96720993
1,0,1,0,,,,,,,,,,,,,,,,,,,,,,,,,,,,,,,,,,,,,,,,,,,,,,,,,,,,,,,,,,,,,,,,,,,,,,,,,,,,,,,,,,,,,,,,,,,,,,,,,,,,,,,,,,,,,,,,,,,,,,,,,,,,,,,,,,,,,,,,,,,,,,,,,,,,,,,,,,10,4,1,2024-10-17_10h55.38.620,uWM_experiment,2022.2.3,59.96720993
2,0,2,0,,,,,,,,,,,,,,,,,,,,,,,,,,,,,,,,,,,,,,,,,,,,,,,,,,,,,,,,,,,,,,,,,,,,,,,,,,,,,,,,,,,,,,,,,,,,,,,,,,,,,,,,,,,,,,,,,,,,,,,,,,,,,,,,,,,,,,,,,,,,,,,,,,,,,,,,,,10,4,1,2024-10-17_10h55.38.620,uWM_experiment,2022.2.3,59.96720993
,,,,,,,,,,,,,,,,,,,,,,,,,,,,,,,,,,,,,,,,,,,,,,,,4319.520609,4319.520609,space,54.2948286,,,,,,,,,,,,,,,,,,,,,,,,,,,,,,,,,,,,,,,,,,,,,,,,,,,,,,,,,,,,,,,,,,,,,,,,,,,,,,,,,,,,,,,,,,,,,,,,,,,,,,,,,,10,4,1,2024-10-17_10h55.38.620,uWM_experiment,2022.2.3,59.96720993
,,,,0,0,0,0,,,,,,,,,,,,,,,,,,,,,,,,,,,,,,,,,,,,,,,,,,,,,,,,,,,,,,,,,,,,,,,,,,,,,,,,,,,,,,,,,,,,,,,,,,,,,,,,,,,,,,,,,,,,,,,,,,,,,,,,,,,,,,,,,,,,,,,,,,,,,,,,,,,,,,10,4,1,2024-10-17_10h55.38.620,uWM_experiment,2022.2.3,59.96720993
,,,,1,0,1,0,,,,,,,,,,,,,,,,,,,,,,,,,,,,,,,,,,,,,,,,,,,,,,,,,,,,,,,,,,,,,,,,,,,,,,,,,,,,,,,,,,,,,,,,,,,,,,,,,,,,,,,,,,,,,,,,,,,,,,,,,,,,,,,,,,,,,,,,,,,,,,,,,,,,,,10,4,1,2024-10-17_10h55.38.620,uWM_experiment,2022.2.3,59.96720993
,,,,2,0,2,0,,,,,,,,,,,,,,,,,,,,,,,,,,,,,,,,,,,,,,,,,,,,,,,,,,,,,,,,,,,,,,,,,,,,,,,,,,,,,,,,,,,,,,,,,,,,,,,,,,,,,,,,,,,,,,,,,,,,,,,,,,,,,,,,,,,,,,,,,,,,,,,,,,,,,,10,4,1,2024-10-17_10h55.38.620,uWM_experiment,2022.2.3,59.96720993
,,,,,,,,,,,,,,,,,,,,,,,,,,,,,,,,,,,,,,,,,,,,,,,,,,,,4382.473058,4382.473058,space,24.8942836,,,,,,,,,,,,,,,,,,,,,,,,,,,,,,,,,,,,,,,,,,,,,,,,,,,,,,,,,,,,,,,,,,,,,,,,,,,,,,,,,,,,,,,,,,,,,,,,,,,,,,10,4,1,2024-10-17_10h55.38.620,uWM_experiment,2022.2.3,59.96720993
,,,,,,,,,,,,,,,,,,,,,,,,,,,,,,,,,,,,,,,,,,,,,,,,,,,,,,,,4522.511925,space,32.6627245,,,,,,,,,,,,,,,,,,,,,,,,,,,,,,,,,,,,,,,,,,,,,,,,,,,,,,,,,,,,,,,,,,,,,,,,,,,,,,,,,,,,,,,,,,,,,,,,,,,10,4,1,2024-10-17_10h55.38.620,uWM_experiment,2022.2.3,59.96720993
,,,,,,,,,,,,,,,,,,,,,,,,,,,,,,,,,,,,,,,,,,,,,,,,,,,,,,,,,,,4555.19655,space,79.9297795,,,,,,,,,,,,,,,,,,,,,,,,,,,,,,,,,,,,,,,,,,,,,,,,,,,,,,,,,,,,,,,,,,,,,,,,,,,,,,,,,,,,,,,,,,,,,,,,10,4,1,2024-10-17_10h55.38.620,uWM_experiment,2022.2.3,59.96720993
,,,,,,,,,,,,,,,,,,,,,,,,,,,,,,,,,,,,,,,,,,,,,,,,,,,,,,,,,,,,,,4635.149715,4635.149715,4635.149715,4635.149715,4635.149715,4635.149715,space,38.3363422,,,,,,,,,,,,,,,,,,,,,,,,,,,,,,,,,,,,,,,,,,,,,,,,,,,,,,,,,,,,,,,,,,,,,,,,,,,,,,,,,,,,,,,,10,4,1,2024-10-17_10h55.38.620,uWM_experiment,2022.2.3,59.96720993
,,,,,,,,,,,,,,,,,,,,,,,,,,,,,,,,,,,,,,,,,,,,,,,,,,,,,,,,,,,,,,,,,,,,,,4673.5179,4673.5179,space,29.6880044,,,,,,,,,,,,,,,,,,,,,,,,,,,,,,,,,,,,,,,,,,,,,,,,,,,,,,,,,,,,,,,,,,,,,,,,,,,,,,,,,,,,10,4,1,2024-10-17_10h55.38.620,uWM_experiment,2022.2.3,59.96720993
,,,,,,,,,,,,,,,,,,,,,,,,,,,,,,,,,,,,,,,,,,,,,,,,,,,,,,,,,,,,,,,,,,,,,,,,,,4703.23573,4703.23573,space,28.7221516,,,,,,,,,,,,,,,,,,,,,,,,,,,,,,,,,,,,,,,,,,,,,,,,,,,,,,,,,,,,,,,,,,,,,,,,,,,,,,,,10,4,1,2024-10-17_10h55.38.620,uWM_experiment,2022.2.3,59.96720993
,,,,,,,,0,0,0,0,0,0,0,0,,,,,,,,,,,,,,,,,,,,,,,,,,,,,,,,,,,,,,,,,,,,,,,,,,,,,,,,,,,,,,,left,0,10,30,40,4742.687288,4743.68734,4743.68734,4743.68734,4743.68734,None,None,3,0,4.9904208,,,,,,,,,,,,,,,,,,,,,,,,,,,,,,,,,,,,,,,,,,,,,,,,,,,,,,,,,,,,,,,,,10,4,1,2024-10-17_10h55.38.620,uWM_experiment,2022.2.3,59.96720993
,,,,,,,,0,0,0,0,1,0,1,0,,,,,,,,,,,,,,,,,,,,,,,,,,,,,,,,,,,,,,,,,,,,,,,,,,,,,,,,,,,,,,,left,1,10,-30,-20,4755.304472,4756.304512,4756.304512,4756.304512,4756.304512,None,None,4,0,1.4772341,,,,,,,,,,,,,,,,,,,,,,,,,,,,,,,,,,,,,,,,,,,,,,,,,,,,,,,,,,,,,,,,,10,4,1,2024-10-17_10h55.38.620,uWM_experiment,2022.2.3,59.96720993
,,,,,,,,0,0,0,0,2,0,2,0,,,,,,,,,,,,,,,,,,,,,,,,,,,,,,,,,,,,,,,,,,,,,,,,,,,,,,,,,,,,,,,left,1,40,-30,10,4764.454861,4765.454872,4765.454872,4765.454872,4765.454872,None,None,4,0,1.062789,,,,,,,,,,,,,,,,,,,,,,,,,,,,,,,,,,,,,,,,,,,,,,,,,,,,,,,,,,,,,,,,,10,4,1,2024-10-17_10h55.38.620,uWM_experiment,2022.2.3,59.96720993
,,,,,,,,0,0,0,0,3,0,3,0,,,,,,,,,,,,,,,,,,,,,,,,,,,,,,,,,,,,,,,,,,,,,,,,,,,,,,,,,,,,,,,right,1,160,30,190,4772.705179,4773.705195,4773.705195,4773.705195,4773.705195,None,None,4,0,1.1404589,,,,,,,,,,,,,,,,,,,,,,,,,,,,,,,,,,,,,,,,,,,,,,,,,,,,,,,,,,,,,,,,,10,4,1,2024-10-17_10h55.38.620,uWM_experiment,2022.2.3,59.96720993
,,,,,,,,0,0,0,0,4,0,4,0,,,,,,,,,,,,,,,,,,,,,,,,,,,,,,,,,,,,,,,,,,,,,,,,,,,,,,,,,,,,,,,left,1,10,-30,-20,4780.638821,4781.638834,4781.638834,4781.638834,4781.638834,None,None,4,0,1.0627195,,,,,,,,,,,,,,,,,,,,,,,,,,,,,,,,,,,,,,,,,,,,,,,,,,,,,,,,,,,,,,,,,10,4,1,2024-10-17_10h55.38.620,uWM_experiment,2022.2.3,59.96720993
,,,,,,,,0,0,0,0,5,0,5,0,,,,,,,,,,,,,,,,,,,,,,,,,,,,,,,,,,,,,,,,,,,,,,,,,,,,,,,,,,,,,,,left,0,70,30,100,4788.60581,4789.605834,4789.605834,4789.605834,4789.605834,None,None,3,0,1.4796495,,,,,,,,,,,,,,,,,,,,,,,,,,,,,,,,,,,,,,,,,,,,,,,,,,,,,,,,,,,,,,,,,10,4,1,2024-10-17_10h55.38.620,uWM_experiment,2022.2.3,59.96720993
,,,,,,,,0,0,0,0,6,0,6,0,,,,,,,,,,,,,,,,,,,,,,,,,,,,,,,,,,,,,,,,,,,,,,,,,,,,,,,,,,,,,,,left,1,10,-30,-20,4796.939464,4797.939479,4797.939479,4797.939479,4797.939479,None,None,3,0,0.3859289,,,,,,,,,,,,,,,,,,,,,,,,,,,,,,,,,,,,,,,,,,,,,,,,,,,,,,,,,,,,,,,,,10,4,1,2024-10-17_10h55.38.620,uWM_experiment,2022.2.3,59.96720993
,,,,,,,,0,0,0,0,7,0,7,0,,,,,,,,,,,,,,,,,,,,,,,,,,,,,,,,,,,,,,,,,,,,,,,,,,,,,,,,,,,,,,,right,0,40,-30,10,4804.723114,4805.723132,4805.723132,4805.723132,4805.723132,None,None,4,0,0.3542494,,,,,,,,,,,,,,,,,,,,,,,,,,,,,,,,,,,,,,,,,,,,,,,,,,,,,,,,,,,,,,,,,10,4,1,2024-10-17_10h55.38.620,uWM_experiment,2022.2.3,59.96720993
,,,,,,,,0,0,0,0,8,0,8,0,,,,,,,,,,,,,,,,,,,,,,,,,,,,,,,,,,,,,,,,,,,,,,,,,,,,,,,,,,,,,,,right,0,130,-30,100,4812.273406,4813.273423,4813.273423,4813.273423,4813.273423,None,None,4,0,0.6199047,,,,,,,,,,,,,,,,,,,,,,,,,,,,,,,,,,,,,,,,,,,,,,,,,,,,,,,,,,,,,,,,,10,4,1,2024-10-17_10h55.38.620,uWM_experiment,2022.2.3,59.96720993
,,,,,,,,0,0,0,0,9,0,9,0,,,,,,,,,,,,,,,,,,,,,,,,,,,,,,,,,,,,,,,,,,,,,,,,,,,,,,,,,,,,,,,left,1,100,-30,70,4819.957044,4820.957044,4820.957044,4820.957044,4820.957044,None,None,4,0,0.2484301,,,,,,,,,,,,,,,,,,,,,,,,,,,,,,,,,,,,,,,,,,,,,,,,,,,,,,,,,,,,,,,,,10,4,1,2024-10-17_10h55.38.620,uWM_experiment,2022.2.3,59.96720993
,,,,,,,,0,0,0,0,10,0,10,0,,,,,,,,,,,,,,,,,,,,,,,,,,,,,,,,,,,,,,,,,,,,,,,,,,,,,,,,,,,,,,,right,1,100,30,130,4828.45736,4829.457394,4829.457394,4829.457394,4829.457394,None,None,4,0,0.5560348,,,,,,,,,,,,,,,,,,,,,,,,,,,,,,,,,,,,,,,,,,,,,,,,,,,,,,,,,,,,,,,,,10,4,1,2024-10-17_10h55.38.620,uWM_experiment,2022.2.3,59.96720993
,,,,,,,,0,0,0,0,11,0,11,0,,,,,,,,,,,,,,,,,,,,,,,,,,,,,,,,,,,,,,,,,,,,,,,,,,,,,,,,,,,,,,,left,1,160,-30,130,4835.957672,4836.957689,4836.957689,4836.957689,4836.957689,None,None,4,0,0.3435836,,,,,,,,,,,,,,,,,,,,,,,,,,,,,,,,,,,,,,,,,,,,,,,,,,,,,,,,,,,,,,,,,10,4,1,2024-10-17_10h55.38.620,uWM_experiment,2022.2.3,59.96720993
,,,,,,,,0,0,0,0,,,,,,,,,,,,,,,,,,,,,,,,,,,,,,,,,,,,,,,,,,,,,,,,,,,,,,,,,,,,,,,,,,,,,,,,,,,,,,,,,,,,,,,,,,,,,,,,,,,,,,,,,,,,,,,,,,,,,,,,,,,,,,,,,,,,,,,,,,,,,,,,,,10,4,1,2024-10-17_10h55.38.620,uWM_experiment,2022.2.3,59.96720993
,,,,,,,,,,,,,,,,,,,,,,,,,,,,,,,,,,,,,,,,,,,,,,,,,,,,,,,,,,,,,,,,,,,,,,,,,,,,,,,,,,,,,,,,,,,,,4856.341773,4856.341773,space,16.5274369,,,,,,,,,,,,,,,,,,,,,,,,,,,,,,,,,,,,,,,,,,,,,,,,,,,,,,,,,,,,,10,4,1,2024-10-17_10h55.38.620,uWM_experiment,2022.2.3,59.96720993
,,,,,,,,,,,,,,,,0,0,0,0,,,,,,,,,,,,,,,,,,,,,,,,,,,,,,,,,,,,,,,,,,,,,,,,,,,,,,,,,,,,,,,,,,,,,,,,,,,,,,0.053572633,right,1,160,30,190,1,4878.776064,4878.776064,4878.776064,None,None,4,0,1.4451159,,,,,,,,,,,,,,,,,,,,,,,,,,,,,,,,,,,,,,,,,,,,,,10,4,1,2024-10-17_10h55.38.620,uWM_experiment,2022.2.3,59.96720993
,,,,,,,,,,,,,,,,1,0,1,0,,,,,,,,,,,,,,,,,,,,,,,,,,,,,,,,,,,,,,,,,,,,,,,,,,,,,,,,,,,,,,,,,,,,,,,,,,,,,,0.043572633,right,0,70,-30,40,1,4886.042969,4886.042969,4886.042969,None,None,3,0,1.8821513,0,,,,,,,,,,,,,,,,,,,,,,,,,,,,,,,,,,,,,,,,,,,,,10,4,1,2024-10-17_10h55.38.620,uWM_experiment,2022.2.3,59.96720993
,,,,,,,,,,,,,,,,2,0,2,0,,,,,,,,,,,,,,,,,,,,,,,,,,,,,,,,,,,,,,,,,,,,,,,,,,,,,,,,,,,,,,,,,,,,,,,,,,,,,,0.033572633,left,1,40,-30,10,1,4894.243301,4894.243301,4894.243301,None,None,4,0,0.5777815,0,,,,,,,,,,,,,,,,,,,,,,,,,,,,,,,,,,,,,,,,,,,,,10,4,1,2024-10-17_10h55.38.620,uWM_experiment,2022.2.3,59.96720993
,,,,,,,,,,,,,,,,3,0,3,0,,,,,,,,,,,,,,,,,,,,,,,,,,,,,,,,,,,,,,,,,,,,,,,,,,,,,,,,,,,,,,,,,,,,,,,,,,,,,,0.1,left,1,130,-30,100,2,4900.743566,4900.743566,4900.743566,None,None,4,0,0.5975393,0,,,,,,,,,,,,,,,,,,,,,,,,,,,,,,,,,,,,,,,,,,,,,10,4,1,2024-10-17_10h55.38.620,uWM_experiment,2022.2.3,59.96720993
,,,,,,,,,,,,,,,,4,0,4,0,,,,,,,,,,,,,,,,,,,,,,,,,,,,,,,,,,,,,,,,,,,,,,,,,,,,,,,,,,,,,,,,,,,,,,,,,,,,,,0.1,right,1,100,30,130,2,4907.42717,4907.42717,4907.42717,None,None,4,0,0.6818952,0,,,,,,,,,,,,,,,,,,,,,,,,,,,,,,,,,,,,,,,,,,,,,10,4,1,2024-10-17_10h55.38.620,uWM_experiment,2022.2.3,59.96720993
,,,,,,,,,,,,,,,,5,0,5,0,,,,,,,,,,,,,,,,,,,,,,,,,,,,,,,,,,,,,,,,,,,,,,,,,,,,,,,,,,,,,,,,,,,,,,,,,,,,,,0.023572633,right,0,70,-30,40,1,4913.994081,4913.994081,4913.994081,None,None,4,0,0.5229159,0,,,,,,,,,,,,,,,,,,,,,,,,,,,,,,,,,,,,,,,,,,,,,10,4,1,2024-10-17_10h55.38.620,uWM_experiment,2022.2.3,59.96720993
,,,,,,,,,,,,,,,,6,0,6,0,,,,,,,,,,,,,,,,,,,,,,,,,,,,,,,,,,,,,,,,,,,,,,,,,,,,,,,,,,,,,,,,,,,,,,,,,,,,,,0.1,right,1,10,30,40,2,4920.361008,4920.361008,4920.361008,None,None,4,0,0.5079402,0,,,,,,,,,,,,,,,,,,,,,,,,,,,,,,,,,,,,,,,,,,,,,10,4,1,2024-10-17_10h55.38.620,uWM_experiment,2022.2.3,59.96720993
,,,,,,,,,,,,,,,,7,0,7,0,,,,,,,,,,,,,,,,,,,,,,,,,,,,,,,,,,,,,,,,,,,,,,,,,,,,,,,,,,,,,,,,,,,,,,,,,,,,,,0.1,right,1,160,30,190,2,4926.477894,4926.477894,4926.477894,None,None,4,0,0.1750431,0,,,,,,,,,,,,,,,,,,,,,,,,,,,,,,,,,,,,,,,,,,,,,10,4,1,2024-10-17_10h55.38.620,uWM_experiment,2022.2.3,59.96720993
,,,,,,,,,,,,,,,,8,0,8,0,,,,,,,,,,,,,,,,,,,,,,,,,,,,,,,,,,,,,,,,,,,,,,,,,,,,,,,,,,,,,,,,,,,,,,,,,,,,,,0.1,right,0,70,-30,40,2,4932.628165,4932.628165,4932.628165,None,None,4,0,0.4727454,0,,,,,,,,,,,,,,,,,,,,,,,,,,,,,,,,,,,,,,,,,,,,,10,4,1,2024-10-17_10h55.38.620,uWM_experiment,2022.2.3,59.96720993
,,,,,,,,,,,,,,,,9,0,9,0,,,,,,,,,,,,,,,,,,,,,,,,,,,,,,,,,,,,,,,,,,,,,,,,,,,,,,,,,,,,,,,,,,,,,,,,,,,,,,0.013572633,left,0,130,30,160,1,4939.295137,4939.295137,4939.295137,None,None,3,0,0.6216616,0,,,,,,,,,,,,,,,,,,,,,,,,,,,,,,,,,,,,,,,,,,,,,10,4,1,2024-10-17_10h55.38.620,uWM_experiment,2022.2.3,59.96720993
,,,,,,,,,,,,,,,,10,0,10,0,,,,,,,,,,,,,,,,,,,,,,,,,,,,,,,,,,,,,,,,,,,,,,,,,,,,,,,,,,,,,,,,,,,,,,,,,,,,,,0.1,left,1,40,-30,10,2,4946.195416,4946.195416,4946.195416,None,None,4,0,0.2733784,0,,,,,,,,,,,,,,,,,,,,,,,,,,,,,,,,,,,,,,,,,,,,,10,4,1,2024-10-17_10h55.38.620,uWM_experiment,2022.2.3,59.96720993
,,,,,,,,,,,,,,,,11,0,11,0,,,,,,,,,,,,,,,,,,,,,,,,,,,,,,,,,,,,,,,,,,,,,,,,,,,,,,,,,,,,,,,,,,,,,,,,,,,,,,0.1,right,1,100,30,130,2,4952.662273,4952.662273,4952.662273,None,None,4,0,0.3104759,0,,,,,,,,,,,,,,,,,,,,,,,,,,,,,,,,,,,,,,,,,,,,,10,4,1,2024-10-17_10h55.38.620,uWM_experiment,2022.2.3,59.96720993
,,,,,,,,,,,,,,,,12,0,12,0,,,,,,,,,,,,,,,,,,,,,,,,,,,,,,,,,,,,,,,,,,,,,,,,,,,,,,,,,,,,,,,,,,,,,,,,,,,,,,0.1,right,1,100,30,130,2,4959.679334,4959.679334,4959.679334,None,None,4,0,0.4693781,0,,,,,,,,,,,,,,,,,,,,,,,,,,,,,,,,,,,,,,,,,,,,,10,4,1,2024-10-17_10h55.38.620,uWM_experiment,2022.2.3,59.96720993
,,,,,,,,,,,,,,,,13,0,13,0,,,,,,,,,,,,,,,,,,,,,,,,,,,,,,,,,,,,,,,,,,,,,,,,,,,,,,,,,,,,,,,,,,,,,,,,,,,,,,0.1,left,1,160,-30,130,2,4966.012774,4966.012774,4966.012774,None,None,4,0,0.1759595,0,,,,,,,,,,,,,,,,,,,,,,,,,,,,,,,,,,,,,,,,,,,,,10,4,1,2024-10-17_10h55.38.620,uWM_experiment,2022.2.3,59.96720993
,,,,,,,,,,,,,,,,14,0,14,0,,,,,,,,,,,,,,,,,,,,,,,,,,,,,,,,,,,,,,,,,,,,,,,,,,,,,,,,,,,,,,,,,,,,,,,,,,,,,,0.005,right,0,10,-30,-20,1,4971.929706,4971.929706,4971.929706,None,None,2,0,0.8830379,0,,,,,,,,,,,,,,,,,,,,,,,,,,,,,,,,,,,,,,,,,,,,,10,4,1,2024-10-17_10h55.38.620,uWM_experiment,2022.2.3,59.96720993
,,,,,,,,,,,,,,,,15,0,15,0,,,,,,,,,,,,,,,,,,,,,,,,,,,,,,,,,,,,,,,,,,,,,,,,,,,,,,,,,,,,,,,,,,,,,,,,,,,,,,0.005,right,0,10,-30,-20,1,4979.046663,4979.046663,4979.046663,None,None,2,0,0.7581085,0,,,,,,,,,,,,,,,,,,,,,,,,,,,,,,,,,,,,,,,,,,,,,10,4,1,2024-10-17_10h55.38.620,uWM_experiment,2022.2.3,59.96720993
,,,,,,,,,,,,,,,,16,0,16,0,,,,,,,,,,,,,,,,,,,,,,,,,,,,,,,,,,,,,,,,,,,,,,,,,,,,,,,,,,,,,,,,,,,,,,,,,,,,,,0.005,right,0,40,-30,10,1,4985.596914,4985.596914,4985.596914,None,None,1,1,0.3516576,0,,,,,,,,,,,,,,,,,,,,,,,,,,,,,,,,,,,,,,,,,,,,,10,4,1,2024-10-17_10h55.38.620,uWM_experiment,2022.2.3,59.96720993
,,,,,,,,,,,,,,,,17,0,17,0,,,,,,,,,,,,,,,,,,,,,,,,,,,,,,,,,,,,,,,,,,,,,,,,,,,,,,,,,,,,,,,,,,,,,,,,,,,,,,0.1,left,1,160,-30,130,2,4992.397177,4992.397177,4992.397177,None,None,4,0,0.535341,0.058823529,,,,,,,,,,,,,,,,,,,,,,,,,,,,,,,,,,,,,,,,,,,,,10,4,1,2024-10-17_10h55.38.620,uWM_experiment,2022.2.3,59.96720993
,,,,,,,,,,,,,,,,18,0,18,0,,,,,,,,,,,,,,,,,,,,,,,,,,,,,,,,,,,,,,,,,,,,,,,,,,,,,,,,,,,,,,,,,,,,,,,,,,,,,,0.1,left,0,100,30,130,2,4998.780775,4998.780775,4998.780775,None,None,4,0,0.3037045,0.055555556,,,,,,,,,,,,,,,,,,,,,,,,,,,,,,,,,,,,,,,,,,,,,10,4,1,2024-10-17_10h55.38.620,uWM_experiment,2022.2.3,59.96720993
,,,,,,,,,,,,,,,,19,0,19,0,,,,,,,,,,,,,,,,,,,,,,,,,,,,,,,,,,,,,,,,,,,,,,,,,,,,,,,,,,,,,,,,,,,,,,,,,,,,,,0.015,right,1,10,30,40,1,5005.164368,5005.164368,5005.164368,None,None,1,1,1.312233,0.052631579,,,,,,,,,,,,,,,,,,,,,,,,,,,,,,,,,,,,,,,,,,,,,10,4,1,2024-10-17_10h55.38.620,uWM_experiment,2022.2.3,59.96720993
,,,,,,,,,,,,,,,,20,0,20,0,,,,,,,,,,,,,,,,,,,,,,,,,,,,,,,,,,,,,,,,,,,,,,,,,,,,,,,,,,,,,,,,,,,,,,,,,,,,,,0.025,left,1,130,-30,100,1,5012.397975,5012.397975,5012.397975,None,None,4,0,0.5184458,0.1,,,,,,,,,,,,,,,,,,,,,,,,,,,,,,,,,,,,,,,,,,,,,10,4,1,2024-10-17_10h55.38.620,uWM_experiment,2022.2.3,59.96720993
,,,,,,,,,,,,,,,,21,0,21,0,,,,,,,,,,,,,,,,,,,,,,,,,,,,,,,,,,,,,,,,,,,,,,,,,,,,,,,,,,,,,,,,,,,,,,,,,,,,,,0.015,left,0,130,30,160,1,5018.148186,5018.148186,5018.148186,None,None,1,1,0.6722054,0.095238095,,,,,,,,,,,,,,,,,,,,,,,,,,,,,,,,,,,,,,,,,,,,,10,4,1,2024-10-17_10h55.38.620,uWM_experiment,2022.2.3,59.96720993
,,,,,,,,,,,,,,,,22,0,22,0,,,,,,,,,,,,,,,,,,,,,,,,,,,,,,,,,,,,,,,,,,,,,,,,,,,,,,,,,,,,,,,,,,,,,,,,,,,,,,0.025,right,1,40,30,70,1,5024.865127,5024.865127,5024.865127,None,None,4,0,0.7633861,0.136363636,,,,,,,,,,,,,,,,,,,,,,,,,,,,,,,,,,,,,,,,,,,,,10,4,1,2024-10-17_10h55.38.620,uWM_experiment,2022.2.3,59.96720993
,,,,,,,,,,,,,,,,23,0,23,0,,,,,,,,,,,,,,,,,,,,,,,,,,,,,,,,,,,,,,,,,,,,,,,,,,,,,,,,,,,,,,,,,,,,,,,,,,,,,,0.1,left,0,70,30,100,2,5031.715382,5031.715382,5031.715382,None,None,4,0,0.7290703,0.130434783,,,,,,,,,,,,,,,,,,,,,,,,,,,,,,,,,,,,,,,,,,,,,10,4,1,2024-10-17_10h55.38.620,uWM_experiment,2022.2.3,59.96720993
,,,,,,,,,,,,,,,,,,,,,,,,,,,,,,,,,,,,,,,,,,,,,,,,,,,,,,,,,,,,,,,,,,,,,,,,,,,,,,,,,,,,,,,,,,,,,,,,,,,,,,,,,,,,,,,,,5032.465394,5033.465466,space,3.6110353,,,,,,,,,,,,,,,,,,,,,,,,,,,,,,,,,,,,,,,,,10,4,1,2024-10-17_10h55.38.620,uWM_experiment,2022.2.3,59.96720993
,,,,,,,,,,,,,,,,,,,,0,0,0,0,0,0,0,0,,,,,,,,,,,,,,,,,,,,,,,,,,,,,,,,,,,,,,,,,,,,,,,,,,,,,,,,,,,,,,,,,,,,,,0.025,,,,,,,,,,,,,,,,,,,,5037.098924,5037.79898,5038.082296,5038.782322,5039.082334,5039.782361,5039.782361,5040.132387,left,0,100,30,130,1,5044.932586,5044.932586,5044.932586,None,None,2,0,0.7438373,,,,,,,,,,,,,,,,,,,10,4,1,2024-10-17_10h55.38.620,uWM_experiment,2022.2.3,59.96720993
,,,,,,,,,,,,,,,,,,,,0,0,0,0,1,0,1,0,,,,,,,,,,,,,,,,,,,,,,,,,,,,,,,,,,,,,,,,,,,,,,,,,,,,,,,,,,,,,,,,,,,,,,0.015,,,,,,,,,,,,,,,,,,,,,,,,,,,,right,0,100,-30,70,1,5051.616162,5051.616162,5051.616162,None,None,2,0,0.8762593,,,,,,,,,,,,,,,,,,,10,4,1,2024-10-17_10h55.38.620,uWM_experiment,2022.2.3,59.96720993
,,,,,,,,,,,,,,,,,,,,0,0,0,0,2,0,2,0,,,,,,,,,,,,,,,,,,,,,,,,,,,,,,,,,,,,,,,,,,,,,,,,,,,,,,,,,,,,,,,,,,,,,,0,,,,,,,,,,,,,,,,,,,,,,,,,,,,left,0,100,30,130,0,5058.116451,5058.116451,5058.116451,None,None,1,1,1.0239096,,,,,,,,,,,,,,,,,,,10,4,1,2024-10-17_10h55.38.620,uWM_experiment,2022.2.3,59.96720993
,,,,,,,,,,,,,,,,,,,,0,0,0,0,3,0,3,0,,,,,,,,,,,,,,,,,,,,,,,,,,,,,,,,,,,,,,,,,,,,,,,,,,,,,,,,,,,,,,,,,,,,,,0.005,,,,,,,,,,,,,,,,,,,,,,,,,,,,left,1,10,-30,-20,1,5064.700036,5064.700036,5064.700036,None,None,2,0,1.392348,,,,,,,,,,,,,,,,,,,10,4,1,2024-10-17_10h55.38.620,uWM_experiment,2022.2.3,59.96720993
,,,,,,,,,,,,,,,,,,,,0,0,0,0,4,0,4,0,,,,,,,,,,,,,,,,,,,,,,,,,,,,,,,,,,,,,,,,,,,,,,,,,,,,,,,,,,,,,,,,,,,,,,0.005,,,,,,,,,,,,,,,,,,,,,,,,,,,,right,1,10,30,40,1,5071.900355,5071.900355,5071.900355,None,None,2,0,0.439954,,,,,,,,,,,,,,,,,,,10,4,1,2024-10-17_10h55.38.620,uWM_experiment,2022.2.3,59.96720993
,,,,,,,,,,,,,,,,,,,,0,0,0,0,5,0,5,0,,,,,,,,,,,,,,,,,,,,,,,,,,,,,,,,,,,,,,,,,,,,,,,,,,,,,,,,,,,,,,,,,,,,,,0.005,,,,,,,,,,,,,,,,,,,,,,,,,,,,right,1,160,30,190,1,5077.917209,5077.917209,5077.917209,None,None,2,0,1.0389623,,,,,,,,,,,,,,,,,,,10,4,1,2024-10-17_10h55.38.620,uWM_experiment,2022.2.3,59.96720993
,,,,,,,,,,,,,,,,,,,,0,0,0,0,6,0,6,0,,,,,,,,,,,,,,,,,,,,,,,,,,,,,,,,,,,,,,,,,,,,,,,,,,,,,,,,,,,,,,,,,,,,,,0.1,,,,,,,,,,,,,,,,,,,,,,,,,,,,left,1,40,-30,10,2,5086.034211,5086.034211,5086.034211,None,None,4,0,0.7699317,,,,,,,,,,,,,,,,,,,10,4,1,2024-10-17_10h55.38.620,uWM_experiment,2022.2.3,59.96720993
,,,,,,,,,,,,,,,,,,,,0,0,0,0,7,0,7,0,,,,,,,,,,,,,,,,,,,,,,,,,,,,,,,,,,,,,,,,,,,,,,,,,,,,,,,,,,,,,,,,,,,,,,0.005,,,,,,,,,,,,,,,,,,,,,,,,,,,,left,1,160,-30,130,1,5092.151097,5092.151097,5092.151097,None,None,1,1,0.9251017,,,,,,,,,,,,,,,,,,,10,4,1,2024-10-17_10h55.38.620,uWM_experiment,2022.2.3,59.96720993
,,,,,,,,,,,,,,,,,,,,0,0,0,0,8,0,8,0,,,,,,,,,,,,,,,,,,,,,,,,,,,,,,,,,,,,,,,,,,,,,,,,,,,,,,,,,,,,,,,,,,,,,,0.015,,,,,,,,,,,,,,,,,,,,,,,,,,,,left,1,160,-30,130,1,5098.868033,5098.868033,5098.868033,None,None,2,0,0.9199968,,,,,,,,,,,,,,,,,,,10,4,1,2024-10-17_10h55.38.620,uWM_experiment,2022.2.3,59.96720993
,,,,,,,,,,,,,,,,,,,,0,0,0,0,9,0,9,0,,,,,,,,,,,,,,,,,,,,,,,,,,,,,,,,,,,,,,,,,,,,,,,,,,,,,,,,,,,,,,,,,,,,,,0.005,,,,,,,,,,,,,,,,,,,,,,,,,,,,right,0,100,-30,70,1,5105.568292,5105.568292,5105.568292,None,None,2,0,0.8438432,,,,,,,,,,,,,,,,,,,10,4,1,2024-10-17_10h55.38.620,uWM_experiment,2022.2.3,59.96720993
,,,,,,,,,,,,,,,,,,,,0,0,0,0,10,0,10,0,,,,,,,,,,,,,,,,,,,,,,,,,,,,,,,,,,,,,,,,,,,,,,,,,,,,,,,,,,,,,,,,,,,,,,0.005,,,,,,,,,,,,,,,,,,,,,,,,,,,,right,1,40,30,70,1,5112.101902,5112.101902,5112.101902,None,None,1,1,0.7103042,,,,,,,,,,,,,,,,,,,10,4,1,2024-10-17_10h55.38.620,uWM_experiment,2022.2.3,59.96720993
,,,,,,,,,,,,,,,,,,,,0,0,0,0,11,0,11,0,,,,,,,,,,,,,,,,,,,,,,,,,,,,,,,,,,,,,,,,,,,,,,,,,,,,,,,,,,,,,,,,,,,,,,0.015,,,,,,,,,,,,,,,,,,,,,,,,,,,,right,1,40,30,70,1,5118.402159,5118.402159,5118.402159,None,None,1,1,0.6818339,,,,,,,,,,,,,,,,,,,10,4,1,2024-10-17_10h55.38.620,uWM_experiment,2022.2.3,59.96720993
,,,,,,,,,,,,,,,,,,,,0,0,0,0,12,0,12,0,,,,,,,,,,,,,,,,,,,,,,,,,,,,,,,,,,,,,,,,,,,,,,,,,,,,,,,,,,,,,,,,,,,,,,0.025,,,,,,,,,,,,,,,,,,,,,,,,,,,,left,1,10,-30,-20,1,5124.835745,5124.835745,5124.835745,None,None,1,1,1.1763445,,,,,,,,,,,,,,,,,,,10,4,1,2024-10-17_10h55.38.620,uWM_experiment,2022.2.3,59.96720993
,,,,,,,,,,,,,,,,,,,,0,0,0,0,13,0,13,0,,,,,,,,,,,,,,,,,,,,,,,,,,,,,,,,,,,,,,,,,,,,,,,,,,,,,,,,,,,,,,,,,,,,,,0.035,,,,,,,,,,,,,,,,,,,,,,,,,,,,right,1,160,30,190,1,5131.669327,5131.669327,5131.669327,None,None,2,0,0.6067266,,,,,,,,,,,,,,,,,,,10,4,1,2024-10-17_10h55.38.620,uWM_experiment,2022.2.3,59.96720993
,,,,,,,,,,,,,,,,,,,,0,0,0,0,14,0,14,0,,,,,,,,,,,,,,,,,,,,,,,,,,,,,,,,,,,,,,,,,,,,,,,,,,,,,,,,,,,,,,,,,,,,,,0.025,,,,,,,,,,,,,,,,,,,,,,,,,,,,left,1,10,-30,-20,1,5137.952903,5137.952903,5137.952903,None,None,2,0,0.467087,,,,,,,,,,,,,,,,,,,10,4,1,2024-10-17_10h55.38.620,uWM_experiment,2022.2.3,59.96720993
,,,,,,,,,,,,,,,,,,,,0,0,0,0,15,0,15,0,,,,,,,,,,,,,,,,,,,,,,,,,,,,,,,,,,,,,,,,,,,,,,,,,,,,,,,,,,,,,,,,,,,,,,0.015,,,,,,,,,,,,,,,,,,,,,,,,,,,,left,0,130,30,160,1,5144.036502,5144.036502,5144.036502,None,None,2,0,0.7914095,,,,,,,,,,,,,,,,,,,10,4,1,2024-10-17_10h55.38.620,uWM_experiment,2022.2.3,59.96720993
,,,,,,,,,,,,,,,,,,,,0,0,0,0,16,0,16,0,,,,,,,,,,,,,,,,,,,,,,,,,,,,,,,,,,,,,,,,,,,,,,,,,,,,,,,,,,,,,,,,,,,,,,0.005,,,,,,,,,,,,,,,,,,,,,,,,,,,,right,0,70,-30,40,1,5150.736759,5150.736759,5150.736759,None,None,2,0,0.563113,,,,,,,,,,,,,,,,,,,10,4,1,2024-10-17_10h55.38.620,uWM_experiment,2022.2.3,59.96720993
,,,,,,,,,,,,,,,,,,,,0,0,0,0,17,0,17,0,,,,,,,,,,,,,,,,,,,,,,,,,,,,,,,,,,,,,,,,,,,,,,,,,,,,,,,,,,,,,,,,,,,,,,0.005,,,,,,,,,,,,,,,,,,,,,,,,,,,,right,0,100,-30,70,1,5156.903651,5156.903651,5156.903651,None,None,1,1,0.756243,,,,,,,,,,,,,,,,,,,10,4,1,2024-10-17_10h55.38.620,uWM_experiment,2022.2.3,59.96720993
,,,,,,,,,,,,,,,,,,,,0,0,0,0,18,0,18,0,,,,,,,,,,,,,,,,,,,,,,,,,,,,,,,,,,,,,,,,,,,,,,,,,,,,,,,,,,,,,,,,,,,,,,0.015,,,,,,,,,,,,,,,,,,,,,,,,,,,,right,0,70,-30,40,1,5163.320587,5163.320587,5163.320587,None,None,2,0,0.4992958,,,,,,,,,,,,,,,,,,,10,4,1,2024-10-17_10h55.38.620,uWM_experiment,2022.2.3,59.96720993
,,,,,,,,,,,,,,,,,,,,0,0,0,0,19,0,19,0,,,,,,,,,,,,,,,,,,,,,,,,,,,,,,,,,,,,,,,,,,,,,,,,,,,,,,,,,,,,,,,,,,,,,,0.005,,,,,,,,,,,,,,,,,,,,,,,,,,,,right,0,100,-30,70,1,5169.470823,5169.470823,5169.470823,None,None,2,0,0.7889618,,,,,,,,,,,,,,,,,,,10,4,1,2024-10-17_10h55.38.620,uWM_experiment,2022.2.3,59.96720993
,,,,,,,,,,,,,,,,,,,,0,0,0,0,20,0,20,0,,,,,,,,,,,,,,,,,,,,,,,,,,,,,,,,,,,,,,,,,,,,,,,,,,,,,,,,,,,,,,,,,,,,,,0.005,,,,,,,,,,,,,,,,,,,,,,,,,,,,right,1,10,30,40,1,5175.987762,5175.987762,5175.987762,None,None,2,0,0.2960386,,,,,,,,,,,,,,,,,,,10,4,1,2024-10-17_10h55.38.620,uWM_experiment,2022.2.3,59.96720993
,,,,,,,,,,,,,,,,,,,,0,0,0,0,21,0,21,0,,,,,,,,,,,,,,,,,,,,,,,,,,,,,,,,,,,,,,,,,,,,,,,,,,,,,,,,,,,,,,,,,,,,,,0.005,,,,,,,,,,,,,,,,,,,,,,,,,,,,left,1,70,-30,40,1,5182.454679,5182.454679,5182.454679,None,None,2,0,0.2369698,,,,,,,,,,,,,,,,,,,10,4,1,2024-10-17_10h55.38.620,uWM_experiment,2022.2.3,59.96720993
,,,,,,,,,,,,,,,,,,,,0,0,0,0,22,0,22,0,,,,,,,,,,,,,,,,,,,,,,,,,,,,,,,,,,,,,,,,,,,,,,,,,,,,,,,,,,,,,,,,,,,,,,0,,,,,,,,,,,,,,,,,,,,,,,,,,,,left,1,160,-30,130,0,5187.971566,5187.971566,5187.971566,None,None,1,1,0.5601794,,,,,,,,,,,,,,,,,,,10,4,1,2024-10-17_10h55.38.620,uWM_experiment,2022.2.3,59.96720993
,,,,,,,,,,,,,,,,,,,,0,0,0,0,23,0,23,0,,,,,,,,,,,,,,,,,,,,,,,,,,,,,,,,,,,,,,,,,,,,,,,,,,,,,,,,,,,,,,,,,,,,,,0.005,,,,,,,,,,,,,,,,,,,,,,,,,,,,left,0,10,30,40,1,5194.271793,5194.271793,5194.271793,None,None,2,0,0.7319299,,,,,,,,,,,,,,,,,,,10,4,1,2024-10-17_10h55.38.620,uWM_experiment,2022.2.3,59.96720993
,,,,,,,,,,,,,,,,,,,,0,0,0,0,,,,,0,0,0,0,,,,,,,,,,,,,,,,,,,,,,,,,,,,,,,,,,,,,,,,,,,,,,,,,,,,,,,,,,,,,,,,,,,,,,,,,,,,,,,,,,,,,,,,,,,,,,,,,,,,,,,,,,,,5195.021847,5195.021847,space,2.6139311,None,None,,,,,,,,,,,,,10,4,1,2024-10-17_10h55.38.620,uWM_experiment,2022.2.3,59.96720993
,,,,,,,,,,,,,,,,,,,,0,0,0,0,,,,,1,0,1,0,,,,,,,,,,,,,,,,,,,,,,,,,,,,,,,,,,,,,,,,,,,,,,,,,,,,,,,,,,,,,,,,,,,,,,,,,,,,,,,,,,,,,,,,,,,,,,,,,,,,,,,,,,,,,,,,,,,,,,,,,,,,,,10,4,1,2024-10-17_10h55.38.620,uWM_experiment,2022.2.3,59.96720993
,,,,,,,,,,,,,,,,,,,,0,0,0,0,,,,,2,0,2,0,,,,,,,,,,,,,,,,,,,,,,,,,,,,,,,,,,,,,,,,,,,,,,,,,,,,,,,,,,,,,,,,,,,,,,,,,,,,,,,,,,,,,,,,,,,,,,,,,,,,,,,,,,,,,,,,,,,,,,,,,,,,,,10,4,1,2024-10-17_10h55.38.620,uWM_experiment,2022.2.3,59.96720993
,,,,,,,,,,,,,,,,,,,,1,0,1,0,0,0,0,0,,,,,,,,,,,,,,,,,,,,,,,,,,,,,,,,,,,,,,,,,,,,,,,,,,,,,,,,,,,,,,,,,,,,,,0,,,,,,,,,,,,,,,,,,,,5197.655307,5198.355285,5198.655285,5199.355323,5199.655339,5200.355364,5200.355364,5200.672053,left,0,100,30,130,0,5205.605592,5205.605592,5205.605592,None,None,2,0,0.574008,,,,,,,None,,,,,,,,,,,,10,4,1,2024-10-17_10h55.38.620,uWM_experiment,2022.2.3,59.96720993
,,,,,,,,,,,,,,,,,,,,1,0,1,0,1,0,1,0,,,,,,,,,,,,,,,,,,,,,,,,,,,,,,,,,,,,,,,,,,,,,,,,,,,,,,,,,,,,,,,,,,,,,,0,,,,,,,,,,,,,,,,,,,,,,,,,,,,right,0,70,-30,40,0,5211.522496,5211.522496,5211.522496,None,None,2,0,0.6651757,,,,,,,,,,,,,,,,,,,10,4,1,2024-10-17_10h55.38.620,uWM_experiment,2022.2.3,59.96720993
,,,,,,,,,,,,,,,,,,,,1,0,1,0,2,0,2,0,,,,,,,,,,,,,,,,,,,,,,,,,,,,,,,,,,,,,,,,,,,,,,,,,,,,,,,,,,,,,,,,,,,,,,0.005,,,,,,,,,,,,,,,,,,,,,,,,,,,,right,0,100,-30,70,1,5218.589427,5218.589427,5218.589427,None,None,2,0,0.7020755,,,,,,,,,,,,,,,,,,,10,4,1,2024-10-17_10h55.38.620,uWM_experiment,2022.2.3,59.96720993
,,,,,,,,,,,,,,,,,,,,1,0,1,0,3,0,3,0,,,,,,,,,,,,,,,,,,,,,,,,,,,,,,,,,,,,,,,,,,,,,,,,,,,,,,,,,,,,,,,,,,,,,,0,,,,,,,,,,,,,,,,,,,,,,,,,,,,left,0,160,30,190,0,5225.239692,5225.239692,5225.239692,None,None,1,1,0.8118574,,,,,,,,,,,,,,,,,,,10,4,1,2024-10-17_10h55.38.620,uWM_experiment,2022.2.3,59.96720993
,,,,,,,,,,,,,,,,,,,,1,0,1,0,4,0,4,0,,,,,,,,,,,,,,,,,,,,,,,,,,,,,,,,,,,,,,,,,,,,,,,,,,,,,,,,,,,,,,,,,,,,,,0.005,,,,,,,,,,,,,,,,,,,,,,,,,,,,left,0,70,30,100,1,5231.739955,5231.739955,5231.739955,None,None,1,1,0.4315713,,,,,,,,,,,,,,,,,,,10,4,1,2024-10-17_10h55.38.620,uWM_experiment,2022.2.3,59.96720993
,,,,,,,,,,,,,,,,,,,,1,0,1,0,5,0,5,0,,,,,,,,,,,,,,,,,,,,,,,,,,,,,,,,,,,,,,,,,,,,,,,,,,,,,,,,,,,,,,,,,,,,,,0.015,,,,,,,,,,,,,,,,,,,,,,,,,,,,left,0,10,30,40,1,5237.390165,5237.390165,5237.390165,None,None,1,1,0.9812979,,,,,,,,,,,,,,,,,,,10,4,1,2024-10-17_10h55.38.620,uWM_experiment,2022.2.3,59.96720993
,,,,,,,,,,,,,,,,,,,,1,0,1,0,6,0,6,0,,,,,,,,,,,,,,,,,,,,,,,,,,,,,,,,,,,,,,,,,,,,,,,,,,,,,,,,,,,,,,,,,,,,,,0.025,,,,,,,,,,,,,,,,,,,,,,,,,,,,left,0,40,30,70,1,5243.990424,5243.990424,5243.990424,None,None,1,1,0.413122,,,,,,,,,,,,,,,,,,,10,4,1,2024-10-17_10h55.38.620,uWM_experiment,2022.2.3,59.96720993
,,,,,,,,,,,,,,,,,,,,1,0,1,0,7,0,7,0,,,,,,,,,,,,,,,,,,,,,,,,,,,,,,,,,,,,,,,,,,,,,,,,,,,,,,,,,,,,,,,,,,,,,,0.035,,,,,,,,,,,,,,,,,,,,,,,,,,,,right,0,70,-30,40,1,5250.590702,5250.590702,5250.590702,None,None,2,0,0.4287761,,,,,,,,,,,,,,,,,,,10,4,1,2024-10-17_10h55.38.620,uWM_experiment,2022.2.3,59.96720993
,,,,,,,,,,,,,,,,,,,,1,0,1,0,8,0,8,0,,,,,,,,,,,,,,,,,,,,,,,,,,,,,,,,,,,,,,,,,,,,,,,,,,,,,,,,,,,,,,,,,,,,,,0.025,,,,,,,,,,,,,,,,,,,,,,,,,,,,left,1,70,-30,40,1,5256.357585,5256.357585,5256.357585,None,None,2,0,0.4537745,,,,,,,,,,,,,,,,,,,10,4,1,2024-10-17_10h55.38.620,uWM_experiment,2022.2.3,59.96720993
,,,,,,,,,,,,,,,,,,,,1,0,1,0,9,0,9,0,,,,,,,,,,,,,,,,,,,,,,,,,,,,,,,,,,,,,,,,,,,,,,,,,,,,,,,,,,,,,,,,,,,,,,0,,,,,,,,,,,,,,,,,,,,,,,,,,,,left,0,100,30,130,0,5262.874525,5262.874525,5262.874525,None,None,2,0,0.7608956,,,,,,,,,,,,,,,,,,,10,4,1,2024-10-17_10h55.38.620,uWM_experiment,2022.2.3,59.96720993
,,,,,,,,,,,,,,,,,,,,1,0,1,0,10,0,10,0,,,,,,,,,,,,,,,,,,,,,,,,,,,,,,,,,,,,,,,,,,,,,,,,,,,,,,,,,,,,,,,,,,,,,,0.015,,,,,,,,,,,,,,,,,,,,,,,,,,,,left,0,40,30,70,1,5269.42478,5269.42478,5269.42478,None,None,2,0,0.3544834,,,,,,,,,,,,,,,,,,,10,4,1,2024-10-17_10h55.38.620,uWM_experiment,2022.2.3,59.96720993
,,,,,,,,,,,,,,,,,,,,1,0,1,0,11,0,11,0,,,,,,,,,,,,,,,,,,,,,,,,,,,,,,,,,,,,,,,,,,,,,,,,,,,,,,,,,,,,,,,,,,,,,,0.005,,,,,,,,,,,,,,,,,,,,,,,,,,,,left,0,100,30,130,1,5275.458347,5275.458347,5275.458347,None,None,2,0,0.4089169,,,,,,,,,,,,,,,,,,,10,4,1,2024-10-17_10h55.38.620,uWM_experiment,2022.2.3,59.96720993
,,,,,,,,,,,,,,,,,,,,1,0,1,0,12,0,12,0,,,,,,,,,,,,,,,,,,,,,,,,,,,,,,,,,,,,,,,,,,,,,,,,,,,,,,,,,,,,,,,,,,,,,,0.005,,,,,,,,,,,,,,,,,,,,,,,,,,,,right,0,40,-30,10,1,5281.091912,5281.091912,5281.091912,None,None,2,0,0.4234244,,,,,,,,,,,,,,,,,,,10,4,1,2024-10-17_10h55.38.620,uWM_experiment,2022.2.3,59.96720993
,,,,,,,,,,,,,,,,,,,,1,0,1,0,13,0,13,0,,,,,,,,,,,,,,,,,,,,,,,,,,,,,,,,,,,,,,,,,,,,,,,,,,,,,,,,,,,,,,,,,,,,,,0.005,,,,,,,,,,,,,,,,,,,,,,,,,,,,left,1,130,-30,100,1,5287.408821,5287.408821,5287.408821,None,None,1,1,1.362392,,,,,,,,,,,,,,,,,,,10,4,1,2024-10-17_10h55.38.620,uWM_experiment,2022.2.3,59.96720993
,,,,,,,,,,,,,,,,,,,,1,0,1,0,14,0,14,0,,,,,,,,,,,,,,,,,,,,,,,,,,,,,,,,,,,,,,,,,,,,,,,,,,,,,,,,,,,,,,,,,,,,,,0.015,,,,,,,,,,,,,,,,,,,,,,,,,,,,left,1,70,-30,40,1,5294.492437,5294.492437,5294.492437,None,None,2,0,0.6707083,,,,,,,,,,,,,,,,,,,10,4,1,2024-10-17_10h55.38.620,uWM_experiment,2022.2.3,59.96720993
,,,,,,,,,,,,,,,,,,,,1,0,1,0,15,0,15,0,,,,,,,,,,,,,,,,,,,,,,,,,,,,,,,,,,,,,,,,,,,,,,,,,,,,,,,,,,,,,,,,,,,,,,0.005,,,,,,,,,,,,,,,,,,,,,,,,,,,,right,1,10,30,40,1,5301.026035,5301.026035,5301.026035,None,None,1,1,0.7051243,,,,,,,,,,,,,,,,,,,10,4,1,2024-10-17_10h55.38.620,uWM_experiment,2022.2.3,59.96720993
,,,,,,,,,,,,,,,,,,,,1,0,1,0,16,0,16,0,,,,,,,,,,,,,,,,,,,,,,,,,,,,,,,,,,,,,,,,,,,,,,,,,,,,,,,,,,,,,,,,,,,,,,0.015,,,,,,,,,,,,,,,,,,,,,,,,,,,,left,0,70,30,100,1,5307.909617,5307.909617,5307.909617,None,None,2,0,0.3975465,,,,,,,,,,,,,,,,,,,10,4,1,2024-10-17_10h55.38.620,uWM_experiment,2022.2.3,59.96720993
,,,,,,,,,,,,,,,,,,,,1,0,1,0,17,0,17,0,,,,,,,,,,,,,,,,,,,,,,,,,,,,,,,,,,,,,,,,,,,,,,,,,,,,,,,,,,,,,,,,,,,,,,0.005,,,,,,,,,,,,,,,,,,,,,,,,,,,,right,0,160,-30,130,1,5314.509868,5314.509868,5314.509868,None,None,1,1,0.5972828,,,,,,,,,,,,,,,,,,,10,4,1,2024-10-17_10h55.38.620,uWM_experiment,2022.2.3,59.96720993
,,,,,,,,,,,,,,,,,,,,1,0,1,0,18,0,18,0,,,,,,,,,,,,,,,,,,,,,,,,,,,,,,,,,,,,,,,,,,,,,,,,,,,,,,,,,,,,,,,,,,,,,,0,,,,,,,,,,,,,,,,,,,,,,,,,,,,right,0,70,-30,40,0,5320.876793,5320.876793,5320.876793,None,None,2,0,0.3584048,,,,,,,,,,,,,,,,,,,10,4,1,2024-10-17_10h55.38.620,uWM_experiment,2022.2.3,59.96720993
,,,,,,,,,,,,,,,,,,,,1,0,1,0,19,0,19,0,,,,,,,,,,,,,,,,,,,,,,,,,,,,,,,,,,,,,,,,,,,,,,,,,,,,,,,,,,,,,,,,,,,,,,0.015,,,,,,,,,,,,,,,,,,,,,,,,,,,,left,1,10,-30,-20,1,5327.210372,5327.210372,5327.210372,None,None,1,1,0.7286538,,,,,,,,,,,,,,,,,,,10,4,1,2024-10-17_10h55.38.620,uWM_experiment,2022.2.3,59.96720993
,,,,,,,,,,,,,,,,,,,,1,0,1,0,20,0,20,0,,,,,,,,,,,,,,,,,,,,,,,,,,,,,,,,,,,,,,,,,,,,,,,,,,,,,,,,,,,,,,,,,,,,,,0,,,,,,,,,,,,,,,,,,,,,,,,,,,,left,0,100,30,130,0,5334.077335,5334.077335,5334.077335,None,None,2,0,0.6137147,,,,,,,,,,,,,,,,,,,10,4,1,2024-10-17_10h55.38.620,uWM_experiment,2022.2.3,59.96720993
,,,,,,,,,,,,,,,,,,,,1,0,1,0,21,0,21,0,,,,,,,,,,,,,,,,,,,,,,,,,,,,,,,,,,,,,,,,,,,,,,,,,,,,,,,,,,,,,,,,,,,,,,0.025,,,,,,,,,,,,,,,,,,,,,,,,,,,,left,0,70,30,100,1,5339.9609,5339.9609,5339.9609,None,None,1,1,0.9940787,,,,,,,,,,,,,,,,,,,10,4,1,2024-10-17_10h55.38.620,uWM_experiment,2022.2.3,59.96720993
,,,,,,,,,,,,,,,,,,,,1,0,1,0,22,0,22,0,,,,,,,,,,,,,,,,,,,,,,,,,,,,,,,,,,,,,,,,,,,,,,,,,,,,,,,,,,,,,,,,,,,,,,0.035,,,,,,,,,,,,,,,,,,,,,,,,,,,,right,0,100,-30,70,1,5347.177839,5347.177839,5347.177839,None,None,2,0,1.4331978,,,,,,,,,,,,,,,,,,,10,4,1,2024-10-17_10h55.38.620,uWM_experiment,2022.2.3,59.96720993
,,,,,,,,,,,,,,,,,,,,1,0,1,0,23,0,23,0,,,,,,,,,,,,,,,,,,,,,,,,,,,,,,,,,,,,,,,,,,,,,,,,,,,,,,,,,,,,,,,,,,,,,,0.025,,,,,,,,,,,,,,,,,,,,,,,,,,,,left,0,160,30,190,1,5353.861451,5353.861451,5353.861451,None,None,2,0,0.4054747,,,,,,,,,,,,,,,,,,,10,4,1,2024-10-17_10h55.38.620,uWM_experiment,2022.2.3,59.96720993
,,,,,,,,,,,,,,,,,,,,1,0,1,0,,,,,0,0,0,0,,,,,,,,,,,,,,,,,,,,,,,,,,,,,,,,,,,,,,,,,,,,,,,,,,,,,,,,,,,,,,,,,,,,,,,,,,,,,,,,,,,,,,,,,,,,,,,,,,,,,,,,,,,,5354.294763,5354.294763,space,1.1882671,None,None,,,,,,,,,,,,,10,4,1,2024-10-17_10h55.38.620,uWM_experiment,2022.2.3,59.96720993
,,,,,,,,,,,,,,,,,,,,1,0,1,0,,,,,1,0,1,0,,,,,,,,,,,,,,,,,,,,,,,,,,,,,,,,,,,,,,,,,,,,,,,,,,,,,,,,,,,,,,,,,,,,,,,,,,,,,,,,,,,,,,,,,,,,,,,,,,,,,,,,,,,,,,,,,,,,,,,,,,,,,,10,4,1,2024-10-17_10h55.38.620,uWM_experiment,2022.2.3,59.96720993
,,,,,,,,,,,,,,,,,,,,1,0,1,0,,,,,2,0,2,0,,,,,,,,,,,,,,,,,,,,,,,,,,,,,,,,,,,,,,,,,,,,,,,,,,,,,,,,,,,,,,,,,,,,,,,,,,,,,,,,,,,,,,,,,,,,,,,,,,,,,,,,,,,,,,,,,,,,,,,,,,,,,,10,4,1,2024-10-17_10h55.38.620,uWM_experiment,2022.2.3,59.96720993
,,,,,,,,,,,,,,,,,,,,2,0,2,0,0,0,0,0,,,,,,,,,,,,,,,,,,,,,,,,,,,,,,,,,,,,,,,,,,,,,,,,,,,,,,,,,,,,,,,,,,,,,,0.015,,,,,,,,,,,,,,,,,,,,5355.511492,5356.211519,5356.511529,5357.211558,5357.511592,5358.211596,5358.211596,5358.528285,right,1,40,30,70,1,5363.545159,5363.545159,5363.545159,None,None,2,0,1.1618222,,,,,,,None,,,,,,,,,,,,10,4,1,2024-10-17_10h55.38.620,uWM_experiment,2022.2.3,59.96720993
,,,,,,,,,,,,,,,,,,,,2,0,2,0,1,0,1,0,,,,,,,,,,,,,,,,,,,,,,,,,,,,,,,,,,,,,,,,,,,,,,,,,,,,,,,,,,,,,,,,,,,,,,0,,,,,,,,,,,,,,,,,,,,,,,,,,,,left,1,40,-30,10,0,5370.16208,5370.16208,5370.16208,None,None,2,0,0.3768963,,,,,,,,,,,,,,,,,,,10,4,1,2024-10-17_10h55.38.620,uWM_experiment,2022.2.3,59.96720993
,,,,,,,,,,,,,,,,,,,,2,0,2,0,2,0,2,0,,,,,,,,,,,,,,,,,,,,,,,,,,,,,,,,,,,,,,,,,,,,,,,,,,,,,,,,,,,,,,,,,,,,,,0.005,,,,,,,,,,,,,,,,,,,,,,,,,,,,right,0,70,-30,40,1,5376.228991,5376.228991,5376.228991,None,None,2,0,0.7898457,,,,,,,,,,,,,,,,,,,10,4,1,2024-10-17_10h55.38.620,uWM_experiment,2022.2.3,59.96720993
,,,,,,,,,,,,,,,,,,,,2,0,2,0,3,0,3,0,,,,,,,,,,,,,,,,,,,,,,,,,,,,,,,,,,,,,,,,,,,,,,,,,,,,,,,,,,,,,,,,,,,,,,0,,,,,,,,,,,,,,,,,,,,,,,,,,,,right,0,160,-30,130,0,5383.012594,5383.012594,5383.012594,None,None,1,1,0.7262978,,,,,,,,,,,,,,,,,,,10,4,1,2024-10-17_10h55.38.620,uWM_experiment,2022.2.3,59.96720993
,,,,,,,,,,,,,,,,,,,,2,0,2,0,4,0,4,0,,,,,,,,,,,,,,,,,,,,,,,,,,,,,,,,,,,,,,,,,,,,,,,,,,,,,,,,,,,,,,,,,,,,,,0,,,,,,,,,,,,,,,,,,,,,,,,,,,,left,1,10,-30,-20,0,5389.662851,5389.662851,5389.662851,None,None,1,1,0.3159067,,,,,,,,,,,,,,,,,,,10,4,1,2024-10-17_10h55.38.620,uWM_experiment,2022.2.3,59.96720993
,,,,,,,,,,,,,,,,,,,,2,0,2,0,5,0,5,0,,,,,,,,,,,,,,,,,,,,,,,,,,,,,,,,,,,,,,,,,,,,,,,,,,,,,,,,,,,,,,,,,,,,,,0.005,,,,,,,,,,,,,,,,,,,,,,,,,,,,left,1,40,-30,10,1,5395.84644,5395.84644,5395.84644,None,None,1,1,0.8522402,,,,,,,,,,,,,,,,,,,10,4,1,2024-10-17_10h55.38.620,uWM_experiment,2022.2.3,59.96720993
,,,,,,,,,,,,,,,,,,,,2,0,2,0,6,0,6,0,,,,,,,,,,,,,,,,,,,,,,,,,,,,,,,,,,,,,,,,,,,,,,,,,,,,,,,,,,,,,,,,,,,,,,0.015,,,,,,,,,,,,,,,,,,,,,,,,,,,,left,1,10,-30,-20,1,5401.896661,5401.896661,5401.896661,None,None,1,1,0.3620389,,,,,,,,,,,,,,,,,,,10,4,1,2024-10-17_10h55.38.620,uWM_experiment,2022.2.3,59.96720993
,,,,,,,,,,,,,,,,,,,,2,0,2,0,7,0,7,0,,,,,,,,,,,,,,,,,,,,,,,,,,,,,,,,,,,,,,,,,,,,,,,,,,,,,,,,,,,,,,,,,,,,,,0,,,,,,,,,,,,,,,,,,,,,,,,,,,,right,1,10,30,40,0,5408.113573,5408.113573,5408.113573,None,None,1,1,0.3611854,,,,,,,,,,,,,,,,,,,10,4,1,2024-10-17_10h55.38.620,uWM_experiment,2022.2.3,59.96720993
,,,,,,,,,,,,,,,,,,,,2,0,2,0,8,0,8,0,,,,,,,,,,,,,,,,,,,,,,,,,,,,,,,,,,,,,,,,,,,,,,,,,,,,,,,,,,,,,,,,,,,,,,0,,,,,,,,,,,,,,,,,,,,,,,,,,,,right,1,40,30,70,0,5414.063806,5414.063806,5414.063806,None,None,2,0,0.5629492,,,,,,,,,,,,,,,,,,,10,4,1,2024-10-17_10h55.38.620,uWM_experiment,2022.2.3,59.96720993
,,,,,,,,,,,,,,,,,,,,2,0,2,0,9,0,9,0,,,,,,,,,,,,,,,,,,,,,,,,,,,,,,,,,,,,,,,,,,,,,,,,,,,,,,,,,,,,,,,,,,,,,,0.025,,,,,,,,,,,,,,,,,,,,,,,,,,,,right,1,160,30,190,1,5420.430726,5420.430726,5420.430726,None,None,1,1,0.4919372,,,,,,,,,,,,,,,,,,,10,4,1,2024-10-17_10h55.38.620,uWM_experiment,2022.2.3,59.96720993
,,,,,,,,,,,,,,,,,,,,2,0,2,0,10,0,10,0,,,,,,,,,,,,,,,,,,,,,,,,,,,,,,,,,,,,,,,,,,,,,,,,,,,,,,,,,,,,,,,,,,,,,,0,,,,,,,,,,,,,,,,,,,,,,,,,,,,right,1,10,30,40,0,5426.680991,5426.680991,5426.680991,None,None,1,1,0.4736541,,,,,,,,,,,,,,,,,,,10,4,1,2024-10-17_10h55.38.620,uWM_experiment,2022.2.3,59.96720993
,,,,,,,,,,,,,,,,,,,,2,0,2,0,11,0,11,0,,,,,,,,,,,,,,,,,,,,,,,,,,,,,,,,,,,,,,,,,,,,,,,,,,,,,,,,,,,,,,,,,,,,,,0.035,,,,,,,,,,,,,,,,,,,,,,,,,,,,right,1,70,30,100,1,5432.847885,5432.847885,5432.847885,None,None,2,0,0.8428187,,,,,,,,,,,,,,,,,,,10,4,1,2024-10-17_10h55.38.620,uWM_experiment,2022.2.3,59.96720993
,,,,,,,,,,,,,,,,,,,,2,0,2,0,12,0,12,0,,,,,,,,,,,,,,,,,,,,,,,,,,,,,,,,,,,,,,,,,,,,,,,,,,,,,,,,,,,,,,,,,,,,,,0,,,,,,,,,,,,,,,,,,,,,,,,,,,,right,1,40,30,70,0,5439.464825,5439.464825,5439.464825,None,None,1,1,0.289787,,,,,,,,,,,,,,,,,,,10,4,1,2024-10-17_10h55.38.620,uWM_experiment,2022.2.3,59.96720993
,,,,,,,,,,,,,,,,,,,,2,0,2,0,13,0,13,0,,,,,,,,,,,,,,,,,,,,,,,,,,,,,,,,,,,,,,,,,,,,,,,,,,,,,,,,,,,,,,,,,,,,,,0.025,,,,,,,,,,,,,,,,,,,,,,,,,,,,left,0,40,30,70,1,5446.265076,5446.265076,5446.265076,None,None,2,0,0.4655084,,,,,,,,,,,,,,,,,,,10,4,1,2024-10-17_10h55.38.620,uWM_experiment,2022.2.3,59.96720993
,,,,,,,,,,,,,,,,,,,,2,0,2,0,14,0,14,0,,,,,,,,,,,,,,,,,,,,,,,,,,,,,,,,,,,,,,,,,,,,,,,,,,,,,,,,,,,,,,,,,,,,,,0.015,,,,,,,,,,,,,,,,,,,,,,,,,,,,left,1,130,-30,100,1,5452.781992,5452.781992,5452.781992,None,None,2,0,0.9485537,,,,,,,,,,,,,,,,,,,10,4,1,2024-10-17_10h55.38.620,uWM_experiment,2022.2.3,59.96720993
,,,,,,,,,,,,,,,,,,,,2,0,2,0,15,0,15,0,,,,,,,,,,,,,,,,,,,,,,,,,,,,,,,,,,,,,,,,,,,,,,,,,,,,,,,,,,,,,,,,,,,,,,0.005,,,,,,,,,,,,,,,,,,,,,,,,,,,,left,0,70,30,100,1,5460.248968,5460.248968,5460.248968,None,None,1,1,0.4575055,,,,,,,,,,,,,,,,,,,10,4,1,2024-10-17_10h55.38.620,uWM_experiment,2022.2.3,59.96720993
,,,,,,,,,,,,,,,,,,,,2,0,2,0,16,0,16,0,,,,,,,,,,,,,,,,,,,,,,,,,,,,,,,,,,,,,,,,,,,,,,,,,,,,,,,,,,,,,,,,,,,,,,0,,,,,,,,,,,,,,,,,,,,,,,,,,,,left,0,100,30,130,0,5466.449215,5466.449215,5466.449215,None,None,1,1,0.3852053,,,,,,,,,,,,,,,,,,,10,4,1,2024-10-17_10h55.38.620,uWM_experiment,2022.2.3,59.96720993
,,,,,,,,,,,,,,,,,,,,2,0,2,0,17,0,17,0,,,,,,,,,,,,,,,,,,,,,,,,,,,,,,,,,,,,,,,,,,,,,,,,,,,,,,,,,,,,,,,,,,,,,,0,,,,,,,,,,,,,,,,,,,,,,,,,,,,right,1,160,30,190,0,5472.816211,5472.816211,5472.816211,None,None,2,0,0.4502874,,,,,,,,,,,,,,,,,,,10,4,1,2024-10-17_10h55.38.620,uWM_experiment,2022.2.3,59.96720993
,,,,,,,,,,,,,,,,,,,,2,0,2,0,18,0,18,0,,,,,,,,,,,,,,,,,,,,,,,,,,,,,,,,,,,,,,,,,,,,,,,,,,,,,,,,,,,,,,,,,,,,,,0,,,,,,,,,,,,,,,,,,,,,,,,,,,,right,0,40,-30,10,0,5478.966382,5478.966382,5478.966382,None,None,2,0,0.40395,,,,,,,,,,,,,,,,,,,10,4,1,2024-10-17_10h55.38.620,uWM_experiment,2022.2.3,59.96720993
,,,,,,,,,,,,,,,,,,,,2,0,2,0,19,0,19,0,,,,,,,,,,,,,,,,,,,,,,,,,,,,,,,,,,,,,,,,,,,,,,,,,,,,,,,,,,,,,,,,,,,,,,0,,,,,,,,,,,,,,,,,,,,,,,,,,,,right,0,10,-30,-20,0,5485.283303,5485.283303,5485.283303,None,None,2,0,0.4550211,,,,,,,,,,,,,,,,,,,10,4,1,2024-10-17_10h55.38.620,uWM_experiment,2022.2.3,59.96720993
,,,,,,,,,,,,,,,,,,,,2,0,2,0,20,0,20,0,,,,,,,,,,,,,,,,,,,,,,,,,,,,,,,,,,,,,,,,,,,,,,,,,,,,,,,,,,,,,,,,,,,,,,0.015,,,,,,,,,,,,,,,,,,,,,,,,,,,,left,0,130,30,160,1,5490.900183,5490.900183,5490.900183,None,None,1,1,0.3341392,,,,,,,,,,,,,,,,,,,10,4,1,2024-10-17_10h55.38.620,uWM_experiment,2022.2.3,59.96720993
,,,,,,,,,,,,,,,,,,,,2,0,2,0,21,0,21,0,,,,,,,,,,,,,,,,,,,,,,,,,,,,,,,,,,,,,,,,,,,,,,,,,,,,,,,,,,,,,,,,,,,,,,0,,,,,,,,,,,,,,,,,,,,,,,,,,,,left,0,70,30,100,0,5496.500408,5496.500408,5496.500408,None,None,1,1,0.6458474,,,,,,,,,,,,,,,,,,,10,4,1,2024-10-17_10h55.38.620,uWM_experiment,2022.2.3,59.96720993
,,,,,,,,,,,,,,,,,,,,2,0,2,0,22,0,22,0,,,,,,,,,,,,,,,,,,,,,,,,,,,,,,,,,,,,,,,,,,,,,,,,,,,,,,,,,,,,,,,,,,,,,,0.1,,,,,,,,,,,,,,,,,,,,,,,,,,,,right,0,100,-30,70,2,5503.284014,5503.284014,5503.284014,None,None,3,0,0.9662704,,,,,,,,,,,,,,,,,,,10,4,1,2024-10-17_10h55.38.620,uWM_experiment,2022.2.3,59.96720993
,,,,,,,,,,,,,,,,,,,,2,0,2,0,23,0,23,0,,,,,,,,,,,,,,,,,,,,,,,,,,,,,,,,,,,,,,,,,,,,,,,,,,,,,,,,,,,,,,,,,,,,,,0.025,,,,,,,,,,,,,,,,,,,,,,,,,,,,left,1,40,-30,10,1,5511.050989,5511.050989,5511.050989,None,None,2,0,0.3992833,,,,,,,,,,,,,,,,,,,10,4,1,2024-10-17_10h55.38.620,uWM_experiment,2022.2.3,59.96720993
,,,,,,,,,,,,,,,,,,,,2,0,2,0,,,,,0,0,0,0,,,,,,,,,,,,,,,,,,,,,,,,,,,,,,,,,,,,,,,,,,,,,,,,,,,,,,,,,,,,,,,,,,,,,,,,,,,,,,,,,,,,,,,,,,,,,,,,,,,,,,,,,,,,5511.467636,5511.467636,space,24.9106215,space,None,,5536.401966,5536.401966,3.5121295,,,,,,,,,10,4,1,2024-10-17_10h55.38.620,uWM_experiment,2022.2.3,59.96720993
,,,,,,,,,,,,,,,,,,,,2,0,2,0,,,,,1,0,1,0,,,,,,,,,,,,,,,,,,,,,,,,,,,,,,,,,,,,,,,,,,,,,,,,,,,,,,,,,,,,,,,,,,,,,,,,,,,,,,,,,,,,,,,,,,,,,,,,,,,,,,,,,,,,,,,,,,,,,,,,,,,,,,10,4,1,2024-10-17_10h55.38.620,uWM_experiment,2022.2.3,59.96720993
,,,,,,,,,,,,,,,,,,,,2,0,2,0,,,,,2,0,2,0,,,,,,,,,,,,,,,,,,,,,,,,,,,,,,,,,,,,,,,,,,,,,,,,,,,,,,,,,,,,,,,,,,,,,,,,,,,,,,,,,,,,,,,,,,,,,,,,,,,,,,,,,,,,,,,,,,,,,,,,,,,,,,10,4,1,2024-10-17_10h55.38.620,uWM_experiment,2022.2.3,59.96720993
,,,,,,,,,,,,,,,,,,,,3,0,3,0,0,0,0,0,,,,,,,,,,,,,,,,,,,,,,,,,,,,,,,,,,,,,,,,,,,,,,,,,,,,,,,,,,,,,,,,,,,,,,0,,,,,,,,,,,,,,,,,,,,5539.935437,5540.63546,5540.935473,5541.6355,5541.935512,5542.635537,5542.635537,5542.952229,right,0,100,-30,70,0,5548.00243,5548.00243,5548.00243,None,None,1,1,1.4875618,,,,,,,None,,,,,,,,,,,,10,4,1,2024-10-17_10h55.38.620,uWM_experiment,2022.2.3,59.96720993
,,,,,,,,,,,,,,,,,,,,3,0,3,0,1,0,1,0,,,,,,,,,,,,,,,,,,,,,,,,,,,,,,,,,,,,,,,,,,,,,,,,,,,,,,,,,,,,,,,,,,,,,,0,,,,,,,,,,,,,,,,,,,,,,,,,,,,right,0,70,-30,40,0,5555.336041,5555.336041,5555.336041,None,None,1,1,0.3940596,,,,,,,,,,,,,,,,,,,10,4,1,2024-10-17_10h55.38.620,uWM_experiment,2022.2.3,59.96720993
,,,,,,,,,,,,,,,,,,,,3,0,3,0,2,0,2,0,,,,,,,,,,,,,,,,,,,,,,,,,,,,,,,,,,,,,,,,,,,,,,,,,,,,,,,,,,,,,,,,,,,,,,0.015,,,,,,,,,,,,,,,,,,,,,,,,,,,,left,0,130,30,160,1,5561.4363,5561.4363,5561.4363,None,None,1,1,0.429787,,,,,,,,,,,,,,,,,,,10,4,1,2024-10-17_10h55.38.620,uWM_experiment,2022.2.3,59.96720993
,,,,,,,,,,,,,,,,,,,,3,0,3,0,3,0,3,0,,,,,,,,,,,,,,,,,,,,,,,,,,,,,,,,,,,,,,,,,,,,,,,,,,,,,,,,,,,,,,,,,,,,,,0,,,,,,,,,,,,,,,,,,,,,,,,,,,,left,1,160,-30,130,0,5567.653201,5567.653201,5567.653201,None,None,2,0,0.3648264,,,,,,,,,,,,,,,,,,,10,4,1,2024-10-17_10h55.38.620,uWM_experiment,2022.2.3,59.96720993
,,,,,,,,,,,,,,,,,,,,3,0,3,0,4,0,4,0,,,,,,,,,,,,,,,,,,,,,,,,,,,,,,,,,,,,,,,,,,,,,,,,,,,,,,,,,,,,,,,,,,,,,,0,,,,,,,,,,,,,,,,,,,,,,,,,,,,right,1,10,30,40,0,5574.33681,5574.33681,5574.33681,None,None,1,1,1.5850777,,,,,,,,,,,,,,,,,,,10,4,1,2024-10-17_10h55.38.620,uWM_experiment,2022.2.3,59.96720993
,,,,,,,,,,,,,,,,,,,,3,0,3,0,5,0,5,0,,,,,,,,,,,,,,,,,,,,,,,,,,,,,,,,,,,,,,,,,,,,,,,,,,,,,,,,,,,,,,,,,,,,,,0.025,,,,,,,,,,,,,,,,,,,,,,,,,,,,left,1,160,-30,130,1,5581.92045,5581.92045,5581.92045,None,None,1,1,0.3935306,,,,,,,,,,,,,,,,,,,10,4,1,2024-10-17_10h55.38.620,uWM_experiment,2022.2.3,59.96720993
,,,,,,,,,,,,,,,,,,,,3,0,3,0,6,0,6,0,,,,,,,,,,,,,,,,,,,,,,,,,,,,,,,,,,,,,,,,,,,,,,,,,,,,,,,,,,,,,,,,,,,,,,0,,,,,,,,,,,,,,,,,,,,,,,,,,,,right,1,10,30,40,0,5588.537429,5588.537429,5588.537429,None,None,2,0,0.3363879,,,,,,,,,,,,,,,,,,,10,4,1,2024-10-17_10h55.38.620,uWM_experiment,2022.2.3,59.96720993
,,,,,,,,,,,,,,,,,,,,3,0,3,0,7,0,7,0,,,,,,,,,,,,,,,,,,,,,,,,,,,,,,,,,,,,,,,,,,,,,,,,,,,,,,,,,,,,,,,,,,,,,,0.035,,,,,,,,,,,,,,,,,,,,,,,,,,,,left,1,70,-30,40,1,5595.270939,5595.270939,5595.270939,None,None,1,1,1.1468812,,,,,,,,,,,,,,,,,,,10,4,1,2024-10-17_10h55.38.620,uWM_experiment,2022.2.3,59.96720993
,,,,,,,,,,,,,,,,,,,,3,0,3,0,8,0,8,0,,,,,,,,,,,,,,,,,,,,,,,,,,,,,,,,,,,,,,,,,,,,,,,,,,,,,,,,,,,,,,,,,,,,,,0.045,,,,,,,,,,,,,,,,,,,,,,,,,,,,left,1,160,-30,130,1,5602.604593,5602.604593,5602.604593,None,None,1,1,0.4371062,,,,,,,,,,,,,,,,,,,10,4,1,2024-10-17_10h55.38.620,uWM_experiment,2022.2.3,59.96720993
,,,,,,,,,,,,,,,,,,,,3,0,3,0,9,0,9,0,,,,,,,,,,,,,,,,,,,,,,,,,,,,,,,,,,,,,,,,,,,,,,,,,,,,,,,,,,,,,,,,,,,,,,0.055,,,,,,,,,,,,,,,,,,,,,,,,,,,,left,1,130,-30,100,1,5609.638223,5609.638223,5609.638223,None,None,2,0,0.9397228,,,,,,,,,,,,,,,,,,,10,4,1,2024-10-17_10h55.38.620,uWM_experiment,2022.2.3,59.96720993
,,,,,,,,,,,,,,,,,,,,3,0,3,0,10,0,10,0,,,,,,,,,,,,,,,,,,,,,,,,,,,,,,,,,,,,,,,,,,,,,,,,,,,,,,,,,,,,,,,,,,,,,,0,,,,,,,,,,,,,,,,,,,,,,,,,,,,right,1,40,30,70,0,5617.171798,5617.171798,5617.171798,None,None,2,0,0.9579054,,,,,,,,,,,,,,,,,,,10,4,1,2024-10-17_10h55.38.620,uWM_experiment,2022.2.3,59.96720993
,,,,,,,,,,,,,,,,,,,,3,0,3,0,11,0,11,0,,,,,,,,,,,,,,,,,,,,,,,,,,,,,,,,,,,,,,,,,,,,,,,,,,,,,,,,,,,,,,,,,,,,,,0.045,,,,,,,,,,,,,,,,,,,,,,,,,,,,left,1,10,-30,-20,1,5625.172128,5625.172128,5625.172128,None,None,2,0,0.6855458,,,,,,,,,,,,,,,,,,,10,4,1,2024-10-17_10h55.38.620,uWM_experiment,2022.2.3,59.96720993
,,,,,,,,,,,,,,,,,,,,3,0,3,0,12,0,12,0,,,,,,,,,,,,,,,,,,,,,,,,,,,,,,,,,,,,,,,,,,,,,,,,,,,,,,,,,,,,,,,,,,,,,,0,,,,,,,,,,,,,,,,,,,,,,,,,,,,left,0,70,30,100,0,5632.272438,5632.272438,5632.272438,None,None,2,0,0.8413758,,,,,,,,,,,,,,,,,,,10,4,1,2024-10-17_10h55.38.620,uWM_experiment,2022.2.3,59.96720993
,,,,,,,,,,,,,,,,,,,,3,0,3,0,13,0,13,0,,,,,,,,,,,,,,,,,,,,,,,,,,,,,,,,,,,,,,,,,,,,,,,,,,,,,,,,,,,,,,,,,,,,,,0.035,,,,,,,,,,,,,,,,,,,,,,,,,,,,left,1,130,-30,100,1,5640.339427,5640.339427,5640.339427,None,None,2,0,0.6701445,,,,,,,,,,,,,,,,,,,10,4,1,2024-10-17_10h55.38.620,uWM_experiment,2022.2.3,59.96720993
,,,,,,,,,,,,,,,,,,,,3,0,3,0,14,0,14,0,,,,,,,,,,,,,,,,,,,,,,,,,,,,,,,,,,,,,,,,,,,,,,,,,,,,,,,,,,,,,,,,,,,,,,0.025,,,,,,,,,,,,,,,,,,,,,,,,,,,,right,0,100,-30,70,1,5647.356364,5647.356364,5647.356364,None,None,2,0,0.581207,,,,,,,,,,,,,,,,,,,10,4,1,2024-10-17_10h55.38.620,uWM_experiment,2022.2.3,59.96720993
,,,,,,,,,,,,,,,,,,,,3,0,3,0,15,0,15,0,,,,,,,,,,,,,,,,,,,,,,,,,,,,,,,,,,,,,,,,,,,,,,,,,,,,,,,,,,,,,,,,,,,,,,0.015,,,,,,,,,,,,,,,,,,,,,,,,,,,,left,1,10,-30,-20,1,5655.490007,5655.490007,5655.490007,None,None,2,0,0.6476939,,,,,,,,,,,,,,,,,,,10,4,1,2024-10-17_10h55.38.620,uWM_experiment,2022.2.3,59.96720993
,,,,,,,,,,,,,,,,,,,,3,0,3,0,16,0,16,0,,,,,,,,,,,,,,,,,,,,,,,,,,,,,,,,,,,,,,,,,,,,,,,,,,,,,,,,,,,,,,,,,,,,,,0,,,,,,,,,,,,,,,,,,,,,,,,,,,,left,0,100,30,130,0,5663.790347,5663.790347,5663.790347,None,None,2,0,0.4671033,,,,,,,,,,,,,,,,,,,10,4,1,2024-10-17_10h55.38.620,uWM_experiment,2022.2.3,59.96720993
,,,,,,,,,,,,,,,,,,,,3,0,3,0,17,0,17,0,,,,,,,,,,,,,,,,,,,,,,,,,,,,,,,,,,,,,,,,,,,,,,,,,,,,,,,,,,,,,,,,,,,,,,0.005,,,,,,,,,,,,,,,,,,,,,,,,,,,,left,1,10,-30,-20,1,5670.240592,5670.240592,5670.240592,None,None,1,1,0.5609274,,,,,,,,,,,,,,,,,,,10,4,1,2024-10-17_10h55.38.620,uWM_experiment,2022.2.3,59.96720993
,,,,,,,,,,,,,,,,,,,,3,0,3,0,18,0,18,0,,,,,,,,,,,,,,,,,,,,,,,,,,,,,,,,,,,,,,,,,,,,,,,,,,,,,,,,,,,,,,,,,,,,,,0,,,,,,,,,,,,,,,,,,,,,,,,,,,,left,0,40,30,70,0,5677.207533,5677.207533,5677.207533,None,None,1,1,0.1698718,,,,,,,,,,,,,,,,,,,10,4,1,2024-10-17_10h55.38.620,uWM_experiment,2022.2.3,59.96720993
,,,,,,,,,,,,,,,,,,,,3,0,3,0,19,0,19,0,,,,,,,,,,,,,,,,,,,,,,,,,,,,,,,,,,,,,,,,,,,,,,,,,,,,,,,,,,,,,,,,,,,,,,0.015,,,,,,,,,,,,,,,,,,,,,,,,,,,,right,0,160,-30,130,1,5683.724461,5683.724461,5683.724461,None,None,1,1,0.268924,,,,,,,,,,,,,,,,,,,10,4,1,2024-10-17_10h55.38.620,uWM_experiment,2022.2.3,59.96720993
,,,,,,,,,,,,,,,,,,,,3,0,3,0,20,0,20,0,,,,,,,,,,,,,,,,,,,,,,,,,,,,,,,,,,,,,,,,,,,,,,,,,,,,,,,,,,,,,,,,,,,,,,0.1,,,,,,,,,,,,,,,,,,,,,,,,,,,,right,1,100,30,130,2,5690.70806,5690.70806,5690.70806,None,None,3,0,0.509459,,,,,,,,,,,,,,,,,,,10,4,1,2024-10-17_10h55.38.620,uWM_experiment,2022.2.3,59.96720993
,,,,,,,,,,,,,,,,,,,,3,0,3,0,21,0,21,0,,,,,,,,,,,,,,,,,,,,,,,,,,,,,,,,,,,,,,,,,,,,,,,,,,,,,,,,,,,,,,,,,,,,,,0.025,,,,,,,,,,,,,,,,,,,,,,,,,,,,right,0,10,-30,-20,1,5697.725018,5697.725018,5697.725018,None,None,1,1,0.4843124,,,,,,,,,,,,,,,,,,,10,4,1,2024-10-17_10h55.38.620,uWM_experiment,2022.2.3,59.96720993
,,,,,,,,,,,,,,,,,,,,3,0,3,0,22,0,22,0,,,,,,,,,,,,,,,,,,,,,,,,,,,,,,,,,,,,,,,,,,,,,,,,,,,,,,,,,,,,,,,,,,,,,,0.035,,,,,,,,,,,,,,,,,,,,,,,,,,,,right,0,100,-30,70,1,5704.775284,5704.775284,5704.775284,None,None,1,1,0.3781793,,,,,,,,,,,,,,,,,,,10,4,1,2024-10-17_10h55.38.620,uWM_experiment,2022.2.3,59.96720993
,,,,,,,,,,,,,,,,,,,,3,0,3,0,23,0,23,0,,,,,,,,,,,,,,,,,,,,,,,,,,,,,,,,,,,,,,,,,,,,,,,,,,,,,,,,,,,,,,,,,,,,,,0.045,,,,,,,,,,,,,,,,,,,,,,,,,,,,right,1,40,30,70,1,5711.825587,5711.825587,5711.825587,None,None,1,1,0.2718041,,,,,,,,,,,,,,,,,,,10,4,1,2024-10-17_10h55.38.620,uWM_experiment,2022.2.3,59.96720993
,,,,,,,,,,,,,,,,,,,,3,0,3,0,,,,,0,0,0,0,,,,,,,,,,,,,,,,,,,,,,,,,,,,,,,,,,,,,,,,,,,,,,,,,,,,,,,,,,,,,,,,,,,,,,,,,,,,,,,,,,,,,,,,,,,,,,,,,,,,,,,,,,,,5712.125554,5712.125554,space,0.8917781,None,None,,,,,,,,,,,,,10,4,1,2024-10-17_10h55.38.620,uWM_experiment,2022.2.3,59.96720993
,,,,,,,,,,,,,,,,,,,,3,0,3,0,,,,,1,0,1,0,,,,,,,,,,,,,,,,,,,,,,,,,,,,,,,,,,,,,,,,,,,,,,,,,,,,,,,,,,,,,,,,,,,,,,,,,,,,,,,,,,,,,,,,,,,,,,,,,,,,,,,,,,,,,,,,,,,,,,,,,,,,,,10,4,1,2024-10-17_10h55.38.620,uWM_experiment,2022.2.3,59.96720993
,,,,,,,,,,,,,,,,,,,,3,0,3,0,,,,,2,0,2,0,,,,,,,,,,,,,,,,,,,,,,,,,,,,,,,,,,,,,,,,,,,,,,,,,,,,,,,,,,,,,,,,,,,,,,,,,,,,,,,,,,,,,,,,,,,,,,,,,,,,,,,,,,,,,,,,,,,,,,,,,,,,,,10,4,1,2024-10-17_10h55.38.620,uWM_experiment,2022.2.3,59.96720993
,,,,,,,,,,,,,,,,,,,,4,0,4,0,0,0,0,0,,,,,,,,,,,,,,,,,,,,,,,,,,,,,,,,,,,,,,,,,,,,,,,,,,,,,,,,,,,,,,,,,,,,,,0.055,,,,,,,,,,,,,,,,,,,,5713.042329,5713.742292,5714.042308,5714.742337,5715.042338,5715.742378,5715.742378,5716.059076,left,0,100,30,130,1,5721.292632,5721.292632,5721.292632,None,None,1,1,0.4447019,,,,,,,None,,,,,,,,,,,,10,4,1,2024-10-17_10h55.38.620,uWM_experiment,2022.2.3,59.96720993
,,,,,,,,,,,,,,,,,,,,4,0,4,0,1,0,1,0,,,,,,,,,,,,,,,,,,,,,,,,,,,,,,,,,,,,,,,,,,,,,,,,,,,,,,,,,,,,,,,,,,,,,,0.065,,,,,,,,,,,,,,,,,,,,,,,,,,,,right,1,40,30,70,1,5728.24289,5728.24289,5728.24289,None,None,2,0,0.7183109,,,,,,,,,,,,,,,,,,,10,4,1,2024-10-17_10h55.38.620,uWM_experiment,2022.2.3,59.96720993
,,,,,,,,,,,,,,,,,,,,4,0,4,0,2,0,2,0,,,,,,,,,,,,,,,,,,,,,,,,,,,,,,,,,,,,,,,,,,,,,,,,,,,,,,,,,,,,,,,,,,,,,,0.055,,,,,,,,,,,,,,,,,,,,,,,,,,,,left,1,40,-30,10,1,5735.693167,5735.693167,5735.693167,None,None,2,0,0.7480435,,,,,,,,,,,,,,,,,,,10,4,1,2024-10-17_10h55.38.620,uWM_experiment,2022.2.3,59.96720993
,,,,,,,,,,,,,,,,,,,,4,0,4,0,3,0,3,0,,,,,,,,,,,,,,,,,,,,,,,,,,,,,,,,,,,,,,,,,,,,,,,,,,,,,,,,,,,,,,,,,,,,,,0.045,,,,,,,,,,,,,,,,,,,,,,,,,,,,right,1,130,30,160,1,5742.476772,5742.476772,5742.476772,None,None,2,0,0.7245002,,,,,,,,,,,,,,,,,,,10,4,1,2024-10-17_10h55.38.620,uWM_experiment,2022.2.3,59.96720993
,,,,,,,,,,,,,,,,,,,,4,0,4,0,4,0,4,0,,,,,,,,,,,,,,,,,,,,,,,,,,,,,,,,,,,,,,,,,,,,,,,,,,,,,,,,,,,,,,,,,,,,,,0,,,,,,,,,,,,,,,,,,,,,,,,,,,,right,0,130,-30,100,0,5748.310352,5748.310352,5748.310352,None,None,1,1,0.2507436,,,,,,,,,,,,,,,,,,,10,4,1,2024-10-17_10h55.38.620,uWM_experiment,2022.2.3,59.96720993
,,,,,,,,,,,,,,,,,,,,4,0,4,0,5,0,5,0,,,,,,,,,,,,,,,,,,,,,,,,,,,,,,,,,,,,,,,,,,,,,,,,,,,,,,,,,,,,,,,,,,,,,,0.035,,,,,,,,,,,,,,,,,,,,,,,,,,,,left,0,70,30,100,1,5754.560595,5754.560595,5754.560595,None,None,1,1,0.3684525,,,,,,,,,,,,,,,,,,,10,4,1,2024-10-17_10h55.38.620,uWM_experiment,2022.2.3,59.96720993
,,,,,,,,,,,,,,,,,,,,4,0,4,0,6,0,6,0,,,,,,,,,,,,,,,,,,,,,,,,,,,,,,,,,,,,,,,,,,,,,,,,,,,,,,,,,,,,,,,,,,,,,,0.045,,,,,,,,,,,,,,,,,,,,,,,,,,,,right,1,10,30,40,1,5760.744162,5760.744162,5760.744162,None,None,1,1,0.4569627,,,,,,,,,,,,,,,,,,,10,4,1,2024-10-17_10h55.38.620,uWM_experiment,2022.2.3,59.96720993
,,,,,,,,,,,,,,,,,,,,4,0,4,0,7,0,7,0,,,,,,,,,,,,,,,,,,,,,,,,,,,,,,,,,,,,,,,,,,,,,,,,,,,,,,,,,,,,,,,,,,,,,,0.055,,,,,,,,,,,,,,,,,,,,,,,,,,,,left,1,160,-30,130,1,5767.144414,5767.144414,5767.144414,None,None,2,0,0.5767905,,,,,,,,,,,,,,,,,,,10,4,1,2024-10-17_10h55.38.620,uWM_experiment,2022.2.3,59.96720993
,,,,,,,,,,,,,,,,,,,,4,0,4,0,8,0,8,0,,,,,,,,,,,,,,,,,,,,,,,,,,,,,,,,,,,,,,,,,,,,,,,,,,,,,,,,,,,,,,,,,,,,,,0,,,,,,,,,,,,,,,,,,,,,,,,,,,,left,0,130,30,160,0,5773.428001,5773.428001,5773.428001,None,None,1,1,0.4049801,,,,,,,,,,,,,,,,,,,10,4,1,2024-10-17_10h55.38.620,uWM_experiment,2022.2.3,59.96720993
,,,,,,,,,,,,,,,,,,,,4,0,4,0,9,0,9,0,,,,,,,,,,,,,,,,,,,,,,,,,,,,,,,,,,,,,,,,,,,,,,,,,,,,,,,,,,,,,,,,,,,,,,0,,,,,,,,,,,,,,,,,,,,,,,,,,,,left,1,40,-30,10,0,5779.511594,5779.511594,5779.511594,None,None,2,0,0.3693876,,,,,,,,,,,,,,,,,,,10,4,1,2024-10-17_10h55.38.620,uWM_experiment,2022.2.3,59.96720993
,,,,,,,,,,,,,,,,,,,,4,0,4,0,10,0,10,0,,,,,,,,,,,,,,,,,,,,,,,,,,,,,,,,,,,,,,,,,,,,,,,,,,,,,,,,,,,,,,,,,,,,,,0.1,,,,,,,,,,,,,,,,,,,,,,,,,,,,left,1,10,-30,-20,2,5785.895162,5785.895162,5785.895162,None,None,4,0,1.5139454,,,,,,,,,,,,,,,,,,,10,4,1,2024-10-17_10h55.38.620,uWM_experiment,2022.2.3,59.96720993
,,,,,,,,,,,,,,,,,,,,4,0,4,0,11,0,11,0,,,,,,,,,,,,,,,,,,,,,,,,,,,,,,,,,,,,,,,,,,,,,,,,,,,,,,,,,,,,,,,,,,,,,,0.045,,,,,,,,,,,,,,,,,,,,,,,,,,,,left,0,130,30,160,1,5793.412137,5793.412137,5793.412137,None,None,1,1,0.3329029,,,,,,,,,,,,,,,,,,,10,4,1,2024-10-17_10h55.38.620,uWM_experiment,2022.2.3,59.96720993
,,,,,,,,,,,,,,,,,,,,4,0,4,0,12,0,12,0,,,,,,,,,,,,,,,,,,,,,,,,,,,,,,,,,,,,,,,,,,,,,,,,,,,,,,,,,,,,,,,,,,,,,,0.055,,,,,,,,,,,,,,,,,,,,,,,,,,,,right,1,10,30,40,1,5799.562358,5799.562358,5799.562358,None,None,2,0,0.8946568,,,,,,,,,,,,,,,,,,,10,4,1,2024-10-17_10h55.38.620,uWM_experiment,2022.2.3,59.96720993
,,,,,,,,,,,,,,,,,,,,4,0,4,0,13,0,13,0,,,,,,,,,,,,,,,,,,,,,,,,,,,,,,,,,,,,,,,,,,,,,,,,,,,,,,,,,,,,,,,,,,,,,,0.045,,,,,,,,,,,,,,,,,,,,,,,,,,,,right,1,40,30,70,1,5806.245973,5806.245973,5806.245973,None,None,1,1,0.354921,,,,,,,,,,,,,,,,,,,10,4,1,2024-10-17_10h55.38.620,uWM_experiment,2022.2.3,59.96720993
,,,,,,,,,,,,,,,,,,,,4,0,4,0,14,0,14,0,,,,,,,,,,,,,,,,,,,,,,,,,,,,,,,,,,,,,,,,,,,,,,,,,,,,,,,,,,,,,,,,,,,,,,0,,,,,,,,,,,,,,,,,,,,,,,,,,,,left,1,100,-30,70,0,5812.229548,5812.229548,5812.229548,None,None,1,1,0.4192696,,,,,,,,,,,,,,,,,,,10,4,1,2024-10-17_10h55.38.620,uWM_experiment,2022.2.3,59.96720993
,,,,,,,,,,,,,,,,,,,,4,0,4,0,15,0,15,0,,,,,,,,,,,,,,,,,,,,,,,,,,,,,,,,,,,,,,,,,,,,,,,,,,,,,,,,,,,,,,,,,,,,,,0.055,,,,,,,,,,,,,,,,,,,,,,,,,,,,right,1,40,30,70,1,5818.563142,5818.563142,5818.563142,None,None,2,0,0.4856516,,,,,,,,,,,,,,,,,,,10,4,1,2024-10-17_10h55.38.620,uWM_experiment,2022.2.3,59.96720993
,,,,,,,,,,,,,,,,,,,,4,0,4,0,16,0,16,0,,,,,,,,,,,,,,,,,,,,,,,,,,,,,,,,,,,,,,,,,,,,,,,,,,,,,,,,,,,,,,,,,,,,,,0.045,,,,,,,,,,,,,,,,,,,,,,,,,,,,right,1,40,30,70,1,5824.78003,5824.78003,5824.78003,None,None,2,0,0.468848,,,,,,,,,,,,,,,,,,,10,4,1,2024-10-17_10h55.38.620,uWM_experiment,2022.2.3,59.96720993
,,,,,,,,,,,,,,,,,,,,4,0,4,0,17,0,17,0,,,,,,,,,,,,,,,,,,,,,,,,,,,,,,,,,,,,,,,,,,,,,,,,,,,,,,,,,,,,,,,,,,,,,,0.1,,,,,,,,,,,,,,,,,,,,,,,,,,,,left,1,130,-30,100,2,5831.763644,5831.763644,5831.763644,None,None,3,0,1.2530884,,,,,,,,,,,,,,,,,,,10,4,1,2024-10-17_10h55.38.620,uWM_experiment,2022.2.3,59.96720993
,,,,,,,,,,,,,,,,,,,,4,0,4,0,18,0,18,0,,,,,,,,,,,,,,,,,,,,,,,,,,,,,,,,,,,,,,,,,,,,,,,,,,,,,,,,,,,,,,,,,,,,,,0.035,,,,,,,,,,,,,,,,,,,,,,,,,,,,left,1,10,-30,-20,1,5840.313991,5840.313991,5840.313991,None,None,1,1,0.2866832,,,,,,,,,,,,,,,,,,,10,4,1,2024-10-17_10h55.38.620,uWM_experiment,2022.2.3,59.96720993
,,,,,,,,,,,,,,,,,,,,4,0,4,0,19,0,19,0,,,,,,,,,,,,,,,,,,,,,,,,,,,,,,,,,,,,,,,,,,,,,,,,,,,,,,,,,,,,,,,,,,,,,,0.045,,,,,,,,,,,,,,,,,,,,,,,,,,,,left,0,100,30,130,1,5846.230893,5846.230893,5846.230893,None,None,1,1,0.3139078,,,,,,,,,,,,,,,,,,,10,4,1,2024-10-17_10h55.38.620,uWM_experiment,2022.2.3,59.96720993
,,,,,,,,,,,,,,,,,,,,4,0,4,0,20,0,20,0,,,,,,,,,,,,,,,,,,,,,,,,,,,,,,,,,,,,,,,,,,,,,,,,,,,,,,,,,,,,,,,,,,,,,,0.055,,,,,,,,,,,,,,,,,,,,,,,,,,,,left,1,100,-30,70,1,5851.714403,5851.714403,5851.714403,None,None,1,1,0.4303711,,,,,,,,,,,,,,,,,,,10,4,1,2024-10-17_10h55.38.620,uWM_experiment,2022.2.3,59.96720993
,,,,,,,,,,,,,,,,,,,,4,0,4,0,21,0,21,0,,,,,,,,,,,,,,,,,,,,,,,,,,,,,,,,,,,,,,,,,,,,,,,,,,,,,,,,,,,,,,,,,,,,,,0.065,,,,,,,,,,,,,,,,,,,,,,,,,,,,right,1,40,30,70,1,5857.864692,5857.864692,5857.864692,None,None,2,0,0.6240272,,,,,,,,,,,,,,,,,,,10,4,1,2024-10-17_10h55.38.620,uWM_experiment,2022.2.3,59.96720993
,,,,,,,,,,,,,,,,,,,,4,0,4,0,22,0,22,0,,,,,,,,,,,,,,,,,,,,,,,,,,,,,,,,,,,,,,,,,,,,,,,,,,,,,,,,,,,,,,,,,,,,,,0.055,,,,,,,,,,,,,,,,,,,,,,,,,,,,right,1,130,30,160,1,5865.164959,5865.164959,5865.164959,None,None,3,0,1.4036066,,,,,,,,,,,,,,,,,,,10,4,1,2024-10-17_10h55.38.620,uWM_experiment,2022.2.3,59.96720993
,,,,,,,,,,,,,,,,,,,,4,0,4,0,23,0,23,0,,,,,,,,,,,,,,,,,,,,,,,,,,,,,,,,,,,,,,,,,,,,,,,,,,,,,,,,,,,,,,,,,,,,,,0.045,,,,,,,,,,,,,,,,,,,,,,,,,,,,left,1,100,-30,70,1,5872.365261,5872.365261,5872.365261,None,None,2,0,0.467272,,,,,,,,,,,,,,,,,,,10,4,1,2024-10-17_10h55.38.620,uWM_experiment,2022.2.3,59.96720993
,,,,,,,,,,,,,,,,,,,,4,0,4,0,,,,,0,0,0,0,,,,,,,,,,,,,,,,,,,,,,,,,,,,,,,,,,,,,,,,,,,,,,,,,,,,,,,,,,,,,,,,,,,,,,,,,,,,,,,,,,,,,,,,,,,,,,,,,,,,,,,,,,,,5872.865245,5872.865245,space,0.9994339,None,None,,,,,,,,,,,,,10,4,1,2024-10-17_10h55.38.620,uWM_experiment,2022.2.3,59.96720993
,,,,,,,,,,,,,,,,,,,,4,0,4,0,,,,,1,0,1,0,,,,,,,,,,,,,,,,,,,,,,,,,,,,,,,,,,,,,,,,,,,,,,,,,,,,,,,,,,,,,,,,,,,,,,,,,,,,,,,,,,,,,,,,,,,,,,,,,,,,,,,,,,,,,,,,,,,,,,,,,,,,,,10,4,1,2024-10-17_10h55.38.620,uWM_experiment,2022.2.3,59.96720993
,,,,,,,,,,,,,,,,,,,,4,0,4,0,,,,,2,0,2,0,,,,,,,,,,,,,,,,,,,,,,,,,,,,,,,,,,,,,,,,,,,,,,,,,,,,,,,,,,,,,,,,,,,,,,,,,,,,,,,,,,,,,,,,,,,,,,,,,,,,,,,,,,,,,,,,,,,,,,,,,,,,,,10,4,1,2024-10-17_10h55.38.620,uWM_experiment,2022.2.3,59.96720993
,,,,,,,,,,,,,,,,,,,,5,0,5,0,0,0,0,0,,,,,,,,,,,,,,,,,,,,,,,,,,,,,,,,,,,,,,,,,,,,,,,,,,,,,,,,,,,,,,,,,,,,,,0.035,,,,,,,,,,,,,,,,,,,,5873.881969,5874.581988,5874.881998,5875.582031,5875.88205,5876.582072,5876.582072,5876.898758,left,1,130,-30,100,1,5881.682273,5881.682273,5881.682273,None,None,1,1,0.3823993,,,,,,,None,,,,,,,,,,,,10,4,1,2024-10-17_10h55.38.620,uWM_experiment,2022.2.3,59.96720993
,,,,,,,,,,,,,,,,,,,,5,0,5,0,1,0,1,0,,,,,,,,,,,,,,,,,,,,,,,,,,,,,,,,,,,,,,,,,,,,,,,,,,,,,,,,,,,,,,,,,,,,,,0.045,,,,,,,,,,,,,,,,,,,,,,,,,,,,left,0,10,30,40,1,5887.865845,5887.865845,5887.865845,None,None,1,1,0.5108162,,,,,,,,,,,,,,,,,,,10,4,1,2024-10-17_10h55.38.620,uWM_experiment,2022.2.3,59.96720993
,,,,,,,,,,,,,,,,,,,,5,0,5,0,2,0,2,0,,,,,,,,,,,,,,,,,,,,,,,,,,,,,,,,,,,,,,,,,,,,,,,,,,,,,,,,,,,,,,,,,,,,,,0.055,,,,,,,,,,,,,,,,,,,,,,,,,,,,left,1,160,-30,130,1,5894.132792,5894.132792,5894.132792,None,None,1,1,0.2597911,,,,,,,,,,,,,,,,,,,10,4,1,2024-10-17_10h55.38.620,uWM_experiment,2022.2.3,59.96720993
,,,,,,,,,,,,,,,,,,,,5,0,5,0,3,0,3,0,,,,,,,,,,,,,,,,,,,,,,,,,,,,,,,,,,,,,,,,,,,,,,,,,,,,,,,,,,,,,,,,,,,,,,0.065,,,,,,,,,,,,,,,,,,,,,,,,,,,,right,1,130,30,160,1,5900.049684,5900.049684,5900.049684,None,None,2,0,0.5428786,,,,,,,,,,,,,,,,,,,10,4,1,2024-10-17_10h55.38.620,uWM_experiment,2022.2.3,59.96720993
,,,,,,,,,,,,,,,,,,,,5,0,5,0,4,0,4,0,,,,,,,,,,,,,,,,,,,,,,,,,,,,,,,,,,,,,,,,,,,,,,,,,,,,,,,,,,,,,,,,,,,,,,0.055,,,,,,,,,,,,,,,,,,,,,,,,,,,,left,0,100,30,130,1,5906.599943,5906.599943,5906.599943,None,None,1,1,0.3844693,,,,,,,,,,,,,,,,,,,10,4,1,2024-10-17_10h55.38.620,uWM_experiment,2022.2.3,59.96720993
,,,,,,,,,,,,,,,,,,,,5,0,5,0,5,0,5,0,,,,,,,,,,,,,,,,,,,,,,,,,,,,,,,,,,,,,,,,,,,,,,,,,,,,,,,,,,,,,,,,,,,,,,0.1,,,,,,,,,,,,,,,,,,,,,,,,,,,,left,1,100,-30,70,2,5915.533629,5915.533629,5915.533629,None,None,1,1,1.2669514,,,,,,,,,,,,,,,,,,,10,4,1,2024-10-17_10h55.38.620,uWM_experiment,2022.2.3,59.96720993
,,,,,,,,,,,,,,,,,,,,5,0,5,0,6,0,6,0,,,,,,,,,,,,,,,,,,,,,,,,,,,,,,,,,,,,,,,,,,,,,,,,,,,,,,,,,,,,,,,,,,,,,,0.065,,,,,,,,,,,,,,,,,,,,,,,,,,,,right,1,100,30,130,1,5923.283938,5923.283938,5923.283938,None,None,2,0,0.5324469,,,,,,,,,,,,,,,,,,,10,4,1,2024-10-17_10h55.38.620,uWM_experiment,2022.2.3,59.96720993
,,,,,,,,,,,,,,,,,,,,5,0,5,0,7,0,7,0,,,,,,,,,,,,,,,,,,,,,,,,,,,,,,,,,,,,,,,,,,,,,,,,,,,,,,,,,,,,,,,,,,,,,,0.055,,,,,,,,,,,,,,,,,,,,,,,,,,,,right,0,100,-30,70,1,5929.734176,5929.734176,5929.734176,None,None,2,0,0.4822019,,,,,,,,,,,,,,,,,,,10,4,1,2024-10-17_10h55.38.620,uWM_experiment,2022.2.3,59.96720993
,,,,,,,,,,,,,,,,,,,,5,0,5,0,8,0,8,0,,,,,,,,,,,,,,,,,,,,,,,,,,,,,,,,,,,,,,,,,,,,,,,,,,,,,,,,,,,,,,,,,,,,,,0.045,,,,,,,,,,,,,,,,,,,,,,,,,,,,left,1,100,-30,70,1,5935.851094,5935.851094,5935.851094,None,None,1,1,0.6371632,,,,,,,,,,,,,,,,,,,10,4,1,2024-10-17_10h55.38.620,uWM_experiment,2022.2.3,59.96720993
,,,,,,,,,,,,,,,,,,,,5,0,5,0,9,0,9,0,,,,,,,,,,,,,,,,,,,,,,,,,,,,,,,,,,,,,,,,,,,,,,,,,,,,,,,,,,,,,,,,,,,,,,0,,,,,,,,,,,,,,,,,,,,,,,,,,,,left,0,40,30,70,0,5942.167997,5942.167997,5942.167997,None,None,1,1,0.3522606,,,,,,,,,,,,,,,,,,,10,4,1,2024-10-17_10h55.38.620,uWM_experiment,2022.2.3,59.96720993
,,,,,,,,,,,,,,,,,,,,5,0,5,0,10,0,10,0,,,,,,,,,,,,,,,,,,,,,,,,,,,,,,,,,,,,,,,,,,,,,,,,,,,,,,,,,,,,,,,,,,,,,,0,,,,,,,,,,,,,,,,,,,,,,,,,,,,right,0,70,-30,40,0,5947.934883,5947.934883,5947.934883,None,None,1,1,0.3373255,,,,,,,,,,,,,,,,,,,10,4,1,2024-10-17_10h55.38.620,uWM_experiment,2022.2.3,59.96720993
,,,,,,,,,,,,,,,,,,,,5,0,5,0,11,0,11,0,,,,,,,,,,,,,,,,,,,,,,,,,,,,,,,,,,,,,,,,,,,,,,,,,,,,,,,,,,,,,,,,,,,,,,0,,,,,,,,,,,,,,,,,,,,,,,,,,,,left,0,130,30,160,0,5953.968476,5953.968476,5953.968476,None,None,1,1,0.399907,,,,,,,,,,,,,,,,,,,10,4,1,2024-10-17_10h55.38.620,uWM_experiment,2022.2.3,59.96720993
,,,,,,,,,,,,,,,,,,,,5,0,5,0,12,0,12,0,,,,,,,,,,,,,,,,,,,,,,,,,,,,,,,,,,,,,,,,,,,,,,,,,,,,,,,,,,,,,,,,,,,,,,0.055,,,,,,,,,,,,,,,,,,,,,,,,,,,,left,1,100,-30,70,1,5960.552072,5960.552072,5960.552072,None,None,2,0,0.2081266,,,,,,,,,,,,,,,,,,,10,4,1,2024-10-17_10h55.38.620,uWM_experiment,2022.2.3,59.96720993
,,,,,,,,,,,,,,,,,,,,5,0,5,0,13,0,13,0,,,,,,,,,,,,,,,,,,,,,,,,,,,,,,,,,,,,,,,,,,,,,,,,,,,,,,,,,,,,,,,,,,,,,,0,,,,,,,,,,,,,,,,,,,,,,,,,,,,left,1,160,-30,130,0,5965.918931,5965.918931,5965.918931,None,None,1,1,0.2492892,,,,,,,,,,,,,,,,,,,10,4,1,2024-10-17_10h55.38.620,uWM_experiment,2022.2.3,59.96720993
,,,,,,,,,,,,,,,,,,,,5,0,5,0,14,0,14,0,,,,,,,,,,,,,,,,,,,,,,,,,,,,,,,,,,,,,,,,,,,,,,,,,,,,,,,,,,,,,,,,,,,,,,0.045,,,,,,,,,,,,,,,,,,,,,,,,,,,,right,1,160,30,190,1,5971.835891,5971.835891,5971.835891,None,None,1,1,0.3962028,,,,,,,,,,,,,,,,,,,10,4,1,2024-10-17_10h55.38.620,uWM_experiment,2022.2.3,59.96720993
,,,,,,,,,,,,,,,,,,,,5,0,5,0,15,0,15,0,,,,,,,,,,,,,,,,,,,,,,,,,,,,,,,,,,,,,,,,,,,,,,,,,,,,,,,,,,,,,,,,,,,,,,0.1,,,,,,,,,,,,,,,,,,,,,,,,,,,,right,0,100,-30,70,2,5978.202762,5978.202762,5978.202762,None,None,3,0,1.9974551,,,,,,,,,,,,,,,,,,,10,4,1,2024-10-17_10h55.38.620,uWM_experiment,2022.2.3,59.96720993
,,,,,,,,,,,,,,,,,,,,5,0,5,0,16,0,16,0,,,,,,,,,,,,,,,,,,,,,,,,,,,,,,,,,,,,,,,,,,,,,,,,,,,,,,,,,,,,,,,,,,,,,,0.055,,,,,,,,,,,,,,,,,,,,,,,,,,,,left,0,160,30,190,1,5985.319715,5985.319715,5985.319715,None,None,2,0,0.7764522,,,,,,,,,,,,,,,,,,,10,4,1,2024-10-17_10h55.38.620,uWM_experiment,2022.2.3,59.96720993
,,,,,,,,,,,,,,,,,,,,5,0,5,0,17,0,17,0,,,,,,,,,,,,,,,,,,,,,,,,,,,,,,,,,,,,,,,,,,,,,,,,,,,,,,,,,,,,,,,,,,,,,,0.045,,,,,,,,,,,,,,,,,,,,,,,,,,,,left,1,160,-30,130,1,5991.886648,5991.886648,5991.886648,None,None,1,1,0.665358,,,,,,,,,,,,,,,,,,,10,4,1,2024-10-17_10h55.38.620,uWM_experiment,2022.2.3,59.96720993
,,,,,,,,,,,,,,,,,,,,5,0,5,0,18,0,18,0,,,,,,,,,,,,,,,,,,,,,,,,,,,,,,,,,,,,,,,,,,,,,,,,,,,,,,,,,,,,,,,,,,,,,,0,,,,,,,,,,,,,,,,,,,,,,,,,,,,left,0,40,30,70,0,5998.203536,5998.203536,5998.203536,None,None,1,1,0.4364558,,,,,,,,,,,,,,,,,,,10,4,1,2024-10-17_10h55.38.620,uWM_experiment,2022.2.3,59.96720993
,,,,,,,,,,,,,,,,,,,,5,0,5,0,19,0,19,0,,,,,,,,,,,,,,,,,,,,,,,,,,,,,,,,,,,,,,,,,,,,,,,,,,,,,,,,,,,,,,,,,,,,,,0.055,,,,,,,,,,,,,,,,,,,,,,,,,,,,left,0,10,30,40,1,6004.703795,6004.703795,6004.703795,None,None,1,1,0.2401355,,,,,,,,,,,,,,,,,,,10,4,1,2024-10-17_10h55.38.620,uWM_experiment,2022.2.3,59.96720993
,,,,,,,,,,,,,,,,,,,,5,0,5,0,20,0,20,0,,,,,,,,,,,,,,,,,,,,,,,,,,,,,,,,,,,,,,,,,,,,,,,,,,,,,,,,,,,,,,,,,,,,,,0.065,,,,,,,,,,,,,,,,,,,,,,,,,,,,right,1,40,30,70,1,6010.587403,6010.587403,6010.587403,None,None,2,0,0.4045162,,,,,,,,,,,,,,,,,,,10,4,1,2024-10-17_10h55.38.620,uWM_experiment,2022.2.3,59.96720993
,,,,,,,,,,,,,,,,,,,,5,0,5,0,21,0,21,0,,,,,,,,,,,,,,,,,,,,,,,,,,,,,,,,,,,,,,,,,,,,,,,,,,,,,,,,,,,,,,,,,,,,,,0.055,,,,,,,,,,,,,,,,,,,,,,,,,,,,left,0,100,30,130,1,6016.620958,6016.620958,6016.620958,None,None,1,1,0.386965,,,,,,,,,,,,,,,,,,,10,4,1,2024-10-17_10h55.38.620,uWM_experiment,2022.2.3,59.96720993
,,,,,,,,,,,,,,,,,,,,5,0,5,0,22,0,22,0,,,,,,,,,,,,,,,,,,,,,,,,,,,,,,,,,,,,,,,,,,,,,,,,,,,,,,,,,,,,,,,,,,,,,,0.065,,,,,,,,,,,,,,,,,,,,,,,,,,,,left,1,10,-30,-20,1,6022.721174,6022.721174,6022.721174,None,None,2,0,0.3428502,,,,,,,,,,,,,,,,,,,10,4,1,2024-10-17_10h55.38.620,uWM_experiment,2022.2.3,59.96720993
,,,,,,,,,,,,,,,,,,,,5,0,5,0,23,0,23,0,,,,,,,,,,,,,,,,,,,,,,,,,,,,,,,,,,,,,,,,,,,,,,,,,,,,,,,,,,,,,,,,,,,,,,0.055,,,,,,,,,,,,,,,,,,,,,,,,,,,,right,1,70,30,100,1,6028.271412,6028.271412,6028.271412,None,None,1,1,0.264503,,,,,,,,,,,,,,,,,,,10,4,1,2024-10-17_10h55.38.620,uWM_experiment,2022.2.3,59.96720993
,,,,,,,,,,,,,,,,,,,,5,0,5,0,,,,,0,0,0,0,,,,,,,,,,,,,,,,,,,,,,,,,,,,,,,,,,,,,,,,,,,,,,,,,,,,,,,,,,,,,,,,,,,,,,,,,,,,,,,,,,,,,,,,,,,,,,,,,,,,,,,,,,,,6028.554719,6028.554719,space,0.8772124,space,None,,6029.454774,6029.454774,0.7452108,,,,,,,,,10,4,1,2024-10-17_10h55.38.620,uWM_experiment,2022.2.3,59.96720993
,,,,,,,,,,,,,,,,,,,,5,0,5,0,,,,,1,0,1,0,,,,,,,,,,,,,,,,,,,,,,,,,,,,,,,,,,,,,,,,,,,,,,,,,,,,,,,,,,,,,,,,,,,,,,,,,,,,,,,,,,,,,,,,,,,,,,,,,,,,,,,,,,,,,,,,,,,,,,,,,,,,,,10,4,1,2024-10-17_10h55.38.620,uWM_experiment,2022.2.3,59.96720993
,,,,,,,,,,,,,,,,,,,,5,0,5,0,,,,,2,0,2,0,,,,,,,,,,,,,,,,,,,,,,,,,,,,,,,,,,,,,,,,,,,,,,,,,,,,,,,,,,,,,,,,,,,,,,,,,,,,,,,,,,,,,,,,,,,,,,,,,,,,,,,,,,,,,,,,,,,,,,,,,,,,,,10,4,1,2024-10-17_10h55.38.620,uWM_experiment,2022.2.3,59.96720993
,,,,,,,,,,,,,,,,,,,,6,0,6,0,0,0,0,0,,,,,,,,,,,,,,,,,,,,,,,,,,,,,,,,,,,,,,,,,,,,,,,,,,,,,,,,,,,,,,,,,,,,,,0.065,,,,,,,,,,,,,,,,,,,,6030.221464,6030.921501,6031.221502,6031.921507,6032.221547,6032.921561,6032.921561,6033.238261,left,1,70,-30,40,1,6037.371756,6037.371756,6037.371756,None,None,1,1,0.148035,,,,,,,None,,,,,,,,,,,,10,4,1,2024-10-17_10h55.38.620,uWM_experiment,2022.2.3,59.96720993
,,,,,,,,,,,,,,,,,,,,6,0,6,0,1,0,1,0,,,,,,,,,,,,,,,,,,,,,,,,,,,,,,,,,,,,,,,,,,,,,,,,,,,,,,,,,,,,,,,,,,,,,,0.1,,,,,,,,,,,,,,,,,,,,,,,,,,,,right,1,40,30,70,2,6043.355342,6043.355342,6043.355342,None,None,1,1,0.3565439,,,,,,,,,,,,,,,,,,,10,4,1,2024-10-17_10h55.38.620,uWM_experiment,2022.2.3,59.96720993
,,,,,,,,,,,,,,,,,,,,6,0,6,0,2,0,2,0,,,,,,,,,,,,,,,,,,,,,,,,,,,,,,,,,,,,,,,,,,,,,,,,,,,,,,,,,,,,,,,,,,,,,,0,,,,,,,,,,,,,,,,,,,,,,,,,,,,left,0,10,30,40,0,6050.188922,6050.188922,6050.188922,None,None,1,1,0.3469707,,,,,,,,,,,,,,,,,,,10,4,1,2024-10-17_10h55.38.620,uWM_experiment,2022.2.3,59.96720993
,,,,,,,,,,,,,,,,,,,,6,0,6,0,3,0,3,0,,,,,,,,,,,,,,,,,,,,,,,,,,,,,,,,,,,,,,,,,,,,,,,,,,,,,,,,,,,,,,,,,,,,,,0.075,,,,,,,,,,,,,,,,,,,,,,,,,,,,left,1,70,-30,40,1,6057.672568,6057.672568,6057.672568,None,None,3,0,0.6472939,,,,,,,,,,,,,,,,,,,10,4,1,2024-10-17_10h55.38.620,uWM_experiment,2022.2.3,59.96720993
,,,,,,,,,,,,,,,,,,,,6,0,6,0,4,0,4,0,,,,,,,,,,,,,,,,,,,,,,,,,,,,,,,,,,,,,,,,,,,,,,,,,,,,,,,,,,,,,,,,,,,,,,0,,,,,,,,,,,,,,,,,,,,,,,,,,,,left,1,40,-30,10,0,6064.13949,6064.13949,6064.13949,None,None,1,1,0.3803289,,,,,,,,,,,,,,,,,,,10,4,1,2024-10-17_10h55.38.620,uWM_experiment,2022.2.3,59.96720993
,,,,,,,,,,,,,,,,,,,,6,0,6,0,5,0,5,0,,,,,,,,,,,,,,,,,,,,,,,,,,,,,,,,,,,,,,,,,,,,,,,,,,,,,,,,,,,,,,,,,,,,,,0.1,,,,,,,,,,,,,,,,,,,,,,,,,,,,right,0,100,-30,70,2,6070.739784,6070.739784,6070.739784,None,None,4,0,0.6119037,,,,,,,,,,,,,,,,,,,10,4,1,2024-10-17_10h55.38.620,uWM_experiment,2022.2.3,59.96720993
,,,,,,,,,,,,,,,,,,,,6,0,6,0,6,0,6,0,,,,,,,,,,,,,,,,,,,,,,,,,,,,,,,,,,,,,,,,,,,,,,,,,,,,,,,,,,,,,,,,,,,,,,0.065,,,,,,,,,,,,,,,,,,,,,,,,,,,,left,0,70,30,100,1,6077.12333,6077.12333,6077.12333,None,None,2,0,0.6763137,,,,,,,,,,,,,,,,,,,10,4,1,2024-10-17_10h55.38.620,uWM_experiment,2022.2.3,59.96720993
,,,,,,,,,,,,,,,,,,,,6,0,6,0,7,0,7,0,,,,,,,,,,,,,,,,,,,,,,,,,,,,,,,,,,,,,,,,,,,,,,,,,,,,,,,,,,,,,,,,,,,,,,0,,,,,,,,,,,,,,,,,,,,,,,,,,,,left,0,130,30,160,0,6083.040235,6083.040235,6083.040235,None,None,2,0,0.2953987,,,,,,,,,,,,,,,,,,,10,4,1,2024-10-17_10h55.38.620,uWM_experiment,2022.2.3,59.96720993
,,,,,,,,,,,,,,,,,,,,6,0,6,0,8,0,8,0,,,,,,,,,,,,,,,,,,,,,,,,,,,,,,,,,,,,,,,,,,,,,,,,,,,,,,,,,,,,,,,,,,,,,,0,,,,,,,,,,,,,,,,,,,,,,,,,,,,right,0,130,-30,100,0,6088.473812,6088.473812,6088.473812,None,None,1,1,0.5499761,,,,,,,,,,,,,,,,,,,10,4,1,2024-10-17_10h55.38.620,uWM_experiment,2022.2.3,59.96720993
,,,,,,,,,,,,,,,,,,,,6,0,6,0,9,0,9,0,,,,,,,,,,,,,,,,,,,,,,,,,,,,,,,,,,,,,,,,,,,,,,,,,,,,,,,,,,,,,,,,,,,,,,0.055,,,,,,,,,,,,,,,,,,,,,,,,,,,,left,1,10,-30,-20,1,6094.707376,6094.707376,6094.707376,None,None,2,0,0.6922864,,,,,,,,,,,,,,,,,,,10,4,1,2024-10-17_10h55.38.620,uWM_experiment,2022.2.3,59.96720993
,,,,,,,,,,,,,,,,,,,,6,0,6,0,10,0,10,0,,,,,,,,,,,,,,,,,,,,,,,,,,,,,,,,,,,,,,,,,,,,,,,,,,,,,,,,,,,,,,,,,,,,,,0.045,,,,,,,,,,,,,,,,,,,,,,,,,,,,left,1,160,-30,130,1,6101.224305,6101.224305,6101.224305,None,None,1,1,0.279355,,,,,,,,,,,,,,,,,,,10,4,1,2024-10-17_10h55.38.620,uWM_experiment,2022.2.3,59.96720993
,,,,,,,,,,,,,,,,,,,,6,0,6,0,11,0,11,0,,,,,,,,,,,,,,,,,,,,,,,,,,,,,,,,,,,,,,,,,,,,,,,,,,,,,,,,,,,,,,,,,,,,,,0.055,,,,,,,,,,,,,,,,,,,,,,,,,,,,left,1,10,-30,-20,1,6107.041185,6107.041185,6107.041185,None,None,1,1,0.2784061,,,,,,,,,,,,,,,,,,,10,4,1,2024-10-17_10h55.38.620,uWM_experiment,2022.2.3,59.96720993
,,,,,,,,,,,,,,,,,,,,6,0,6,0,12,0,12,0,,,,,,,,,,,,,,,,,,,,,,,,,,,,,,,,,,,,,,,,,,,,,,,,,,,,,,,,,,,,,,,,,,,,,,0.065,,,,,,,,,,,,,,,,,,,,,,,,,,,,right,0,100,-30,70,1,6113.124762,6113.124762,6113.124762,None,None,2,0,0.2827495,,,,,,,,,,,,,,,,,,,10,4,1,2024-10-17_10h55.38.620,uWM_experiment,2022.2.3,59.96720993
,,,,,,,,,,,,,,,,,,,,6,0,6,0,13,0,13,0,,,,,,,,,,,,,,,,,,,,,,,,,,,,,,,,,,,,,,,,,,,,,,,,,,,,,,,,,,,,,,,,,,,,,,0.055,,,,,,,,,,,,,,,,,,,,,,,,,,,,right,0,70,-30,40,1,6119.841697,6119.841697,6119.841697,None,None,1,1,0.2697128,,,,,,,,,,,,,,,,,,,10,4,1,2024-10-17_10h55.38.620,uWM_experiment,2022.2.3,59.96720993
,,,,,,,,,,,,,,,,,,,,6,0,6,0,14,0,14,0,,,,,,,,,,,,,,,,,,,,,,,,,,,,,,,,,,,,,,,,,,,,,,,,,,,,,,,,,,,,,,,,,,,,,,0.065,,,,,,,,,,,,,,,,,,,,,,,,,,,,left,1,130,-30,100,1,6125.258599,6125.258599,6125.258599,None,None,1,1,0.2207861,,,,,,,,,,,,,,,,,,,10,4,1,2024-10-17_10h55.38.620,uWM_experiment,2022.2.3,59.96720993
,,,,,,,,,,,,,,,,,,,,6,0,6,0,15,0,15,0,,,,,,,,,,,,,,,,,,,,,,,,,,,,,,,,,,,,,,,,,,,,,,,,,,,,,,,,,,,,,,,,,,,,,,0.1,,,,,,,,,,,,,,,,,,,,,,,,,,,,right,1,10,30,40,2,6131.425477,6131.425477,6131.425477,None,None,4,0,0.8139992,,,,,,,,,,,,,,,,,,,10,4,1,2024-10-17_10h55.38.620,uWM_experiment,2022.2.3,59.96720993
,,,,,,,,,,,,,,,,,,,,6,0,6,0,16,0,16,0,,,,,,,,,,,,,,,,,,,,,,,,,,,,,,,,,,,,,,,,,,,,,,,,,,,,,,,,,,,,,,,,,,,,,,0.075,,,,,,,,,,,,,,,,,,,,,,,,,,,,right,1,10,30,40,1,6137.909065,6137.909065,6137.909065,None,None,2,0,0.3542672,,,,,,,,,,,,,,,,,,,10,4,1,2024-10-17_10h55.38.620,uWM_experiment,2022.2.3,59.96720993
,,,,,,,,,,,,,,,,,,,,6,0,6,0,17,0,17,0,,,,,,,,,,,,,,,,,,,,,,,,,,,,,,,,,,,,,,,,,,,,,,,,,,,,,,,,,,,,,,,,,,,,,,0,,,,,,,,,,,,,,,,,,,,,,,,,,,,right,1,40,30,70,0,6144.409313,6144.409313,6144.409313,None,None,1,1,0.3661767,,,,,,,,,,,,,,,,,,,10,4,1,2024-10-17_10h55.38.620,uWM_experiment,2022.2.3,59.96720993
,,,,,,,,,,,,,,,,,,,,6,0,6,0,18,0,18,0,,,,,,,,,,,,,,,,,,,,,,,,,,,,,,,,,,,,,,,,,,,,,,,,,,,,,,,,,,,,,,,,,,,,,,0,,,,,,,,,,,,,,,,,,,,,,,,,,,,right,0,10,-30,-20,0,6150.692926,6150.692926,6150.692926,None,None,1,1,0.234351,,,,,,,,,,,,,,,,,,,10,4,1,2024-10-17_10h55.38.620,uWM_experiment,2022.2.3,59.96720993
,,,,,,,,,,,,,,,,,,,,6,0,6,0,19,0,19,0,,,,,,,,,,,,,,,,,,,,,,,,,,,,,,,,,,,,,,,,,,,,,,,,,,,,,,,,,,,,,,,,,,,,,,0.065,,,,,,,,,,,,,,,,,,,,,,,,,,,,left,0,100,30,130,1,6156.743132,6156.743132,6156.743132,None,None,1,1,0.272125,,,,,,,,,,,,,,,,,,,10,4,1,2024-10-17_10h55.38.620,uWM_experiment,2022.2.3,59.96720993
,,,,,,,,,,,,,,,,,,,,6,0,6,0,20,0,20,0,,,,,,,,,,,,,,,,,,,,,,,,,,,,,,,,,,,,,,,,,,,,,,,,,,,,,,,,,,,,,,,,,,,,,,0.075,,,,,,,,,,,,,,,,,,,,,,,,,,,,left,1,130,-30,100,1,6162.610061,6162.610061,6162.610061,None,None,1,1,0.3012016,,,,,,,,,,,,,,,,,,,10,4,1,2024-10-17_10h55.38.620,uWM_experiment,2022.2.3,59.96720993
,,,,,,,,,,,,,,,,,,,,6,0,6,0,21,0,21,0,,,,,,,,,,,,,,,,,,,,,,,,,,,,,,,,,,,,,,,,,,,,,,,,,,,,,,,,,,,,,,,,,,,,,,0.085,,,,,,,,,,,,,,,,,,,,,,,,,,,,right,1,160,30,190,1,6168.510267,6168.510267,6168.510267,None,None,2,0,0.4250524,,,,,,,,,,,,,,,,,,,10,4,1,2024-10-17_10h55.38.620,uWM_experiment,2022.2.3,59.96720993
,,,,,,,,,,,,,,,,,,,,6,0,6,0,22,0,22,0,,,,,,,,,,,,,,,,,,,,,,,,,,,,,,,,,,,,,,,,,,,,,,,,,,,,,,,,,,,,,,,,,,,,,,0.075,,,,,,,,,,,,,,,,,,,,,,,,,,,,right,1,160,30,190,1,6174.293826,6174.293826,6174.293826,None,None,2,0,0.5053691,,,,,,,,,,,,,,,,,,,10,4,1,2024-10-17_10h55.38.620,uWM_experiment,2022.2.3,59.96720993
,,,,,,,,,,,,,,,,,,,,6,0,6,0,23,0,23,0,,,,,,,,,,,,,,,,,,,,,,,,,,,,,,,,,,,,,,,,,,,,,,,,,,,,,,,,,,,,,,,,,,,,,,0.065,,,,,,,,,,,,,,,,,,,,,,,,,,,,right,0,100,-30,70,1,6180.160726,6180.160726,6180.160726,None,None,1,1,0.9105192,,,,,,,,,,,,,,,,,,,10,4,1,2024-10-17_10h55.38.620,uWM_experiment,2022.2.3,59.96720993
,,,,,,,,,,,,,,,,,,,,6,0,6,0,,,,,0,0,0,0,,,,,,,,,,,,,,,,,,,,,,,,,,,,,,,,,,,,,,,,,,,,,,,,,,,,,,,,,,,,,,,,,,,,,,,,,,,,,,,,,,,,,,,,,,,,,,,,,,,,,,,,,,,,6181.094087,6181.094087,space,1.161142,None,space,,,,,6182.277471,6182.277471,8.0817991,,,,,,10,4,1,2024-10-17_10h55.38.620,uWM_experiment,2022.2.3,59.96720993
,,,,,,,,,,,,,,,,,,,,6,0,6,0,,,,,1,0,1,0,,,,,,,,,,,,,,,,,,,,,,,,,,,,,,,,,,,,,,,,,,,,,,,,,,,,,,,,,,,,,,,,,,,,,,,,,,,,,,,,,,,,,,,,,,,,,,,,,,,,,,,,,,,,,,,,,,,,,,,,,,,,,,10,4,1,2024-10-17_10h55.38.620,uWM_experiment,2022.2.3,59.96720993
,,,,,,,,,,,,,,,,,,,,6,0,6,0,,,,,2,0,2,0,,,,,,,,,,,,,,,,,,,,,,,,,,,,,,,,,,,,,,,,,,,,,,,,,,,,,,,,,,,,,,,,,,,,,,,,,,,,,,,,,,,,,,,,,,,,,,,,,,,,,,,,,,,,,,,,,,,,,,,,,,,,,,10,4,1,2024-10-17_10h55.38.620,uWM_experiment,2022.2.3,59.96720993
,,,,,,,,,,,,,,,,,,,,7,0,7,0,0,0,0,0,,,,,,,,,,,,,,,,,,,,,,,,,,,,,,,,,,,,,,,,,,,,,,,,,,,,,,,,,,,,,,,,,,,,,,0.075,,,,,,,,,,,,,,,,,,,,6201.611574,6202.311617,6202.59495,6203.294973,6203.594984,6204.29501,6204.29501,6204.611715,right,1,160,30,190,1,6209.528563,6209.528563,6209.528563,None,None,2,0,0.3505348,,,,,,,space,,,,,,,6198.394797,6198.394797,3.1963895,,,10,4,1,2024-10-17_10h55.38.620,uWM_experiment,2022.2.3,59.96720993
,,,,,,,,,,,,,,,,,,,,7,0,7,0,1,0,1,0,,,,,,,,,,,,,,,,,,,,,,,,,,,,,,,,,,,,,,,,,,,,,,,,,,,,,,,,,,,,,,,,,,,,,,0.065,,,,,,,,,,,,,,,,,,,,,,,,,,,,right,0,100,-30,70,1,6214.978793,6214.978793,6214.978793,None,None,1,1,0.7802349,,,,,,,,,,,,,,,,,,,10,4,1,2024-10-17_10h55.38.620,uWM_experiment,2022.2.3,59.96720993
,,,,,,,,,,,,,,,,,,,,7,0,7,0,2,0,2,0,,,,,,,,,,,,,,,,,,,,,,,,,,,,,,,,,,,,,,,,,,,,,,,,,,,,,,,,,,,,,,,,,,,,,,0.075,,,,,,,,,,,,,,,,,,,,,,,,,,,,right,0,70,-30,40,1,6222.729104,6222.729104,6222.729104,None,None,1,1,0.294017,,,,,,,,,,,,,,,,,,,10,4,1,2024-10-17_10h55.38.620,uWM_experiment,2022.2.3,59.96720993
,,,,,,,,,,,,,,,,,,,,7,0,7,0,3,0,3,0,,,,,,,,,,,,,,,,,,,,,,,,,,,,,,,,,,,,,,,,,,,,,,,,,,,,,,,,,,,,,,,,,,,,,,0.085,,,,,,,,,,,,,,,,,,,,,,,,,,,,left,1,10,-30,-20,1,6229.546007,6229.546007,6229.546007,None,None,1,1,0.6290119,,,,,,,,,,,,,,,,,,,10,4,1,2024-10-17_10h55.38.620,uWM_experiment,2022.2.3,59.96720993
,,,,,,,,,,,,,,,,,,,,7,0,7,0,4,0,4,0,,,,,,,,,,,,,,,,,,,,,,,,,,,,,,,,,,,,,,,,,,,,,,,,,,,,,,,,,,,,,,,,,,,,,,0,,,,,,,,,,,,,,,,,,,,,,,,,,,,right,1,160,30,190,0,6235.862947,6235.862947,6235.862947,None,None,2,0,0.3359439,,,,,,,,,,,,,,,,,,,10,4,1,2024-10-17_10h55.38.620,uWM_experiment,2022.2.3,59.96720993
,,,,,,,,,,,,,,,,,,,,7,0,7,0,5,0,5,0,,,,,,,,,,,,,,,,,,,,,,,,,,,,,,,,,,,,,,,,,,,,,,,,,,,,,,,,,,,,,,,,,,,,,,0.095,,,,,,,,,,,,,,,,,,,,,,,,,,,,left,1,130,-30,100,1,6242.463199,6242.463199,6242.463199,None,None,2,0,0.4078112,,,,,,,,,,,,,,,,,,,10,4,1,2024-10-17_10h55.38.620,uWM_experiment,2022.2.3,59.96720993
,,,,,,,,,,,,,,,,,,,,7,0,7,0,6,0,6,0,,,,,,,,,,,,,,,,,,,,,,,,,,,,,,,,,,,,,,,,,,,,,,,,,,,,,,,,,,,,,,,,,,,,,,0.085,,,,,,,,,,,,,,,,,,,,,,,,,,,,left,1,40,-30,10,1,6249.063483,6249.063483,6249.063483,None,None,1,1,0.7914884,,,,,,,,,,,,,,,,,,,10,4,1,2024-10-17_10h55.38.620,uWM_experiment,2022.2.3,59.96720993
,,,,,,,,,,,,,,,,,,,,7,0,7,0,7,0,7,0,,,,,,,,,,,,,,,,,,,,,,,,,,,,,,,,,,,,,,,,,,,,,,,,,,,,,,,,,,,,,,,,,,,,,,0.095,,,,,,,,,,,,,,,,,,,,,,,,,,,,left,1,160,-30,130,1,6255.930403,6255.930403,6255.930403,None,None,2,0,0.4604497,,,,,,,,,,,,,,,,,,,10,4,1,2024-10-17_10h55.38.620,uWM_experiment,2022.2.3,59.96720993
,,,,,,,,,,,,,,,,,,,,7,0,7,0,8,0,8,0,,,,,,,,,,,,,,,,,,,,,,,,,,,,,,,,,,,,,,,,,,,,,,,,,,,,,,,,,,,,,,,,,,,,,,0,,,,,,,,,,,,,,,,,,,,,,,,,,,,right,0,70,-30,40,0,6261.530628,6261.530628,6261.530628,None,None,1,1,0.3243227,,,,,,,,,,,,,,,,,,,10,4,1,2024-10-17_10h55.38.620,uWM_experiment,2022.2.3,59.96720993
,,,,,,,,,,,,,,,,,,,,7,0,7,0,9,0,9,0,,,,,,,,,,,,,,,,,,,,,,,,,,,,,,,,,,,,,,,,,,,,,,,,,,,,,,,,,,,,,,,,,,,,,,0,,,,,,,,,,,,,,,,,,,,,,,,,,,,left,0,40,30,70,0,6267.997548,6267.997548,6267.997548,None,None,1,1,0.1613794,,,,,,,,,,,,,,,,,,,10,4,1,2024-10-17_10h55.38.620,uWM_experiment,2022.2.3,59.96720993
,,,,,,,,,,,,,,,,,,,,7,0,7,0,10,0,10,0,,,,,,,,,,,,,,,,,,,,,,,,,,,,,,,,,,,,,,,,,,,,,,,,,,,,,,,,,,,,,,,,,,,,,,0,,,,,,,,,,,,,,,,,,,,,,,,,,,,right,1,130,30,160,0,6273.314442,6273.314442,6273.314442,None,None,2,0,0.228454,,,,,,,,,,,,,,,,,,,10,4,1,2024-10-17_10h55.38.620,uWM_experiment,2022.2.3,59.96720993
,,,,,,,,,,,,,,,,,,,,7,0,7,0,11,0,11,0,,,,,,,,,,,,,,,,,,,,,,,,,,,,,,,,,,,,,,,,,,,,,,,,,,,,,,,,,,,,,,,,,,,,,,0,,,,,,,,,,,,,,,,,,,,,,,,,,,,left,1,40,-30,10,0,6278.664616,6278.664616,6278.664616,None,None,1,1,0.1341695,,,,,,,,,,,,,,,,,,,10,4,1,2024-10-17_10h55.38.620,uWM_experiment,2022.2.3,59.96720993
,,,,,,,,,,,,,,,,,,,,7,0,7,0,12,0,12,0,,,,,,,,,,,,,,,,,,,,,,,,,,,,,,,,,,,,,,,,,,,,,,,,,,,,,,,,,,,,,,,,,,,,,,0.085,,,,,,,,,,,,,,,,,,,,,,,,,,,,right,0,40,-30,10,1,6284.514877,6284.514877,6284.514877,None,None,1,1,0.2998592,,,,,,,,,,,,,,,,,,,10,4,1,2024-10-17_10h55.38.620,uWM_experiment,2022.2.3,59.96720993
,,,,,,,,,,,,,,,,,,,,7,0,7,0,13,0,13,0,,,,,,,,,,,,,,,,,,,,,,,,,,,,,,,,,,,,,,,,,,,,,,,,,,,,,,,,,,,,,,,,,,,,,,0.095,,,,,,,,,,,,,,,,,,,,,,,,,,,,right,1,100,30,130,1,6290.665095,6290.665095,6290.665095,None,None,1,1,0.3896499,,,,,,,,,,,,,,,,,,,10,4,1,2024-10-17_10h55.38.620,uWM_experiment,2022.2.3,59.96720993
,,,,,,,,,,,,,,,,,,,,7,0,7,0,14,0,14,0,,,,,,,,,,,,,,,,,,,,,,,,,,,,,,,,,,,,,,,,,,,,,,,,,,,,,,,,,,,,,,,,,,,,,,0.105,,,,,,,,,,,,,,,,,,,,,,,,,,,,right,1,160,30,190,1,6296.915327,6296.915327,6296.915327,None,None,2,0,0.3154377,,,,,,,,,,,,,,,,,,,10,4,1,2024-10-17_10h55.38.620,uWM_experiment,2022.2.3,59.96720993
,,,,,,,,,,,,,,,,,,,,7,0,7,0,15,0,15,0,,,,,,,,,,,,,,,,,,,,,,,,,,,,,,,,,,,,,,,,,,,,,,,,,,,,,,,,,,,,,,,,,,,,,,0.095,,,,,,,,,,,,,,,,,,,,,,,,,,,,right,0,100,-30,70,1,6302.898909,6302.898909,6302.898909,None,None,2,0,0.4757759,,,,,,,,,,,,,,,,,,,10,4,1,2024-10-17_10h55.38.620,uWM_experiment,2022.2.3,59.96720993
,,,,,,,,,,,,,,,,,,,,7,0,7,0,16,0,16,0,,,,,,,,,,,,,,,,,,,,,,,,,,,,,,,,,,,,,,,,,,,,,,,,,,,,,,,,,,,,,,,,,,,,,,0.085,,,,,,,,,,,,,,,,,,,,,,,,,,,,left,0,100,30,130,1,6309.065837,6309.065837,6309.065837,None,None,1,1,0.324842,,,,,,,,,,,,,,,,,,,10,4,1,2024-10-17_10h55.38.620,uWM_experiment,2022.2.3,59.96720993
,,,,,,,,,,,,,,,,,,,,7,0,7,0,17,0,17,0,,,,,,,,,,,,,,,,,,,,,,,,,,,,,,,,,,,,,,,,,,,,,,,,,,,,,,,,,,,,,,,,,,,,,,0.095,,,,,,,,,,,,,,,,,,,,,,,,,,,,left,1,160,-30,130,1,6315.149416,6315.149416,6315.149416,None,None,2,0,0.2651955,,,,,,,,,,,,,,,,,,,10,4,1,2024-10-17_10h55.38.620,uWM_experiment,2022.2.3,59.96720993
,,,,,,,,,,,,,,,,,,,,7,0,7,0,18,0,18,0,,,,,,,,,,,,,,,,,,,,,,,,,,,,,,,,,,,,,,,,,,,,,,,,,,,,,,,,,,,,,,,,,,,,,,0.085,,,,,,,,,,,,,,,,,,,,,,,,,,,,right,0,100,-30,70,1,6321.032977,6321.032977,6321.032977,None,None,1,1,0.2855267,,,,,,,,,,,,,,,,,,,10,4,1,2024-10-17_10h55.38.620,uWM_experiment,2022.2.3,59.96720993
,,,,,,,,,,,,,,,,,,,,7,0,7,0,19,0,19,0,,,,,,,,,,,,,,,,,,,,,,,,,,,,,,,,,,,,,,,,,,,,,,,,,,,,,,,,,,,,,,,,,,,,,,0.095,,,,,,,,,,,,,,,,,,,,,,,,,,,,right,1,130,30,160,1,6326.499843,6326.499843,6326.499843,None,None,1,1,0.1227513,,,,,,,,,,,,,,,,,,,10,4,1,2024-10-17_10h55.38.620,uWM_experiment,2022.2.3,59.96720993
,,,,,,,,,,,,,,,,,,,,7,0,7,0,20,0,20,0,,,,,,,,,,,,,,,,,,,,,,,,,,,,,,,,,,,,,,,,,,,,,,,,,,,,,,,,,,,,,,,,,,,,,,0.105,,,,,,,,,,,,,,,,,,,,,,,,,,,,left,1,160,-30,130,1,6332.23342,6332.23342,6332.23342,None,None,1,1,0.4292092,,,,,,,,,,,,,,,,,,,10,4,1,2024-10-17_10h55.38.620,uWM_experiment,2022.2.3,59.96720993
,,,,,,,,,,,,,,,,,,,,7,0,7,0,21,0,21,0,,,,,,,,,,,,,,,,,,,,,,,,,,,,,,,,,,,,,,,,,,,,,,,,,,,,,,,,,,,,,,,,,,,,,,0.115,,,,,,,,,,,,,,,,,,,,,,,,,,,,left,1,160,-30,130,1,6338.366992,6338.366992,6338.366992,None,None,2,0,0.2635144,,,,,,,,,,,,,,,,,,,10,4,1,2024-10-17_10h55.38.620,uWM_experiment,2022.2.3,59.96720993
,,,,,,,,,,,,,,,,,,,,7,0,7,0,22,0,22,0,,,,,,,,,,,,,,,,,,,,,,,,,,,,,,,,,,,,,,,,,,,,,,,,,,,,,,,,,,,,,,,,,,,,,,0,,,,,,,,,,,,,,,,,,,,,,,,,,,,left,1,70,-30,40,0,6343.783855,6343.783855,6343.783855,None,None,1,1,0.1265256,,,,,,,,,,,,,,,,,,,10,4,1,2024-10-17_10h55.38.620,uWM_experiment,2022.2.3,59.96720993
,,,,,,,,,,,,,,,,,,,,7,0,7,0,23,0,23,0,,,,,,,,,,,,,,,,,,,,,,,,,,,,,,,,,,,,,,,,,,,,,,,,,,,,,,,,,,,,,,,,,,,,,,0.105,,,,,,,,,,,,,,,,,,,,,,,,,,,,left,1,130,-30,100,1,6349.250754,6349.250754,6349.250754,None,None,1,1,0.2117704,,,,,,,,,,,,,,,,,,,10,4,1,2024-10-17_10h55.38.620,uWM_experiment,2022.2.3,59.96720993
,,,,,,,,,,,,,,,,,,,,7,0,7,0,,,,,0,0,0,0,,,,,,,,,,,,,,,,,,,,,,,,,,,,,,,,,,,,,,,,,,,,,,,,,,,,,,,,,,,,,,,,,,,,,,,,,,,,,,,,,,,,,,,,,,,,,,,,,,,,,,,,,,,,6349.484071,6349.484071,space,1.4104134,None,None,,,,,,,,,,,,,10,4,1,2024-10-17_10h55.38.620,uWM_experiment,2022.2.3,59.96720993
,,,,,,,,,,,,,,,,,,,,7,0,7,0,,,,,1,0,1,0,,,,,,,,,,,,,,,,,,,,,,,,,,,,,,,,,,,,,,,,,,,,,,,,,,,,,,,,,,,,,,,,,,,,,,,,,,,,,,,,,,,,,,,,,,,,,,,,,,,,,,,,,,,,,,,,,,,,,,,,,,,,,,10,4,1,2024-10-17_10h55.38.620,uWM_experiment,2022.2.3,59.96720993
,,,,,,,,,,,,,,,,,,,,7,0,7,0,,,,,2,0,2,0,,,,,,,,,,,,,,,,,,,,,,,,,,,,,,,,,,,,,,,,,,,,,,,,,,,,,,,,,,,,,,,,,,,,,,,,,,,,,,,,,,,,,,,,,,,,,,,,,,,,,,,,,,,,,,,,,,,,,,,,,,,,,,10,4,1,2024-10-17_10h55.38.620,uWM_experiment,2022.2.3,59.96720993
,,,,,,,,,,,,,,,,,,,,8,0,8,0,0,0,0,0,,,,,,,,,,,,,,,,,,,,,,,,,,,,,,,,,,,,,,,,,,,,,,,,,,,,,,,,,,,,,,,,,,,,,,0.115,,,,,,,,,,,,,,,,,,,,6350.917492,6351.617496,6351.917504,6352.617549,6352.917549,6353.617572,6353.617572,6353.934252,left,1,10,-30,-20,1,6358.401114,6358.401114,6358.401114,None,None,2,0,0.429366,,,,,,,None,,,,,,,,,,,,10,4,1,2024-10-17_10h55.38.620,uWM_experiment,2022.2.3,59.96720993
,,,,,,,,,,,,,,,,,,,,8,0,8,0,1,0,1,0,,,,,,,,,,,,,,,,,,,,,,,,,,,,,,,,,,,,,,,,,,,,,,,,,,,,,,,,,,,,,,,,,,,,,,0.105,,,,,,,,,,,,,,,,,,,,,,,,,,,,right,1,130,30,160,1,6365.184682,6365.184682,6365.184682,None,None,2,0,0.6217561,,,,,,,,,,,,,,,,,,,10,4,1,2024-10-17_10h55.38.620,uWM_experiment,2022.2.3,59.96720993
,,,,,,,,,,,,,,,,,,,,8,0,8,0,2,0,2,0,,,,,,,,,,,,,,,,,,,,,,,,,,,,,,,,,,,,,,,,,,,,,,,,,,,,,,,,,,,,,,,,,,,,,,0.095,,,,,,,,,,,,,,,,,,,,,,,,,,,,right,0,70,-30,40,1,6371.318286,6371.318286,6371.318286,None,None,1,1,0.4961335,,,,,,,,,,,,,,,,,,,10,4,1,2024-10-17_10h55.38.620,uWM_experiment,2022.2.3,59.96720993
,,,,,,,,,,,,,,,,,,,,8,0,8,0,3,0,3,0,,,,,,,,,,,,,,,,,,,,,,,,,,,,,,,,,,,,,,,,,,,,,,,,,,,,,,,,,,,,,,,,,,,,,,0,,,,,,,,,,,,,,,,,,,,,,,,,,,,left,0,70,30,100,0,6377.368515,6377.368515,6377.368515,None,None,1,1,0.2377807,,,,,,,,,,,,,,,,,,,10,4,1,2024-10-17_10h55.38.620,uWM_experiment,2022.2.3,59.96720993
,,,,,,,,,,,,,,,,,,,,8,0,8,0,4,0,4,0,,,,,,,,,,,,,,,,,,,,,,,,,,,,,,,,,,,,,,,,,,,,,,,,,,,,,,,,,,,,,,,,,,,,,,0,,,,,,,,,,,,,,,,,,,,,,,,,,,,left,1,130,-30,100,0,6382.73539,6382.73539,6382.73539,None,None,1,1,0.1270363,,,,,,,,,,,,,,,,,,,10,4,1,2024-10-17_10h55.38.620,uWM_experiment,2022.2.3,59.96720993
,,,,,,,,,,,,,,,,,,,,8,0,8,0,5,0,5,0,,,,,,,,,,,,,,,,,,,,,,,,,,,,,,,,,,,,,,,,,,,,,,,,,,,,,,,,,,,,,,,,,,,,,,0.105,,,,,,,,,,,,,,,,,,,,,,,,,,,,left,1,70,-30,40,1,6389.25234,6389.25234,6389.25234,None,None,2,0,0.4819926,,,,,,,,,,,,,,,,,,,10,4,1,2024-10-17_10h55.38.620,uWM_experiment,2022.2.3,59.96720993
,,,,,,,,,,,,,,,,,,,,8,0,8,0,6,0,6,0,,,,,,,,,,,,,,,,,,,,,,,,,,,,,,,,,,,,,,,,,,,,,,,,,,,,,,,,,,,,,,,,,,,,,,0.095,,,,,,,,,,,,,,,,,,,,,,,,,,,,left,0,130,30,160,1,6394.935868,6394.935868,6394.935868,None,None,1,1,0.0944826,,,,,,,,,,,,,,,,,,,10,4,1,2024-10-17_10h55.38.620,uWM_experiment,2022.2.3,59.96720993
,,,,,,,,,,,,,,,,,,,,8,0,8,0,7,0,7,0,,,,,,,,,,,,,,,,,,,,,,,,,,,,,,,,,,,,,,,,,,,,,,,,,,,,,,,,,,,,,,,,,,,,,,0.105,,,,,,,,,,,,,,,,,,,,,,,,,,,,left,0,100,30,130,1,6400.769432,6400.769432,6400.769432,None,None,1,1,0.2927597,,,,,,,,,,,,,,,,,,,10,4,1,2024-10-17_10h55.38.620,uWM_experiment,2022.2.3,59.96720993
,,,,,,,,,,,,,,,,,,,,8,0,8,0,8,0,8,0,,,,,,,,,,,,,,,,,,,,,,,,,,,,,,,,,,,,,,,,,,,,,,,,,,,,,,,,,,,,,,,,,,,,,,0.115,,,,,,,,,,,,,,,,,,,,,,,,,,,,left,0,100,30,130,1,6407.019702,6407.019702,6407.019702,None,None,1,1,0.4585242,,,,,,,,,,,,,,,,,,,10,4,1,2024-10-17_10h55.38.620,uWM_experiment,2022.2.3,59.96720993
,,,,,,,,,,,,,,,,,,,,8,0,8,0,9,0,9,0,,,,,,,,,,,,,,,,,,,,,,,,,,,,,,,,,,,,,,,,,,,,,,,,,,,,,,,,,,,,,,,,,,,,,,0.125,,,,,,,,,,,,,,,,,,,,,,,,,,,,right,1,130,30,160,1,6413.653284,6413.653284,6413.653284,None,None,2,0,0.312905,,,,,,,,,,,,,,,,,,,10,4,1,2024-10-17_10h55.38.620,uWM_experiment,2022.2.3,59.96720993
,,,,,,,,,,,,,,,,,,,,8,0,8,0,10,0,10,0,,,,,,,,,,,,,,,,,,,,,,,,,,,,,,,,,,,,,,,,,,,,,,,,,,,,,,,,,,,,,,,,,,,,,,0.115,,,,,,,,,,,,,,,,,,,,,,,,,,,,right,0,100,-30,70,1,6419.203531,6419.203531,6419.203531,None,None,1,1,0.0907486,,,,,,,,,,,,,,,,,,,10,4,1,2024-10-17_10h55.38.620,uWM_experiment,2022.2.3,59.96720993
,,,,,,,,,,,,,,,,,,,,8,0,8,0,11,0,11,0,,,,,,,,,,,,,,,,,,,,,,,,,,,,,,,,,,,,,,,,,,,,,,,,,,,,,,,,,,,,,,,,,,,,,,0.125,,,,,,,,,,,,,,,,,,,,,,,,,,,,right,1,160,30,190,1,6425.103721,6425.103721,6425.103721,None,None,2,0,0.57438,,,,,,,,,,,,,,,,,,,10,4,1,2024-10-17_10h55.38.620,uWM_experiment,2022.2.3,59.96720993
,,,,,,,,,,,,,,,,,,,,8,0,8,0,12,0,12,0,,,,,,,,,,,,,,,,,,,,,,,,,,,,,,,,,,,,,,,,,,,,,,,,,,,,,,,,,,,,,,,,,,,,,,0,,,,,,,,,,,,,,,,,,,,,,,,,,,,right,0,10,-30,-20,0,6430.887308,6430.887308,6430.887308,None,None,1,1,0.142809,,,,,,,,,,,,,,,,,,,10,4,1,2024-10-17_10h55.38.620,uWM_experiment,2022.2.3,59.96720993
,,,,,,,,,,,,,,,,,,,,8,0,8,0,13,0,13,0,,,,,,,,,,,,,,,,,,,,,,,,,,,,,,,,,,,,,,,,,,,,,,,,,,,,,,,,,,,,,,,,,,,,,,0,,,,,,,,,,,,,,,,,,,,,,,,,,,,left,0,160,30,190,0,6436.204176,6436.204176,6436.204176,None,None,1,1,0.1938623,,,,,,,,,,,,,,,,,,,10,4,1,2024-10-17_10h55.38.620,uWM_experiment,2022.2.3,59.96720993
,,,,,,,,,,,,,,,,,,,,8,0,8,0,14,0,14,0,,,,,,,,,,,,,,,,,,,,,,,,,,,,,,,,,,,,,,,,,,,,,,,,,,,,,,,,,,,,,,,,,,,,,,0.115,,,,,,,,,,,,,,,,,,,,,,,,,,,,right,1,160,30,190,1,6441.987754,6441.987754,6441.987754,None,None,2,0,0.4502342,,,,,,,,,,,,,,,,,,,10,4,1,2024-10-17_10h55.38.620,uWM_experiment,2022.2.3,59.96720993
,,,,,,,,,,,,,,,,,,,,8,0,8,0,15,0,15,0,,,,,,,,,,,,,,,,,,,,,,,,,,,,,,,,,,,,,,,,,,,,,,,,,,,,,,,,,,,,,,,,,,,,,,0.105,,,,,,,,,,,,,,,,,,,,,,,,,,,,right,0,70,-30,40,1,6447.97131,6447.97131,6447.97131,None,None,2,0,0.4267723,,,,,,,,,,,,,,,,,,,10,4,1,2024-10-17_10h55.38.620,uWM_experiment,2022.2.3,59.96720993
,,,,,,,,,,,,,,,,,,,,8,0,8,0,16,0,16,0,,,,,,,,,,,,,,,,,,,,,,,,,,,,,,,,,,,,,,,,,,,,,,,,,,,,,,,,,,,,,,,,,,,,,,0,,,,,,,,,,,,,,,,,,,,,,,,,,,,left,0,160,30,190,0,6454.621584,6454.621584,6454.621584,None,None,1,1,0.2243625,,,,,,,,,,,,,,,,,,,10,4,1,2024-10-17_10h55.38.620,uWM_experiment,2022.2.3,59.96720993
,,,,,,,,,,,,,,,,,,,,8,0,8,0,17,0,17,0,,,,,,,,,,,,,,,,,,,,,,,,,,,,,,,,,,,,,,,,,,,,,,,,,,,,,,,,,,,,,,,,,,,,,,0.095,,,,,,,,,,,,,,,,,,,,,,,,,,,,right,1,40,30,70,1,6460.455145,6460.455145,6460.455145,None,None,1,1,0.5827811,,,,,,,,,,,,,,,,,,,10,4,1,2024-10-17_10h55.38.620,uWM_experiment,2022.2.3,59.96720993
,,,,,,,,,,,,,,,,,,,,8,0,8,0,18,0,18,0,,,,,,,,,,,,,,,,,,,,,,,,,,,,,,,,,,,,,,,,,,,,,,,,,,,,,,,,,,,,,,,,,,,,,,0,,,,,,,,,,,,,,,,,,,,,,,,,,,,right,0,100,-30,70,0,6466.222033,6466.222033,6466.222033,None,None,1,1,0.4160111,,,,,,,,,,,,,,,,,,,10,4,1,2024-10-17_10h55.38.620,uWM_experiment,2022.2.3,59.96720993
,,,,,,,,,,,,,,,,,,,,8,0,8,0,19,0,19,0,,,,,,,,,,,,,,,,,,,,,,,,,,,,,,,,,,,,,,,,,,,,,,,,,,,,,,,,,,,,,,,,,,,,,,0.105,,,,,,,,,,,,,,,,,,,,,,,,,,,,right,1,130,30,160,1,6473.855672,6473.855672,6473.855672,None,None,2,0,0.918252,,,,,,,,,,,,,,,,,,,10,4,1,2024-10-17_10h55.38.620,uWM_experiment,2022.2.3,59.96720993
,,,,,,,,,,,,,,,,,,,,8,0,8,0,20,0,20,0,,,,,,,,,,,,,,,,,,,,,,,,,,,,,,,,,,,,,,,,,,,,,,,,,,,,,,,,,,,,,,,,,,,,,,0,,,,,,,,,,,,,,,,,,,,,,,,,,,,left,1,10,-30,-20,0,6480.555927,6480.555927,6480.555927,None,None,1,1,0.4099325,,,,,,,,,,,,,,,,,,,10,4,1,2024-10-17_10h55.38.620,uWM_experiment,2022.2.3,59.96720993
,,,,,,,,,,,,,,,,,,,,8,0,8,0,21,0,21,0,,,,,,,,,,,,,,,,,,,,,,,,,,,,,,,,,,,,,,,,,,,,,,,,,,,,,,,,,,,,,,,,,,,,,,0.095,,,,,,,,,,,,,,,,,,,,,,,,,,,,right,0,70,-30,40,1,6486.72286,6486.72286,6486.72286,None,None,1,1,0.2989467,,,,,,,,,,,,,,,,,,,10,4,1,2024-10-17_10h55.38.620,uWM_experiment,2022.2.3,59.96720993
,,,,,,,,,,,,,,,,,,,,8,0,8,0,22,0,22,0,,,,,,,,,,,,,,,,,,,,,,,,,,,,,,,,,,,,,,,,,,,,,,,,,,,,,,,,,,,,,,,,,,,,,,0,,,,,,,,,,,,,,,,,,,,,,,,,,,,left,0,40,30,70,0,6493.073086,6493.073086,6493.073086,None,None,1,1,0.1488261,,,,,,,,,,,,,,,,,,,10,4,1,2024-10-17_10h55.38.620,uWM_experiment,2022.2.3,59.96720993
,,,,,,,,,,,,,,,,,,,,8,0,8,0,23,0,23,0,,,,,,,,,,,,,,,,,,,,,,,,,,,,,,,,,,,,,,,,,,,,,,,,,,,,,,,,,,,,,,,,,,,,,,0.105,,,,,,,,,,,,,,,,,,,,,,,,,,,,right,1,100,30,130,1,6499.590031,6499.590031,6499.590031,None,None,2,0,0.5758036,,,,,,,,,,,,,,,,,,,10,4,1,2024-10-17_10h55.38.620,uWM_experiment,2022.2.3,59.96720993
,,,,,,,,,,,,,,,,,,,,8,0,8,0,,,,,0,0,0,0,,,,,,,,,,,,,,,,,,,,,,,,,,,,,,,,,,,,,,,,,,,,,,,,,,,,,,,,,,,,,,,,,,,,,,,,,,,,,,,,,,,,,,,,,,,,,,,,,,,,,,,,,,,,6500.190015,6500.190015,space,16.1117109,space,None,,6516.324002,6516.324002,2.3697547,,,,,,,,,10,4,1,2024-10-17_10h55.38.620,uWM_experiment,2022.2.3,59.96720993
,,,,,,,,,,,,,,,,,,,,8,0,8,0,,,,,1,0,1,0,,,,,,,,,,,,,,,,,,,,,,,,,,,,,,,,,,,,,,,,,,,,,,,,,,,,,,,,,,,,,,,,,,,,,,,,,,,,,,,,,,,,,,,,,,,,,,,,,,,,,,,,,,,,,,,,,,,,,,,,,,,,,,10,4,1,2024-10-17_10h55.38.620,uWM_experiment,2022.2.3,59.96720993
,,,,,,,,,,,,,,,,,,,,8,0,8,0,,,,,2,0,2,0,,,,,,,,,,,,,,,,,,,,,,,,,,,,,,,,,,,,,,,,,,,,,,,,,,,,,,,,,,,,,,,,,,,,,,,,,,,,,,,,,,,,,,,,,,,,,,,,,,,,,,,,,,,,,,,,,,,,,,,,,,,,,,10,4,1,2024-10-17_10h55.38.620,uWM_experiment,2022.2.3,59.96720993
,,,,,,,,,,,,,,,,,,,,9,0,9,0,0,0,0,0,,,,,,,,,,,,,,,,,,,,,,,,,,,,,,,,,,,,,,,,,,,,,,,,,,,,,,,,,,,,,,,,,,,,,,0.095,,,,,,,,,,,,,,,,,,,,6518.724094,6519.424116,6519.724128,6520.424171,6520.724169,6521.424198,6521.424198,6521.740894,left,0,130,30,160,1,6526.857725,6526.857725,6526.857725,None,None,2,0,0.4760434,,,,,,,None,,,,,,,,,,,,10,4,1,2024-10-17_10h55.38.620,uWM_experiment,2022.2.3,59.96720993
,,,,,,,,,,,,,,,,,,,,9,0,9,0,1,0,1,0,,,,,,,,,,,,,,,,,,,,,,,,,,,,,,,,,,,,,,,,,,,,,,,,,,,,,,,,,,,,,,,,,,,,,,0,,,,,,,,,,,,,,,,,,,,,,,,,,,,left,0,160,30,190,0,6533.308008,6533.308008,6533.308008,None,None,1,1,0.1617442,,,,,,,,,,,,,,,,,,,10,4,1,2024-10-17_10h55.38.620,uWM_experiment,2022.2.3,59.96720993
,,,,,,,,,,,,,,,,,,,,9,0,9,0,2,0,2,0,,,,,,,,,,,,,,,,,,,,,,,,,,,,,,,,,,,,,,,,,,,,,,,,,,,,,,,,,,,,,,,,,,,,,,0.085,,,,,,,,,,,,,,,,,,,,,,,,,,,,right,1,10,30,40,1,6539.258238,6539.258238,6539.258238,None,None,2,0,1.3234504,,,,,,,,,,,,,,,,,,,10,4,1,2024-10-17_10h55.38.620,uWM_experiment,2022.2.3,59.96720993
,,,,,,,,,,,,,,,,,,,,9,0,9,0,3,0,3,0,,,,,,,,,,,,,,,,,,,,,,,,,,,,,,,,,,,,,,,,,,,,,,,,,,,,,,,,,,,,,,,,,,,,,,0.1,,,,,,,,,,,,,,,,,,,,,,,,,,,,left,1,160,-30,130,2,6546.708551,6546.708551,6546.708551,None,None,4,0,0.8729733,,,,,,,,,,,,,,,,,,,10,4,1,2024-10-17_10h55.38.620,uWM_experiment,2022.2.3,59.96720993
,,,,,,,,,,,,,,,,,,,,9,0,9,0,4,0,4,0,,,,,,,,,,,,,,,,,,,,,,,,,,,,,,,,,,,,,,,,,,,,,,,,,,,,,,,,,,,,,,,,,,,,,,0.075,,,,,,,,,,,,,,,,,,,,,,,,,,,,left,1,10,-30,-20,1,6553.608805,6553.608805,6553.608805,None,None,2,0,0.3087063,,,,,,,,,,,,,,,,,,,10,4,1,2024-10-17_10h55.38.620,uWM_experiment,2022.2.3,59.96720993
,,,,,,,,,,,,,,,,,,,,9,0,9,0,5,0,5,0,,,,,,,,,,,,,,,,,,,,,,,,,,,,,,,,,,,,,,,,,,,,,,,,,,,,,,,,,,,,,,,,,,,,,,0,,,,,,,,,,,,,,,,,,,,,,,,,,,,left,1,10,-30,-20,0,6559.892409,6559.892409,6559.892409,None,None,1,1,0.1850296,,,,,,,,,,,,,,,,,,,10,4,1,2024-10-17_10h55.38.620,uWM_experiment,2022.2.3,59.96720993
,,,,,,,,,,,,,,,,,,,,9,0,9,0,6,0,6,0,,,,,,,,,,,,,,,,,,,,,,,,,,,,,,,,,,,,,,,,,,,,,,,,,,,,,,,,,,,,,,,,,,,,,,0.065,,,,,,,,,,,,,,,,,,,,,,,,,,,,left,1,160,-30,130,1,6566.009317,6566.009317,6566.009317,None,None,1,1,0.6601646,,,,,,,,,,,,,,,,,,,10,4,1,2024-10-17_10h55.38.620,uWM_experiment,2022.2.3,59.96720993
,,,,,,,,,,,,,,,,,,,,9,0,9,0,7,0,7,0,,,,,,,,,,,,,,,,,,,,,,,,,,,,,,,,,,,,,,,,,,,,,,,,,,,,,,,,,,,,,,,,,,,,,,0,,,,,,,,,,,,,,,,,,,,,,,,,,,,left,1,160,-30,130,0,6571.942892,6571.942892,6571.942892,None,None,1,1,0.1024999,,,,,,,,,,,,,,,,,,,10,4,1,2024-10-17_10h55.38.620,uWM_experiment,2022.2.3,59.96720993
,,,,,,,,,,,,,,,,,,,,9,0,9,0,8,0,8,0,,,,,,,,,,,,,,,,,,,,,,,,,,,,,,,,,,,,,,,,,,,,,,,,,,,,,,,,,,,,,,,,,,,,,,0.075,,,,,,,,,,,,,,,,,,,,,,,,,,,,right,1,10,30,40,1,6577.726422,6577.726422,6577.726422,None,None,2,0,0.374956,,,,,,,,,,,,,,,,,,,10,4,1,2024-10-17_10h55.38.620,uWM_experiment,2022.2.3,59.96720993
,,,,,,,,,,,,,,,,,,,,9,0,9,0,9,0,9,0,,,,,,,,,,,,,,,,,,,,,,,,,,,,,,,,,,,,,,,,,,,,,,,,,,,,,,,,,,,,,,,,,,,,,,0.065,,,,,,,,,,,,,,,,,,,,,,,,,,,,left,0,70,30,100,1,6584.360038,6584.360038,6584.360038,None,None,1,1,0.2934365,,,,,,,,,,,,,,,,,,,10,4,1,2024-10-17_10h55.38.620,uWM_experiment,2022.2.3,59.96720993
,,,,,,,,,,,,,,,,,,,,9,0,9,0,10,0,10,0,,,,,,,,,,,,,,,,,,,,,,,,,,,,,,,,,,,,,,,,,,,,,,,,,,,,,,,,,,,,,,,,,,,,,,0.1,,,,,,,,,,,,,,,,,,,,,,,,,,,,right,1,100,30,130,2,6590.676957,6590.676957,6590.676957,None,None,4,0,0.6324991,,,,,,,,,,,,,,,,,,,10,4,1,2024-10-17_10h55.38.620,uWM_experiment,2022.2.3,59.96720993
,,,,,,,,,,,,,,,,,,,,9,0,9,0,11,0,11,0,,,,,,,,,,,,,,,,,,,,,,,,,,,,,,,,,,,,,,,,,,,,,,,,,,,,,,,,,,,,,,,,,,,,,,0.1,,,,,,,,,,,,,,,,,,,,,,,,,,,,left,1,130,-30,100,2,6597.410534,6597.410534,6597.410534,None,None,4,0,0.3628395,,,,,,,,,,,,,,,,,,,10,4,1,2024-10-17_10h55.38.620,uWM_experiment,2022.2.3,59.96720993
,,,,,,,,,,,,,,,,,,,,9,0,9,0,12,0,12,0,,,,,,,,,,,,,,,,,,,,,,,,,,,,,,,,,,,,,,,,,,,,,,,,,,,,,,,,,,,,,,,,,,,,,,0,,,,,,,,,,,,,,,,,,,,,,,,,,,,right,0,130,-30,100,0,6602.944094,6602.944094,6602.944094,None,None,1,1,0.7492297,,,,,,,,,,,,,,,,,,,10,4,1,2024-10-17_10h55.38.620,uWM_experiment,2022.2.3,59.96720993
,,,,,,,,,,,,,,,,,,,,9,0,9,0,13,0,13,0,,,,,,,,,,,,,,,,,,,,,,,,,,,,,,,,,,,,,,,,,,,,,,,,,,,,,,,,,,,,,,,,,,,,,,0.075,,,,,,,,,,,,,,,,,,,,,,,,,,,,left,1,130,-30,100,1,6609.927721,6609.927721,6609.927721,None,None,2,0,0.3255561,,,,,,,,,,,,,,,,,,,10,4,1,2024-10-17_10h55.38.620,uWM_experiment,2022.2.3,59.96720993
,,,,,,,,,,,,,,,,,,,,9,0,9,0,14,0,14,0,,,,,,,,,,,,,,,,,,,,,,,,,,,,,,,,,,,,,,,,,,,,,,,,,,,,,,,,,,,,,,,,,,,,,,0.065,,,,,,,,,,,,,,,,,,,,,,,,,,,,left,1,160,-30,130,1,6616.127938,6616.127938,6616.127938,None,None,1,1,0.317297,,,,,,,,,,,,,,,,,,,10,4,1,2024-10-17_10h55.38.620,uWM_experiment,2022.2.3,59.96720993
,,,,,,,,,,,,,,,,,,,,9,0,9,0,15,0,15,0,,,,,,,,,,,,,,,,,,,,,,,,,,,,,,,,,,,,,,,,,,,,,,,,,,,,,,,,,,,,,,,,,,,,,,0,,,,,,,,,,,,,,,,,,,,,,,,,,,,left,1,130,-30,100,0,6621.57816,6621.57816,6621.57816,None,None,1,1,0.1311717,,,,,,,,,,,,,,,,,,,10,4,1,2024-10-17_10h55.38.620,uWM_experiment,2022.2.3,59.96720993
,,,,,,,,,,,,,,,,,,,,9,0,9,0,16,0,16,0,,,,,,,,,,,,,,,,,,,,,,,,,,,,,,,,,,,,,,,,,,,,,,,,,,,,,,,,,,,,,,,,,,,,,,0.075,,,,,,,,,,,,,,,,,,,,,,,,,,,,left,1,160,-30,130,1,6627.411749,6627.411749,6627.411749,None,None,2,0,0.4735643,,,,,,,,,,,,,,,,,,,10,4,1,2024-10-17_10h55.38.620,uWM_experiment,2022.2.3,59.96720993
,,,,,,,,,,,,,,,,,,,,9,0,9,0,17,0,17,0,,,,,,,,,,,,,,,,,,,,,,,,,,,,,,,,,,,,,,,,,,,,,,,,,,,,,,,,,,,,,,,,,,,,,,0,,,,,,,,,,,,,,,,,,,,,,,,,,,,left,0,70,30,100,0,6633.128607,6633.128607,6633.128607,None,None,1,1,0.1806402,,,,,,,,,,,,,,,,,,,10,4,1,2024-10-17_10h55.38.620,uWM_experiment,2022.2.3,59.96720993
,,,,,,,,,,,,,,,,,,,,9,0,9,0,18,0,18,0,,,,,,,,,,,,,,,,,,,,,,,,,,,,,,,,,,,,,,,,,,,,,,,,,,,,,,,,,,,,,,,,,,,,,,0.065,,,,,,,,,,,,,,,,,,,,,,,,,,,,left,0,70,30,100,1,6639.32886,6639.32886,6639.32886,None,None,1,1,0.1962936,,,,,,,,,,,,,,,,,,,10,4,1,2024-10-17_10h55.38.620,uWM_experiment,2022.2.3,59.96720993
,,,,,,,,,,,,,,,,,,,,9,0,9,0,19,0,19,0,,,,,,,,,,,,,,,,,,,,,,,,,,,,,,,,,,,,,,,,,,,,,,,,,,,,,,,,,,,,,,,,,,,,,,0,,,,,,,,,,,,,,,,,,,,,,,,,,,,left,1,40,-30,10,0,6644.745764,6644.745764,6644.745764,None,None,1,1,0.1953236,,,,,,,,,,,,,,,,,,,10,4,1,2024-10-17_10h55.38.620,uWM_experiment,2022.2.3,59.96720993
,,,,,,,,,,,,,,,,,,,,9,0,9,0,20,0,20,0,,,,,,,,,,,,,,,,,,,,,,,,,,,,,,,,,,,,,,,,,,,,,,,,,,,,,,,,,,,,,,,,,,,,,,0.075,,,,,,,,,,,,,,,,,,,,,,,,,,,,right,1,40,30,70,1,6650.929317,6650.929317,6650.929317,None,None,4,0,0.499995,,,,,,,,,,,,,,,,,,,10,4,1,2024-10-17_10h55.38.620,uWM_experiment,2022.2.3,59.96720993
,,,,,,,,,,,,,,,,,,,,9,0,9,0,21,0,21,0,,,,,,,,,,,,,,,,,,,,,,,,,,,,,,,,,,,,,,,,,,,,,,,,,,,,,,,,,,,,,,,,,,,,,,0,,,,,,,,,,,,,,,,,,,,,,,,,,,,left,0,40,30,70,0,6656.546221,6656.546221,6656.546221,None,None,1,1,0.2028558,,,,,,,,,,,,,,,,,,,10,4,1,2024-10-17_10h55.38.620,uWM_experiment,2022.2.3,59.96720993
,,,,,,,,,,,,,,,,,,,,9,0,9,0,22,0,22,0,,,,,,,,,,,,,,,,,,,,,,,,,,,,,,,,,,,,,,,,,,,,,,,,,,,,,,,,,,,,,,,,,,,,,,0.065,,,,,,,,,,,,,,,,,,,,,,,,,,,,right,1,70,30,100,1,6662.81312,6662.81312,6662.81312,None,None,3,0,0.7760257,,,,,,,,,,,,,,,,,,,10,4,1,2024-10-17_10h55.38.620,uWM_experiment,2022.2.3,59.96720993
,,,,,,,,,,,,,,,,,,,,9,0,9,0,23,0,23,0,,,,,,,,,,,,,,,,,,,,,,,,,,,,,,,,,,,,,,,,,,,,,,,,,,,,,,,,,,,,,,,,,,,,,,0.055,,,,,,,,,,,,,,,,,,,,,,,,,,,,left,1,160,-30,130,1,6669.296728,6669.296728,6669.296728,None,None,1,1,0.3083593,,,,,,,,,,,,,,,,,,,10,4,1,2024-10-17_10h55.38.620,uWM_experiment,2022.2.3,59.96720993
,,,,,,,,,,,,,,,,,,,,9,0,9,0,,,,,0,0,0,0,,,,,,,,,,,,,,,,,,,,,,,,,,,,,,,,,,,,,,,,,,,,,,,,,,,,,,,,,,,,,,,,,,,,,,,,,,,,,,,,,,,,,,,,,,,,,,,,,,,,,,,,,,,,6669.630093,6669.630093,space,20.174947,None,None,,,,,,,,,,,,,10,4,1,2024-10-17_10h55.38.620,uWM_experiment,2022.2.3,59.96720993
