PreTrainingPAS4_loop.thisRepN,PreTrainingPAS4_loop.thisTrialN,PreTrainingPAS4_loop.thisN,PreTrainingPAS4_loop.thisIndex,PreTrainingPAS1_loop.thisRepN,PreTrainingPAS1_loop.thisTrialN,PreTrainingPAS1_loop.thisN,PreTrainingPAS1_loop.thisIndex,RepeatCV_loop.thisRepN,RepeatCV_loop.thisTrialN,RepeatCV_loop.thisN,RepeatCV_loop.thisIndex,TrainingCV_loop.thisRepN,TrainingCV_loop.thisTrialN,TrainingCV_loop.thisN,TrainingCV_loop.thisIndex,TrainingCAL_loop.thisRepN,TrainingCAL_loop.thisTrialN,TrainingCAL_loop.thisN,TrainingCAL_loop.thisIndex,blocks_loop.thisRepN,blocks_loop.thisTrialN,blocks_loop.thisN,blocks_loop.thisIndex,trials_loop.thisRepN,trials_loop.thisTrialN,trials_loop.thisN,trials_loop.thisIndex,TrainingPAS1_loop.thisRepN,TrainingPAS1_loop.thisTrialN,TrainingPAS1_loop.thisN,TrainingPAS1_loop.thisIndex,spacebarWelcome0.started,spacebarWelcome0.keys,spacebarWelcome0.rt,spacebarWelcome1.started,gaborWelcome1.started,maskWelcome1.started,textMaskWelcome1.started,spacebarWelcome1.keys,spacebarWelcome1.rt,spacebarWelcome2.started,spacebarWelcome2.keys,spacebarWelcome2.rt,textInst_PreTrainingPAS4.started,spacebarPreTrainingPAS4.started,spacebarPreTrainingPAS4.keys,spacebarPreTrainingPAS4.rt,textPreTrainingPAS1.started,spacebarPreTrainingPAS1.started,spacebarPreTrainingPAS1.keys,spacebarPreTrainingPAS1.rt,textQUEST0.started,spacebarQUEST0.started,spacebarQUEST0.keys,spacebarQUEST0.rt,spacebar0.started,spacebar0.keys,spacebar0.rt,spacebar1.started,spacebar1.keys,spacebar1.rt,textInstructions2.started,spacebar2.started,Gabor1Inst2.started,Gabor2Inst2.started,Gabor3Inst2.started,Gabor4Inst2.started,spacebar2.keys,spacebar2.rt,textInstructionsPAS.started,spacebarInstPAS.started,spacebarInstPAS.keys,spacebarInstPAS.rt,textInstructions3.started,spacebar3.started,spacebar3.keys,spacebar3.rt,WMresp_CV,WMresp_CV_acc,oriMemo_CV,gyre_CV,oriTest_CV,feedbackText.started,sliderCV.started,PAStextCV.started,PASkeyCV.started,sliderCV.response,sliderCV.rt,PASkeyCV.keys,PASkeyCV.corr,PASkeyCV.rt,feedbackText.stopped,TextInstructionsCAL.started,spacebarCAL.started,spacebarCAL.keys,spacebarCAL.rt,contrast,WMresp_CAL,WMresp_CAL_acc,oriMemo_CAL,gyre_CAL,oriTest_CAL,cue_CAL,sliderCAL.started,PAStextCAL.started,PASkeyCAL.started,sliderCAL.response,sliderCAL.rt,PASkeyCAL.keys,PASkeyCAL.corr,PASkeyCAL.rt,propUnseen_CAL,textStart.started,spacebar4.started,spacebar4.keys,spacebar4.rt,three.started,three.stopped,two.started,two.stopped,one.started,one.stopped,blank_countdown.started,blank_countdown.stopped,WMresp,WMresp_acc,oriMemo,gyre,oriTest,cue,slider.started,textPAS_firstGabor.started,PASkey.started,slider.response,slider.rt,PASkey.keys,PASkey.corr,PASkey.rt,spacebarContinue.started,textBreak.started,spacebarContinue.keys,spacebarContinue.rt,spacebar_reminder.keys,spacebar_TrainingPAS1.keys,spacebar_endpractice.keys,spacebar_reminder.started,textReminder.started,spacebar_reminder.rt,textInst_TrainingPAS1.started,spacebar_TrainingPAS1.started,spacebar_TrainingPAS1.rt,textend_practicePAS1.started,spacebar_endpractice.started,spacebar_endpractice.rt,textThanks.started,buttonURL.started,buttonURL.numClicks,buttonURL.timesOn,buttonURL.timesOff,laboratory,participant,session,date,expName,psychopyVersion,frameRate
,,,,,,,,,,,,,,,,,,,,,,,,,,,,,,,,359.701442,space,16.6914937,,,,,,,,,,,,,,,,,,,,,,,,,,,,,,,,,,,,,,,,,,,,,,,,,,,,,,,,,,,,,,,,,,,,,,,,,,,,,,,,,,,,,,,,,,,,,,,,,,,,,,,,,,,,,,,,,,,,,,,,,,,,,,10,4,2,2024-10-20_09h07.37.475,uWM_experiment,2022.2.3,60.01021374
,,,,,,,,,,,,,,,,,,,,,,,,,,,,,,,,,,,376.4352384,376.4352384,376.4352384,376.4352384,space,2.7816825,,,,,,,,,,,,,,,,,,,,,,,,,,,,,,,,,,,,,,,,,,,,,,,,,,,,,,,,,,,,,,,,,,,,,,,,,,,,,,,,,,,,,,,,,,,,,,,,,,,,,,,,,,,,,,,,,,,,,,,,10,4,2,2024-10-20_09h07.37.475,uWM_experiment,2022.2.3,60.01021374
,,,,,,,,,,,,,,,,,,,,,,,,,,,,,,,,,,,,,,,,,379.2353431,space,0.9575624,,,,,,,,,,,,,,,,,,,,,,,,,,,,,,,,,,,,,,,,,,,,,,,,,,,,,,,,,,,,,,,,,,,,,,,,,,,,,,,,,,,,,,,,,,,,,,,,,,,,,,,,,,,,,,,,,,,,,10,4,2,2024-10-20_09h07.37.475,uWM_experiment,2022.2.3,60.01021374
,,,,,,,,,,,,,,,,,,,,,,,,,,,,,,,,,,,,,,,,,,,,380.2187086,380.2187086,space,6.2701714,,,,,,,,,,,,,,,,,,,,,,,,,,,,,,,,,,,,,,,,,,,,,,,,,,,,,,,,,,,,,,,,,,,,,,,,,,,,,,,,,,,,,,,,,,,,,,,,,,,,,,,,,,,,,,,,,10,4,2,2024-10-20_09h07.37.475,uWM_experiment,2022.2.3,60.01021374
0,0,0,0,,,,,,,,,,,,,,,,,,,,,,,,,,,,,,,,,,,,,,,,,,,,,,,,,,,,,,,,,,,,,,,,,,,,,,,,,,,,,,,,,,,,,,,,,,,,,,,,,,,,,,,,,,,,,,,,,,,,,,,,,,,,,,,,,,,,,,,,,,,,,,,,,,,,,,,,,,,,,10,4,2,2024-10-20_09h07.37.475,uWM_experiment,2022.2.3,60.01021374
1,0,1,0,,,,,,,,,,,,,,,,,,,,,,,,,,,,,,,,,,,,,,,,,,,,,,,,,,,,,,,,,,,,,,,,,,,,,,,,,,,,,,,,,,,,,,,,,,,,,,,,,,,,,,,,,,,,,,,,,,,,,,,,,,,,,,,,,,,,,,,,,,,,,,,,,,,,,,,,,,,,,10,4,2,2024-10-20_09h07.37.475,uWM_experiment,2022.2.3,60.01021374
2,0,2,0,,,,,,,,,,,,,,,,,,,,,,,,,,,,,,,,,,,,,,,,,,,,,,,,,,,,,,,,,,,,,,,,,,,,,,,,,,,,,,,,,,,,,,,,,,,,,,,,,,,,,,,,,,,,,,,,,,,,,,,,,,,,,,,,,,,,,,,,,,,,,,,,,,,,,,,,,,,,,10,4,2,2024-10-20_09h07.37.475,uWM_experiment,2022.2.3,60.01021374
,,,,,,,,,,,,,,,,,,,,,,,,,,,,,,,,,,,,,,,,,,,,,,,,398.0360783,398.0360783,space,5.4287254,,,,,,,,,,,,,,,,,,,,,,,,,,,,,,,,,,,,,,,,,,,,,,,,,,,,,,,,,,,,,,,,,,,,,,,,,,,,,,,,,,,,,,,,,,,,,,,,,,,,,,,,,,,,,10,4,2,2024-10-20_09h07.37.475,uWM_experiment,2022.2.3,60.01021374
,,,,0,0,0,0,,,,,,,,,,,,,,,,,,,,,,,,,,,,,,,,,,,,,,,,,,,,,,,,,,,,,,,,,,,,,,,,,,,,,,,,,,,,,,,,,,,,,,,,,,,,,,,,,,,,,,,,,,,,,,,,,,,,,,,,,,,,,,,,,,,,,,,,,,,,,,,,,,,,,,,,,10,4,2,2024-10-20_09h07.37.475,uWM_experiment,2022.2.3,60.01021374
,,,,1,0,1,0,,,,,,,,,,,,,,,,,,,,,,,,,,,,,,,,,,,,,,,,,,,,,,,,,,,,,,,,,,,,,,,,,,,,,,,,,,,,,,,,,,,,,,,,,,,,,,,,,,,,,,,,,,,,,,,,,,,,,,,,,,,,,,,,,,,,,,,,,,,,,,,,,,,,,,,,,10,4,2,2024-10-20_09h07.37.475,uWM_experiment,2022.2.3,60.01021374
,,,,2,0,2,0,,,,,,,,,,,,,,,,,,,,,,,,,,,,,,,,,,,,,,,,,,,,,,,,,,,,,,,,,,,,,,,,,,,,,,,,,,,,,,,,,,,,,,,,,,,,,,,,,,,,,,,,,,,,,,,,,,,,,,,,,,,,,,,,,,,,,,,,,,,,,,,,,,,,,,,,,10,4,2,2024-10-20_09h07.37.475,uWM_experiment,2022.2.3,60.01021374
,,,,,,,,,,,,,,,,,,,,,,,,,,,,,,,,,,,,,,,,,,,,,,,,,,,,410.9365701,410.9365701,space,0.8881545,,,,,,,,,,,,,,,,,,,,,,,,,,,,,,,,,,,,,,,,,,,,,,,,,,,,,,,,,,,,,,,,,,,,,,,,,,,,,,,,,,,,,,,,,,,,,,,,,,,,,,,,,10,4,2,2024-10-20_09h07.37.475,uWM_experiment,2022.2.3,60.01021374
,,,,,,,,,,,,,,,,,,,,,,,,,,,,,,,,,,,,,,,,,,,,,,,,,,,,,,,,528.1078761,space,1.7003137,,,,,,,,,,,,,,,,,,,,,,,,,,,,,,,,,,,,,,,,,,,,,,,,,,,,,,,,,,,,,,,,,,,,,,,,,,,,,,,,,,,,,,,,,,,,,,,,,,,,,,10,4,2,2024-10-20_09h07.37.475,uWM_experiment,2022.2.3,60.01021374
,,,,,,,,,,,,,,,,,,,,,,,,,,,,,,,,,,,,,,,,,,,,,,,,,,,,,,,,,,,529.8412286,space,19.5748834,,,,,,,,,,,,,,,,,,,,,,,,,,,,,,,,,,,,,,,,,,,,,,,,,,,,,,,,,,,,,,,,,,,,,,,,,,,,,,,,,,,,,,,,,,,,,,,,,,,10,4,2,2024-10-20_09h07.37.475,uWM_experiment,2022.2.3,60.01021374
,,,,,,,,,,,,,,,,,,,,,,,,,,,,,,,,,,,,,,,,,,,,,,,,,,,,,,,,,,,,,,549.4420177,549.4420177,549.4420177,549.4420177,549.4420177,549.4420177,space,4.3740629,,,,,,,,,,,,,,,,,,,,,,,,,,,,,,,,,,,,,,,,,,,,,,,,,,,,,,,,,,,,,,,,,,,,,,,,,,,,,,,,,,,,,,,,,,,10,4,2,2024-10-20_09h07.37.475,uWM_experiment,2022.2.3,60.01021374
,,,,,,,,,,,,,,,,,,,,,,,,,,,,,,,,,,,,,,,,,,,,,,,,,,,,,,,,,,,,,,,,,,,,,,553.8421804,553.8421804,space,1.3178038,,,,,,,,,,,,,,,,,,,,,,,,,,,,,,,,,,,,,,,,,,,,,,,,,,,,,,,,,,,,,,,,,,,,,,,,,,,,,,,,,,,,,,,10,4,2,2024-10-20_09h07.37.475,uWM_experiment,2022.2.3,60.01021374
,,,,,,,,,,,,,,,,,,,,,,,,,,,,,,,,,,,,,,,,,,,,,,,,,,,,,,,,,,,,,,,,,,,,,,,,,,555.1922347,555.1922347,space,3.5037463,,,,,,,,,,,,,,,,,,,,,,,,,,,,,,,,,,,,,,,,,,,,,,,,,,,,,,,,,,,,,,,,,,,,,,,,,,,,,,,,,,,10,4,2,2024-10-20_09h07.37.475,uWM_experiment,2022.2.3,60.01021374
,,,,,,,,0,0,0,0,0,0,0,0,,,,,,,,,,,,,,,,,,,,,,,,,,,,,,,,,,,,,,,,,,,,,,,,,,,,,,,,,,,,,,,left,0,70,30,100,564.9926379,565.9926774,565.9926774,565.9926774,None,None,4,0,1.6952781,,,,,,,,,,,,,,,,,,,,,,,,,,,,,,,,,,,,,,,,,,,,,,,,,,,,,,,,,,,,,,,,,,,,,10,4,2,2024-10-20_09h07.37.475,uWM_experiment,2022.2.3,60.01021374
,,,,,,,,0,0,0,0,1,0,1,0,,,,,,,,,,,,,,,,,,,,,,,,,,,,,,,,,,,,,,,,,,,,,,,,,,,,,,,,,,,,,,,right,0,130,-30,100,575.4097302,576.4097551,576.4097551,576.4097551,None,None,1,1,0.4782676,576.4097551,,,,,,,,,,,,,,,,,,,,,,,,,,,,,,,,,,,,,,,,,,,,,,,,,,,,,,,,,,,,,,,,,,,,10,4,2,2024-10-20_09h07.37.475,uWM_experiment,2022.2.3,60.01021374
,,,,,,,,0,0,0,0,2,0,2,0,,,,,,,,,,,,,,,,,,,,,,,,,,,,,,,,,,,,,,,,,,,,,,,,,,,,,,,,,,,,,,,left,1,160,-30,130,583.1933652,584.1934428,584.1934428,584.1934428,None,None,4,0,0.5985006,584.1934428,,,,,,,,,,,,,,,,,,,,,,,,,,,,,,,,,,,,,,,,,,,,,,,,,,,,,,,,,,,,,,,,,,,,10,4,2,2024-10-20_09h07.37.475,uWM_experiment,2022.2.3,60.01021374
,,,,,,,,0,0,0,0,3,0,3,0,,,,,,,,,,,,,,,,,,,,,,,,,,,,,,,,,,,,,,,,,,,,,,,,,,,,,,,,,,,,,,,right,1,130,30,160,590.7603376,591.760403,591.760403,591.760403,None,None,4,0,0.1673931,591.760403,,,,,,,,,,,,,,,,,,,,,,,,,,,,,,,,,,,,,,,,,,,,,,,,,,,,,,,,,,,,,,,,,,,,10,4,2,2024-10-20_09h07.37.475,uWM_experiment,2022.2.3,60.01021374
,,,,,,,,0,0,0,0,4,0,4,0,,,,,,,,,,,,,,,,,,,,,,,,,,,,,,,,,,,,,,,,,,,,,,,,,,,,,,,,,,,,,,,left,1,40,-30,10,597.9439444,598.9440013,598.9440013,598.9440013,None,None,4,0,0.6959236,598.9440013,,,,,,,,,,,,,,,,,,,,,,,,,,,,,,,,,,,,,,,,,,,,,,,,,,,,,,,,,,,,,,,,,,,,10,4,2,2024-10-20_09h07.37.475,uWM_experiment,2022.2.3,60.01021374
,,,,,,,,0,0,0,0,5,0,5,0,,,,,,,,,,,,,,,,,,,,,,,,,,,,,,,,,,,,,,,,,,,,,,,,,,,,,,,,,,,,,,,right,1,10,30,40,605.3942171,606.394271,606.394271,606.394271,None,None,4,0,0.3575794,606.394271,,,,,,,,,,,,,,,,,,,,,,,,,,,,,,,,,,,,,,,,,,,,,,,,,,,,,,,,,,,,,,,,,,,,10,4,2,2024-10-20_09h07.37.475,uWM_experiment,2022.2.3,60.01021374
,,,,,,,,0,0,0,0,,,,,,,,,,,,,,,,,,,,,,,,,,,,,,,,,,,,,,,,,,,,,,,,,,,,,,,,,,,,,,,,,,,,,,,,,,,,,,,,,,,,,,,,,,,,,,,,,,,,,,,,,,,,,,,,,,,,,,,,,,,,,,,,,,,,,,,,,,,,,,,,,,,,,10,4,2,2024-10-20_09h07.37.475,uWM_experiment,2022.2.3,60.01021374
,,,,,,,,,,,,,,,,,,,,,,,,,,,,,,,,,,,,,,,,,,,,,,,,,,,,,,,,,,,,,,,,,,,,,,,,,,,,,,,,,,,,,,,,,,,,,609.361063,609.361063,space,2.1348456,,,,,,,,,,,,,,,,,,,,,,,,,,,,,,,,,,,,,,,,,,,,,,,,,,,,,,,,,,,,,,,,10,4,2,2024-10-20_09h07.37.475,uWM_experiment,2022.2.3,60.01021374
,,,,,,,,,,,,,,,,0,0,0,0,,,,,,,,,,,,,,,,,,,,,,,,,,,,,,,,,,,,,,,,,,,,,,,,,,,,,,,,,,,,,,,,,,,,,,,,,,,,,,0.062173129,right,0,70,-30,40,1,617.161409,617.161409,617.161409,None,None,4,0,0.7664243,,,,,,,,,,,,,,,,,,,,,,,,,,,,,,,,,,,,,,,,,,,,,,,,,10,4,2,2024-10-20_09h07.37.475,uWM_experiment,2022.2.3,60.01021374
,,,,,,,,,,,,,,,,1,0,1,0,,,,,,,,,,,,,,,,,,,,,,,,,,,,,,,,,,,,,,,,,,,,,,,,,,,,,,,,,,,,,,,,,,,,,,,,,,,,,,0.1,left,1,10,-30,-20,2,623.6116426,623.6116426,623.6116426,None,None,4,0,0.4281185,0,,,,,,,,,,,,,,,,,,,,,,,,,,,,,,,,,,,,,,,,,,,,,,,,10,4,2,2024-10-20_09h07.37.475,uWM_experiment,2022.2.3,60.01021374
,,,,,,,,,,,,,,,,2,0,2,0,,,,,,,,,,,,,,,,,,,,,,,,,,,,,,,,,,,,,,,,,,,,,,,,,,,,,,,,,,,,,,,,,,,,,,,,,,,,,,0.1,right,1,40,30,70,2,629.6118455,629.6118455,629.6118455,None,None,4,0,0.4758914,0,,,,,,,,,,,,,,,,,,,,,,,,,,,,,,,,,,,,,,,,,,,,,,,,10,4,2,2024-10-20_09h07.37.475,uWM_experiment,2022.2.3,60.01021374
,,,,,,,,,,,,,,,,3,0,3,0,,,,,,,,,,,,,,,,,,,,,,,,,,,,,,,,,,,,,,,,,,,,,,,,,,,,,,,,,,,,,,,,,,,,,,,,,,,,,,0.052173129,left,1,100,-30,70,1,636.6121339,636.6121339,636.6121339,None,None,2,0,0.2915738,0,,,,,,,,,,,,,,,,,,,,,,,,,,,,,,,,,,,,,,,,,,,,,,,,10,4,2,2024-10-20_09h07.37.475,uWM_experiment,2022.2.3,60.01021374
,,,,,,,,,,,,,,,,4,0,4,0,,,,,,,,,,,,,,,,,,,,,,,,,,,,,,,,,,,,,,,,,,,,,,,,,,,,,,,,,,,,,,,,,,,,,,,,,,,,,,0.1,right,1,130,30,160,2,642.79575,642.79575,642.79575,None,None,2,0,1.1878267,0,,,,,,,,,,,,,,,,,,,,,,,,,,,,,,,,,,,,,,,,,,,,,,,,10,4,2,2024-10-20_09h07.37.475,uWM_experiment,2022.2.3,60.01021374
,,,,,,,,,,,,,,,,5,0,5,0,,,,,,,,,,,,,,,,,,,,,,,,,,,,,,,,,,,,,,,,,,,,,,,,,,,,,,,,,,,,,,,,,,,,,,,,,,,,,,0.042173129,left,0,160,30,190,1,650.146005,650.146005,650.146005,None,None,1,1,0.357684,0,,,,,,,,,,,,,,,,,,,,,,,,,,,,,,,,,,,,,,,,,,,,,,,,10,4,2,2024-10-20_09h07.37.475,uWM_experiment,2022.2.3,60.01021374
,,,,,,,,,,,,,,,,,,,,,,,,,,,,,,,,,,,,,,,,,,,,,,,,,,,,,,,,,,,,,,,,,,,,,,,,,,,,,,,,,,,,,,,,,,,,,,,,,,,,,,,,,,,,,,,,,650.5293434,651.5127171,space,0.8469595,,,,,,,,,,,,,,,,,,,,,,,,,,,,,,,,,,,,,,,,,,,,10,4,2,2024-10-20_09h07.37.475,uWM_experiment,2022.2.3,60.01021374
,,,,,,,,,,,,,,,,,,,,0,0,0,0,0,0,0,0,,,,,,,,,,,,,,,,,,,,,,,,,,,,,,,,,,,,,,,,,,,,,,,,,,,,,,,,,,,,,,,,,,,,,,0.042173129,,,,,,,,,,,,,,,,,,,,652.379429,653.0794633,653.3627991,654.0628182,654.3628409,655.062864,655.062864,655.4128893,left,1,130,-30,100,1,660.1797458,660.1797458,660.1797458,None,None,1,1,0.3477687,,,,,,,,,,,,,,,,,,,,,,10,4,2,2024-10-20_09h07.37.475,uWM_experiment,2022.2.3,60.01021374
,,,,,,,,,,,,,,,,,,,,0,0,0,0,1,0,1,0,,,,,,,,,,,,,,,,,,,,,,,,,,,,,,,,,,,,,,,,,,,,,,,,,,,,,,,,,,,,,,,,,,,,,,0.052173129,,,,,,,,,,,,,,,,,,,,,,,,,,,,left,0,70,30,100,1,666.2633285,666.2633285,666.2633285,None,None,2,0,0.2241681,,,,,,,,,,,,,,,,,,,,,,10,4,2,2024-10-20_09h07.37.475,uWM_experiment,2022.2.3,60.01021374
,,,,,,,,,,,,,,,,,,,,0,0,0,0,2,0,2,0,,,,,,,,,,,,,,,,,,,,,,,,,,,,,,,,,,,,,,,,,,,,,,,,,,,,,,,,,,,,,,,,,,,,,,0,,,,,,,,,,,,,,,,,,,,,,,,,,,,right,1,130,30,160,0,671.6802036,671.6802036,671.6802036,None,None,1,1,0.2392861,,,,,,,,,,,,,,,,,,,,,,10,4,2,2024-10-20_09h07.37.475,uWM_experiment,2022.2.3,60.01021374
,,,,,,,,,,,,,,,,,,,,0,0,0,0,3,0,3,0,,,,,,,,,,,,,,,,,,,,,,,,,,,,,,,,,,,,,,,,,,,,,,,,,,,,,,,,,,,,,,,,,,,,,,0.042173129,,,,,,,,,,,,,,,,,,,,,,,,,,,,left,1,100,-30,70,1,677.1971054,677.1971054,677.1971054,None,None,1,1,0.8023122,,,,,,,,,,,,,,,,,,,,,,10,4,2,2024-10-20_09h07.37.475,uWM_experiment,2022.2.3,60.01021374
,,,,,,,,,,,,,,,,,,,,0,0,0,0,4,0,4,0,,,,,,,,,,,,,,,,,,,,,,,,,,,,,,,,,,,,,,,,,,,,,,,,,,,,,,,,,,,,,,,,,,,,,,0.052173129,,,,,,,,,,,,,,,,,,,,,,,,,,,,left,1,10,-30,-20,1,683.7306736,683.7306736,683.7306736,None,None,1,1,0.3007202,,,,,,,,,,,,,,,,,,,,,,10,4,2,2024-10-20_09h07.37.475,uWM_experiment,2022.2.3,60.01021374
,,,,,,,,,,,,,,,,,,,,0,0,0,0,5,0,5,0,,,,,,,,,,,,,,,,,,,,,,,,,,,,,,,,,,,,,,,,,,,,,,,,,,,,,,,,,,,,,,,,,,,,,,0.062173129,,,,,,,,,,,,,,,,,,,,,,,,,,,,left,1,160,-30,130,1,689.7308925,689.7308925,689.7308925,None,None,1,1,0.7246017,,,,,,,,,,,,,,,,,,,,,,10,4,2,2024-10-20_09h07.37.475,uWM_experiment,2022.2.3,60.01021374
,,,,,,,,,,,,,,,,,,,,0,0,0,0,6,0,6,0,,,,,,,,,,,,,,,,,,,,,,,,,,,,,,,,,,,,,,,,,,,,,,,,,,,,,,,,,,,,,,,,,,,,,,0.072173129,,,,,,,,,,,,,,,,,,,,,,,,,,,,right,1,130,30,160,1,696.1811547,696.1811547,696.1811547,None,None,1,1,0.4903332,,,,,,,,,,,,,,,,,,,,,,10,4,2,2024-10-20_09h07.37.475,uWM_experiment,2022.2.3,60.01021374
,,,,,,,,,,,,,,,,,,,,0,0,0,0,7,0,7,0,,,,,,,,,,,,,,,,,,,,,,,,,,,,,,,,,,,,,,,,,,,,,,,,,,,,,,,,,,,,,,,,,,,,,,0.082173129,,,,,,,,,,,,,,,,,,,,,,,,,,,,left,1,70,-30,40,1,702.5647694,702.5647694,702.5647694,None,None,1,1,0.4826661,,,,,,,,,,,,,,,,,,,,,,10,4,2,2024-10-20_09h07.37.475,uWM_experiment,2022.2.3,60.01021374
,,,,,,,,,,,,,,,,,,,,0,0,0,0,8,0,8,0,,,,,,,,,,,,,,,,,,,,,,,,,,,,,,,,,,,,,,,,,,,,,,,,,,,,,,,,,,,,,,,,,,,,,,0,,,,,,,,,,,,,,,,,,,,,,,,,,,,right,1,130,30,160,0,708.1316632,708.1316632,708.1316632,None,None,1,1,0.4596907,,,,,,,,,,,,,,,,,,,,,,10,4,2,2024-10-20_09h07.37.475,uWM_experiment,2022.2.3,60.01021374
,,,,,,,,,,,,,,,,,,,,0,0,0,0,9,0,9,0,,,,,,,,,,,,,,,,,,,,,,,,,,,,,,,,,,,,,,,,,,,,,,,,,,,,,,,,,,,,,,,,,,,,,,0.092173129,,,,,,,,,,,,,,,,,,,,,,,,,,,,right,1,160,30,190,1,714.065205,714.065205,714.065205,None,None,2,0,0.3581694,,,,,,,,,,,,,,,,,,,,,,10,4,2,2024-10-20_09h07.37.475,uWM_experiment,2022.2.3,60.01021374
,,,,,,,,,,,,,,,,,,,,0,0,0,0,10,0,10,0,,,,,,,,,,,,,,,,,,,,,,,,,,,,,,,,,,,,,,,,,,,,,,,,,,,,,,,,,,,,,,,,,,,,,,0.082173129,,,,,,,,,,,,,,,,,,,,,,,,,,,,left,1,10,-30,-20,1,719.9987854,719.9987854,719.9987854,None,None,2,0,0.8805166,,,,,,,,,,,,,,,,,,,,,,10,4,2,2024-10-20_09h07.37.475,uWM_experiment,2022.2.3,60.01021374
,,,,,,,,,,,,,,,,,,,,0,0,0,0,11,0,11,0,,,,,,,,,,,,,,,,,,,,,,,,,,,,,,,,,,,,,,,,,,,,,,,,,,,,,,,,,,,,,,,,,,,,,,0.072173129,,,,,,,,,,,,,,,,,,,,,,,,,,,,right,1,10,30,40,1,726.5323667,726.5323667,726.5323667,None,None,2,0,0.7867999,,,,,,,,,,,,,,,,,,,,,,10,4,2,2024-10-20_09h07.37.475,uWM_experiment,2022.2.3,60.01021374
,,,,,,,,,,,,,,,,,,,,0,0,0,0,12,0,12,0,,,,,,,,,,,,,,,,,,,,,,,,,,,,,,,,,,,,,,,,,,,,,,,,,,,,,,,,,,,,,,,,,,,,,,0,,,,,,,,,,,,,,,,,,,,,,,,,,,,left,1,70,-30,40,0,733.2326334,733.2326334,733.2326334,None,None,1,1,0.9426633,,,,,,,,,,,,,,,,,,,,,,10,4,2,2024-10-20_09h07.37.475,uWM_experiment,2022.2.3,60.01021374
,,,,,,,,,,,,,,,,,,,,0,0,0,0,13,0,13,0,,,,,,,,,,,,,,,,,,,,,,,,,,,,,,,,,,,,,,,,,,,,,,,,,,,,,,,,,,,,,,,,,,,,,,0.062173129,,,,,,,,,,,,,,,,,,,,,,,,,,,,left,0,100,30,130,1,739.749606,739.749606,739.749606,None,None,1,1,0.3855215,,,,,,,,,,,,,,,,,,,,,,10,4,2,2024-10-20_09h07.37.475,uWM_experiment,2022.2.3,60.01021374
,,,,,,,,,,,,,,,,,,,,0,0,0,0,14,0,14,0,,,,,,,,,,,,,,,,,,,,,,,,,,,,,,,,,,,,,,,,,,,,,,,,,,,,,,,,,,,,,,,,,,,,,,0.072173129,,,,,,,,,,,,,,,,,,,,,,,,,,,,left,0,100,30,130,1,745.833144,745.833144,745.833144,None,None,1,1,0.4141889,,,,,,,,,,,,,,,,,,,,,,10,4,2,2024-10-20_09h07.37.475,uWM_experiment,2022.2.3,60.01021374
,,,,,,,,,,,,,,,,,,,,0,0,0,0,15,0,15,0,,,,,,,,,,,,,,,,,,,,,,,,,,,,,,,,,,,,,,,,,,,,,,,,,,,,,,,,,,,,,,,,,,,,,,0.082173129,,,,,,,,,,,,,,,,,,,,,,,,,,,,left,0,40,30,70,1,753.0001056,753.0001056,753.0001056,None,None,1,1,0.3830465,,,,,,,,,,,,,,,,,,,,,,10,4,2,2024-10-20_09h07.37.475,uWM_experiment,2022.2.3,60.01021374
,,,,,,,,,,,,,,,,,,,,0,0,0,0,16,0,16,0,,,,,,,,,,,,,,,,,,,,,,,,,,,,,,,,,,,,,,,,,,,,,,,,,,,,,,,,,,,,,,,,,,,,,,0.092173129,,,,,,,,,,,,,,,,,,,,,,,,,,,,left,1,10,-30,-20,1,759.0336541,759.0336541,759.0336541,None,None,1,1,0.317414,,,,,,,,,,,,,,,,,,,,,,10,4,2,2024-10-20_09h07.37.475,uWM_experiment,2022.2.3,60.01021374
,,,,,,,,,,,,,,,,,,,,0,0,0,0,17,0,17,0,,,,,,,,,,,,,,,,,,,,,,,,,,,,,,,,,,,,,,,,,,,,,,,,,,,,,,,,,,,,,,,,,,,,,,0.102173129,,,,,,,,,,,,,,,,,,,,,,,,,,,,right,0,100,-30,70,1,764.9339003,764.9339003,764.9339003,None,None,1,1,0.3131432,,,,,,,,,,,,,,,,,,,,,,10,4,2,2024-10-20_09h07.37.475,uWM_experiment,2022.2.3,60.01021374
,,,,,,,,,,,,,,,,,,,,0,0,0,0,18,0,18,0,,,,,,,,,,,,,,,,,,,,,,,,,,,,,,,,,,,,,,,,,,,,,,,,,,,,,,,,,,,,,,,,,,,,,,0.112173129,,,,,,,,,,,,,,,,,,,,,,,,,,,,left,0,130,30,160,1,770.9341274,770.9341274,770.9341274,None,None,1,1,0.4329251,,,,,,,,,,,,,,,,,,,,,,10,4,2,2024-10-20_09h07.37.475,uWM_experiment,2022.2.3,60.01021374
,,,,,,,,,,,,,,,,,,,,0,0,0,0,19,0,19,0,,,,,,,,,,,,,,,,,,,,,,,,,,,,,,,,,,,,,,,,,,,,,,,,,,,,,,,,,,,,,,,,,,,,,,0.122173129,,,,,,,,,,,,,,,,,,,,,,,,,,,,right,1,130,30,160,1,777.2677323,777.2677323,777.2677323,None,None,2,0,0.5233544,,,,,,,,,,,,,,,,,,,,,,10,4,2,2024-10-20_09h07.37.475,uWM_experiment,2022.2.3,60.01021374
,,,,,,,,,,,,,,,,,,,,0,0,0,0,20,0,20,0,,,,,,,,,,,,,,,,,,,,,,,,,,,,,,,,,,,,,,,,,,,,,,,,,,,,,,,,,,,,,,,,,,,,,,0.112173129,,,,,,,,,,,,,,,,,,,,,,,,,,,,right,0,100,-30,70,1,783.3512836,783.3512836,783.3512836,None,None,2,0,0.3117174,,,,,,,,,,,,,,,,,,,,,,10,4,2,2024-10-20_09h07.37.475,uWM_experiment,2022.2.3,60.01021374
,,,,,,,,,,,,,,,,,,,,0,0,0,0,21,0,21,0,,,,,,,,,,,,,,,,,,,,,,,,,,,,,,,,,,,,,,,,,,,,,,,,,,,,,,,,,,,,,,,,,,,,,,0.102173129,,,,,,,,,,,,,,,,,,,,,,,,,,,,right,0,100,-30,70,1,789.234876,789.234876,789.234876,None,None,2,0,0.2760836,,,,,,,,,,,,,,,,,,,,,,10,4,2,2024-10-20_09h07.37.475,uWM_experiment,2022.2.3,60.01021374
,,,,,,,,,,,,,,,,,,,,0,0,0,0,22,0,22,0,,,,,,,,,,,,,,,,,,,,,,,,,,,,,,,,,,,,,,,,,,,,,,,,,,,,,,,,,,,,,,,,,,,,,,0.1,,,,,,,,,,,,,,,,,,,,,,,,,,,,left,1,40,-30,10,2,795.651783,795.651783,795.651783,None,None,2,0,0.2671228,,,,,,,,,,,,,,,,,,,,,,10,4,2,2024-10-20_09h07.37.475,uWM_experiment,2022.2.3,60.01021374
,,,,,,,,,,,,,,,,,,,,0,0,0,0,23,0,23,0,,,,,,,,,,,,,,,,,,,,,,,,,,,,,,,,,,,,,,,,,,,,,,,,,,,,,,,,,,,,,,,,,,,,,,0,,,,,,,,,,,,,,,,,,,,,,,,,,,,left,1,130,-30,100,0,801.7187051,801.7187051,801.7187051,None,None,2,0,0.6322313,,,,,,,,,,,,,,,,,,,,,,10,4,2,2024-10-20_09h07.37.475,uWM_experiment,2022.2.3,60.01021374
,,,,,,,,,,,,,,,,,,,,0,0,0,0,,,,,0,0,0,0,,,,,,,,,,,,,,,,,,,,,,,,,,,,,,,,,,,,,,,,,,,,,,,,,,,,,,,,,,,,,,,,,,,,,,,,,,,,,,,,,,,,,,,,,,,,,,,,,,,,,,,,,,,,802.3686794,802.3686794,space,20.0062219,None,None,,,,,,,,,,,,,,,,10,4,2,2024-10-20_09h07.37.475,uWM_experiment,2022.2.3,60.01021374
,,,,,,,,,,,,,,,,,,,,0,0,0,0,,,,,1,0,1,0,,,,,,,,,,,,,,,,,,,,,,,,,,,,,,,,,,,,,,,,,,,,,,,,,,,,,,,,,,,,,,,,,,,,,,,,,,,,,,,,,,,,,,,,,,,,,,,,,,,,,,,,,,,,,,,,,,,,,,,,,,,,,,,,,10,4,2,2024-10-20_09h07.37.475,uWM_experiment,2022.2.3,60.01021374
,,,,,,,,,,,,,,,,,,,,0,0,0,0,,,,,2,0,2,0,,,,,,,,,,,,,,,,,,,,,,,,,,,,,,,,,,,,,,,,,,,,,,,,,,,,,,,,,,,,,,,,,,,,,,,,,,,,,,,,,,,,,,,,,,,,,,,,,,,,,,,,,,,,,,,,,,,,,,,,,,,,,,,,,10,4,2,2024-10-20_09h07.37.475,uWM_experiment,2022.2.3,60.01021374
,,,,,,,,,,,,,,,,,,,,1,0,1,0,0,0,0,0,,,,,,,,,,,,,,,,,,,,,,,,,,,,,,,,,,,,,,,,,,,,,,,,,,,,,,,,,,,,,,,,,,,,,,0.092173129,,,,,,,,,,,,,,,,,,,,822.402836,823.1028583,823.4028729,824.1028804,824.4029092,825.1029375,825.1029375,825.4196264,left,0,100,30,130,1,830.5031514,830.5031514,830.5031514,None,None,2,0,0.5837025,,,,,,,None,,,,,,,,,,,,,,,10,4,2,2024-10-20_09h07.37.475,uWM_experiment,2022.2.3,60.01021374
,,,,,,,,,,,,,,,,,,,,1,0,1,0,1,0,1,0,,,,,,,,,,,,,,,,,,,,,,,,,,,,,,,,,,,,,,,,,,,,,,,,,,,,,,,,,,,,,,,,,,,,,,0.082173129,,,,,,,,,,,,,,,,,,,,,,,,,,,,right,1,130,30,160,1,837.320107,837.320107,837.320107,None,None,2,0,0.5266687,,,,,,,,,,,,,,,,,,,,,,10,4,2,2024-10-20_09h07.37.475,uWM_experiment,2022.2.3,60.01021374
,,,,,,,,,,,,,,,,,,,,1,0,1,0,2,0,2,0,,,,,,,,,,,,,,,,,,,,,,,,,,,,,,,,,,,,,,,,,,,,,,,,,,,,,,,,,,,,,,,,,,,,,,0.072173129,,,,,,,,,,,,,,,,,,,,,,,,,,,,right,1,160,30,190,1,843.2036686,843.2036686,843.2036686,None,None,2,0,0.2270507,,,,,,,,,,,,,,,,,,,,,,10,4,2,2024-10-20_09h07.37.475,uWM_experiment,2022.2.3,60.01021374
,,,,,,,,,,,,,,,,,,,,1,0,1,0,3,0,3,0,,,,,,,,,,,,,,,,,,,,,,,,,,,,,,,,,,,,,,,,,,,,,,,,,,,,,,,,,,,,,,,,,,,,,,0.062173129,,,,,,,,,,,,,,,,,,,,,,,,,,,,left,0,100,30,130,1,848.5372203,848.5372203,848.5372203,None,None,1,1,0.9974438,,,,,,,,,,,,,,,,,,,,,,10,4,2,2024-10-20_09h07.37.475,uWM_experiment,2022.2.3,60.01021374
,,,,,,,,,,,,,,,,,,,,1,0,1,0,4,0,4,0,,,,,,,,,,,,,,,,,,,,,,,,,,,,,,,,,,,,,,,,,,,,,,,,,,,,,,,,,,,,,,,,,,,,,,0,,,,,,,,,,,,,,,,,,,,,,,,,,,,left,0,70,30,100,0,855.2708091,855.2708091,855.2708091,None,None,1,1,0.2558096,,,,,,,,,,,,,,,,,,,,,,10,4,2,2024-10-20_09h07.37.475,uWM_experiment,2022.2.3,60.01021374
,,,,,,,,,,,,,,,,,,,,1,0,1,0,5,0,5,0,,,,,,,,,,,,,,,,,,,,,,,,,,,,,,,,,,,,,,,,,,,,,,,,,,,,,,,,,,,,,,,,,,,,,,0.072173129,,,,,,,,,,,,,,,,,,,,,,,,,,,,right,1,160,30,190,1,861.0376991,861.0376991,861.0376991,None,None,2,0,0.2888692,,,,,,,,,,,,,,,,,,,,,,10,4,2,2024-10-20_09h07.37.475,uWM_experiment,2022.2.3,60.01021374
,,,,,,,,,,,,,,,,,,,,1,0,1,0,6,0,6,0,,,,,,,,,,,,,,,,,,,,,,,,,,,,,,,,,,,,,,,,,,,,,,,,,,,,,,,,,,,,,,,,,,,,,,0.1,,,,,,,,,,,,,,,,,,,,,,,,,,,,left,0,130,30,160,2,866.7712729,866.7712729,866.7712729,None,None,2,0,0.7314171,,,,,,,,,,,,,,,,,,,,,,10,4,2,2024-10-20_09h07.37.475,uWM_experiment,2022.2.3,60.01021374
,,,,,,,,,,,,,,,,,,,,1,0,1,0,7,0,7,0,,,,,,,,,,,,,,,,,,,,,,,,,,,,,,,,,,,,,,,,,,,,,,,,,,,,,,,,,,,,,,,,,,,,,,0.062173129,,,,,,,,,,,,,,,,,,,,,,,,,,,,right,0,100,-30,70,1,872.988187,872.988187,872.988187,None,None,2,0,0.2824154,,,,,,,,,,,,,,,,,,,,,,10,4,2,2024-10-20_09h07.37.475,uWM_experiment,2022.2.3,60.01021374
,,,,,,,,,,,,,,,,,,,,1,0,1,0,8,0,8,0,,,,,,,,,,,,,,,,,,,,,,,,,,,,,,,,,,,,,,,,,,,,,,,,,,,,,,,,,,,,,,,,,,,,,,0,,,,,,,,,,,,,,,,,,,,,,,,,,,,left,0,70,30,100,0,878.7050727,878.7050727,878.7050727,None,None,2,0,0.2693788,,,,,,,,,,,,,,,,,,,,,,10,4,2,2024-10-20_09h07.37.475,uWM_experiment,2022.2.3,60.01021374
,,,,,,,,,,,,,,,,,,,,1,0,1,0,9,0,9,0,,,,,,,,,,,,,,,,,,,,,,,,,,,,,,,,,,,,,,,,,,,,,,,,,,,,,,,,,,,,,,,,,,,,,,0,,,,,,,,,,,,,,,,,,,,,,,,,,,,left,0,100,30,130,0,884.4719752,884.4719752,884.4719752,None,None,2,0,0.2704886,,,,,,,,,,,,,,,,,,,,,,10,4,2,2024-10-20_09h07.37.475,uWM_experiment,2022.2.3,60.01021374
,,,,,,,,,,,,,,,,,,,,1,0,1,0,10,0,10,0,,,,,,,,,,,,,,,,,,,,,,,,,,,,,,,,,,,,,,,,,,,,,,,,,,,,,,,,,,,,,,,,,,,,,,0.052173129,,,,,,,,,,,,,,,,,,,,,,,,,,,,right,0,40,-30,10,1,889.855516,889.855516,889.855516,None,None,2,0,0.215097,,,,,,,,,,,,,,,,,,,,,,10,4,2,2024-10-20_09h07.37.475,uWM_experiment,2022.2.3,60.01021374
,,,,,,,,,,,,,,,,,,,,1,0,1,0,11,0,11,0,,,,,,,,,,,,,,,,,,,,,,,,,,,,,,,,,,,,,,,,,,,,,,,,,,,,,,,,,,,,,,,,,,,,,,0.042173129,,,,,,,,,,,,,,,,,,,,,,,,,,,,left,1,130,-30,100,1,896.7391331,896.7391331,896.7391331,None,None,1,1,0.7233267,,,,,,,,,,,,,,,,,,,,,,10,4,2,2024-10-20_09h07.37.475,uWM_experiment,2022.2.3,60.01021374
,,,,,,,,,,,,,,,,,,,,1,0,1,0,12,0,12,0,,,,,,,,,,,,,,,,,,,,,,,,,,,,,,,,,,,,,,,,,,,,,,,,,,,,,,,,,,,,,,,,,,,,,,0,,,,,,,,,,,,,,,,,,,,,,,,,,,,left,1,10,-30,-20,0,902.8226977,902.8226977,902.8226977,None,None,1,1,0.4158148,,,,,,,,,,,,,,,,,,,,,,10,4,2,2024-10-20_09h07.37.475,uWM_experiment,2022.2.3,60.01021374
,,,,,,,,,,,,,,,,,,,,1,0,1,0,13,0,13,0,,,,,,,,,,,,,,,,,,,,,,,,,,,,,,,,,,,,,,,,,,,,,,,,,,,,,,,,,,,,,,,,,,,,,,0.052173129,,,,,,,,,,,,,,,,,,,,,,,,,,,,left,1,100,-30,70,1,908.8895824,908.8895824,908.8895824,None,None,1,1,0.2447639,,,,,,,,,,,,,,,,,,,,,,10,4,2,2024-10-20_09h07.37.475,uWM_experiment,2022.2.3,60.01021374
,,,,,,,,,,,,,,,,,,,,1,0,1,0,14,0,14,0,,,,,,,,,,,,,,,,,,,,,,,,,,,,,,,,,,,,,,,,,,,,,,,,,,,,,,,,,,,,,,,,,,,,,,0,,,,,,,,,,,,,,,,,,,,,,,,,,,,left,0,160,30,190,0,914.6398119,914.6398119,914.6398119,None,None,1,1,0.2705219,,,,,,,,,,,,,,,,,,,,,,10,4,2,2024-10-20_09h07.37.475,uWM_experiment,2022.2.3,60.01021374
,,,,,,,,,,,,,,,,,,,,1,0,1,0,15,0,15,0,,,,,,,,,,,,,,,,,,,,,,,,,,,,,,,,,,,,,,,,,,,,,,,,,,,,,,,,,,,,,,,,,,,,,,0,,,,,,,,,,,,,,,,,,,,,,,,,,,,left,1,100,-30,70,0,920.5734286,920.5734286,920.5734286,None,None,1,1,0.3289632,,,,,,,,,,,,,,,,,,,,,,10,4,2,2024-10-20_09h07.37.475,uWM_experiment,2022.2.3,60.01021374
,,,,,,,,,,,,,,,,,,,,1,0,1,0,16,0,16,0,,,,,,,,,,,,,,,,,,,,,,,,,,,,,,,,,,,,,,,,,,,,,,,,,,,,,,,,,,,,,,,,,,,,,,0.062173129,,,,,,,,,,,,,,,,,,,,,,,,,,,,left,0,160,30,190,1,926.0235954,926.0235954,926.0235954,None,None,1,1,0.2227563,,,,,,,,,,,,,,,,,,,,,,10,4,2,2024-10-20_09h07.37.475,uWM_experiment,2022.2.3,60.01021374
,,,,,,,,,,,,,,,,,,,,1,0,1,0,17,0,17,0,,,,,,,,,,,,,,,,,,,,,,,,,,,,,,,,,,,,,,,,,,,,,,,,,,,,,,,,,,,,,,,,,,,,,,0.072173129,,,,,,,,,,,,,,,,,,,,,,,,,,,,left,1,130,-30,100,1,932.1405247,932.1405247,932.1405247,None,None,1,1,0.32174,,,,,,,,,,,,,,,,,,,,,,10,4,2,2024-10-20_09h07.37.475,uWM_experiment,2022.2.3,60.01021374
,,,,,,,,,,,,,,,,,,,,1,0,1,0,18,0,18,0,,,,,,,,,,,,,,,,,,,,,,,,,,,,,,,,,,,,,,,,,,,,,,,,,,,,,,,,,,,,,,,,,,,,,,0.082173129,,,,,,,,,,,,,,,,,,,,,,,,,,,,left,0,70,30,100,1,937.9574253,937.9574253,937.9574253,None,None,1,1,0.3768676,,,,,,,,,,,,,,,,,,,,,,10,4,2,2024-10-20_09h07.37.475,uWM_experiment,2022.2.3,60.01021374
,,,,,,,,,,,,,,,,,,,,1,0,1,0,19,0,19,0,,,,,,,,,,,,,,,,,,,,,,,,,,,,,,,,,,,,,,,,,,,,,,,,,,,,,,,,,,,,,,,,,,,,,,0.092173129,,,,,,,,,,,,,,,,,,,,,,,,,,,,left,1,40,-30,10,1,944.0576525,944.0576525,944.0576525,None,None,2,0,0.2845698,,,,,,,,,,,,,,,,,,,,,,10,4,2,2024-10-20_09h07.37.475,uWM_experiment,2022.2.3,60.01021374
,,,,,,,,,,,,,,,,,,,,1,0,1,0,20,0,20,0,,,,,,,,,,,,,,,,,,,,,,,,,,,,,,,,,,,,,,,,,,,,,,,,,,,,,,,,,,,,,,,,,,,,,,0,,,,,,,,,,,,,,,,,,,,,,,,,,,,left,0,100,30,130,0,950.0745575,950.0745575,950.0745575,None,None,1,1,0.3317264,,,,,,,,,,,,,,,,,,,,,,10,4,2,2024-10-20_09h07.37.475,uWM_experiment,2022.2.3,60.01021374
,,,,,,,,,,,,,,,,,,,,1,0,1,0,21,0,21,0,,,,,,,,,,,,,,,,,,,,,,,,,,,,,,,,,,,,,,,,,,,,,,,,,,,,,,,,,,,,,,,,,,,,,,0.082173129,,,,,,,,,,,,,,,,,,,,,,,,,,,,left,0,70,30,100,1,955.9914636,955.9914636,955.9914636,None,None,1,1,0.3026484,,,,,,,,,,,,,,,,,,,,,,10,4,2,2024-10-20_09h07.37.475,uWM_experiment,2022.2.3,60.01021374
,,,,,,,,,,,,,,,,,,,,1,0,1,0,22,0,22,0,,,,,,,,,,,,,,,,,,,,,,,,,,,,,,,,,,,,,,,,,,,,,,,,,,,,,,,,,,,,,,,,,,,,,,0.092173129,,,,,,,,,,,,,,,,,,,,,,,,,,,,right,0,100,-30,70,1,961.7416908,961.7416908,961.7416908,None,None,1,1,0.2564981,,,,,,,,,,,,,,,,,,,,,,10,4,2,2024-10-20_09h07.37.475,uWM_experiment,2022.2.3,60.01021374
,,,,,,,,,,,,,,,,,,,,1,0,1,0,23,0,23,0,,,,,,,,,,,,,,,,,,,,,,,,,,,,,,,,,,,,,,,,,,,,,,,,,,,,,,,,,,,,,,,,,,,,,,0,,,,,,,,,,,,,,,,,,,,,,,,,,,,left,0,130,30,160,0,967.4585972,967.4585972,967.4585972,None,None,1,1,0.6994995,,,,,,,,,,,,,,,,,,,,,,10,4,2,2024-10-20_09h07.37.475,uWM_experiment,2022.2.3,60.01021374
,,,,,,,,,,,,,,,,,,,,1,0,1,0,,,,,0,0,0,0,,,,,,,,,,,,,,,,,,,,,,,,,,,,,,,,,,,,,,,,,,,,,,,,,,,,,,,,,,,,,,,,,,,,,,,,,,,,,,,,,,,,,,,,,,,,,,,,,,,,,,,,,,,,968.1752554,968.1752554,space,0.7669922,None,None,,,,,,,,,,,,,,,,10,4,2,2024-10-20_09h07.37.475,uWM_experiment,2022.2.3,60.01021374
,,,,,,,,,,,,,,,,,,,,1,0,1,0,,,,,1,0,1,0,,,,,,,,,,,,,,,,,,,,,,,,,,,,,,,,,,,,,,,,,,,,,,,,,,,,,,,,,,,,,,,,,,,,,,,,,,,,,,,,,,,,,,,,,,,,,,,,,,,,,,,,,,,,,,,,,,,,,,,,,,,,,,,,,10,4,2,2024-10-20_09h07.37.475,uWM_experiment,2022.2.3,60.01021374
,,,,,,,,,,,,,,,,,,,,1,0,1,0,,,,,2,0,2,0,,,,,,,,,,,,,,,,,,,,,,,,,,,,,,,,,,,,,,,,,,,,,,,,,,,,,,,,,,,,,,,,,,,,,,,,,,,,,,,,,,,,,,,,,,,,,,,,,,,,,,,,,,,,,,,,,,,,,,,,,,,,,,,,,10,4,2,2024-10-20_09h07.37.475,uWM_experiment,2022.2.3,60.01021374
,,,,,,,,,,,,,,,,,,,,2,0,2,0,0,0,0,0,,,,,,,,,,,,,,,,,,,,,,,,,,,,,,,,,,,,,,,,,,,,,,,,,,,,,,,,,,,,,,,,,,,,,,0.102173129,,,,,,,,,,,,,,,,,,,,968.9753167,969.6753436,969.9753368,970.6753628,970.9753771,971.6754045,971.6754045,971.9920954,left,0,10,30,40,1,976.592261,976.592261,976.592261,None,None,1,1,0.2778982,,,,,,,None,,,,,,,,,,,,,,,10,4,2,2024-10-20_09h07.37.475,uWM_experiment,2022.2.3,60.01021374
,,,,,,,,,,,,,,,,,,,,2,0,2,0,1,0,1,0,,,,,,,,,,,,,,,,,,,,,,,,,,,,,,,,,,,,,,,,,,,,,,,,,,,,,,,,,,,,,,,,,,,,,,0.112173129,,,,,,,,,,,,,,,,,,,,,,,,,,,,left,0,100,30,130,1,982.4924803,982.4924803,982.4924803,None,None,1,1,0.3056274,,,,,,,,,,,,,,,,,,,,,,10,4,2,2024-10-20_09h07.37.475,uWM_experiment,2022.2.3,60.01021374
,,,,,,,,,,,,,,,,,,,,2,0,2,0,2,0,2,0,,,,,,,,,,,,,,,,,,,,,,,,,,,,,,,,,,,,,,,,,,,,,,,,,,,,,,,,,,,,,,,,,,,,,,0.122173129,,,,,,,,,,,,,,,,,,,,,,,,,,,,left,1,40,-30,10,1,988.4260564,988.4260564,988.4260564,None,None,1,1,0.3320246,,,,,,,,,,,,,,,,,,,,,,10,4,2,2024-10-20_09h07.37.475,uWM_experiment,2022.2.3,60.01021374
,,,,,,,,,,,,,,,,,,,,2,0,2,0,3,0,3,0,,,,,,,,,,,,,,,,,,,,,,,,,,,,,,,,,,,,,,,,,,,,,,,,,,,,,,,,,,,,,,,,,,,,,,0.132173129,,,,,,,,,,,,,,,,,,,,,,,,,,,,left,0,130,30,160,1,994.2262988,994.2262988,994.2262988,None,None,2,0,0.3397646,,,,,,,,,,,,,,,,,,,,,,10,4,2,2024-10-20_09h07.37.475,uWM_experiment,2022.2.3,60.01021374
,,,,,,,,,,,,,,,,,,,,2,0,2,0,4,0,4,0,,,,,,,,,,,,,,,,,,,,,,,,,,,,,,,,,,,,,,,,,,,,,,,,,,,,,,,,,,,,,,,,,,,,,,0.122173129,,,,,,,,,,,,,,,,,,,,,,,,,,,,left,0,130,30,160,1,1000.276565,1000.276565,1000.276565,None,None,1,1,0.7936196,,,,,,,,,,,,,,,,,,,,,,10,4,2,2024-10-20_09h07.37.475,uWM_experiment,2022.2.3,60.01021374
,,,,,,,,,,,,,,,,,,,,2,0,2,0,5,0,5,0,,,,,,,,,,,,,,,,,,,,,,,,,,,,,,,,,,,,,,,,,,,,,,,,,,,,,,,,,,,,,,,,,,,,,,0,,,,,,,,,,,,,,,,,,,,,,,,,,,,left,0,130,30,160,0,1006.676794,1006.676794,1006.676794,None,None,2,0,0.5531677,,,,,,,,,,,,,,,,,,,,,,10,4,2,2024-10-20_09h07.37.475,uWM_experiment,2022.2.3,60.01021374
,,,,,,,,,,,,,,,,,,,,2,0,2,0,6,0,6,0,,,,,,,,,,,,,,,,,,,,,,,,,,,,,,,,,,,,,,,,,,,,,,,,,,,,,,,,,,,,,,,,,,,,,,0.132173129,,,,,,,,,,,,,,,,,,,,,,,,,,,,right,1,40,30,70,1,1012.87703,1012.87703,1012.87703,None,None,1,1,0.3609346,,,,,,,,,,,,,,,,,,,,,,10,4,2,2024-10-20_09h07.37.475,uWM_experiment,2022.2.3,60.01021374
,,,,,,,,,,,,,,,,,,,,2,0,2,0,7,0,7,0,,,,,,,,,,,,,,,,,,,,,,,,,,,,,,,,,,,,,,,,,,,,,,,,,,,,,,,,,,,,,,,,,,,,,,0.142173129,,,,,,,,,,,,,,,,,,,,,,,,,,,,left,0,70,30,100,1,1018.960618,1018.960618,1018.960618,None,None,2,0,1.1335108,,,,,,,,,,,,,,,,,,,,,,10,4,2,2024-10-20_09h07.37.475,uWM_experiment,2022.2.3,60.01021374
,,,,,,,,,,,,,,,,,,,,2,0,2,0,8,0,8,0,,,,,,,,,,,,,,,,,,,,,,,,,,,,,,,,,,,,,,,,,,,,,,,,,,,,,,,,,,,,,,,,,,,,,,0.132173129,,,,,,,,,,,,,,,,,,,,,,,,,,,,left,1,160,-30,130,1,1025.594218,1025.594218,1025.594218,None,None,2,0,0.5477456,,,,,,,,,,,,,,,,,,,,,,10,4,2,2024-10-20_09h07.37.475,uWM_experiment,2022.2.3,60.01021374
,,,,,,,,,,,,,,,,,,,,2,0,2,0,9,0,9,0,,,,,,,,,,,,,,,,,,,,,,,,,,,,,,,,,,,,,,,,,,,,,,,,,,,,,,,,,,,,,,,,,,,,,,0.122173129,,,,,,,,,,,,,,,,,,,,,,,,,,,,right,1,40,30,70,1,1031.777803,1031.777803,1031.777803,None,None,2,0,0.5961598,,,,,,,,,,,,,,,,,,,,,,10,4,2,2024-10-20_09h07.37.475,uWM_experiment,2022.2.3,60.01021374
,,,,,,,,,,,,,,,,,,,,2,0,2,0,10,0,10,0,,,,,,,,,,,,,,,,,,,,,,,,,,,,,,,,,,,,,,,,,,,,,,,,,,,,,,,,,,,,,,,,,,,,,,0,,,,,,,,,,,,,,,,,,,,,,,,,,,,left,0,100,30,130,0,1038.828084,1038.828084,1038.828084,None,None,2,0,0.465792,,,,,,,,,,,,,,,,,,,,,,10,4,2,2024-10-20_09h07.37.475,uWM_experiment,2022.2.3,60.01021374
,,,,,,,,,,,,,,,,,,,,2,0,2,0,11,0,11,0,,,,,,,,,,,,,,,,,,,,,,,,,,,,,,,,,,,,,,,,,,,,,,,,,,,,,,,,,,,,,,,,,,,,,,0.112173129,,,,,,,,,,,,,,,,,,,,,,,,,,,,left,1,160,-30,130,1,1044.828283,1044.828283,1044.828283,None,None,2,0,0.465572,,,,,,,,,,,,,,,,,,,,,,10,4,2,2024-10-20_09h07.37.475,uWM_experiment,2022.2.3,60.01021374
,,,,,,,,,,,,,,,,,,,,2,0,2,0,12,0,12,0,,,,,,,,,,,,,,,,,,,,,,,,,,,,,,,,,,,,,,,,,,,,,,,,,,,,,,,,,,,,,,,,,,,,,,0.102173129,,,,,,,,,,,,,,,,,,,,,,,,,,,,right,0,70,-30,40,1,1050.745219,1050.745219,1050.745219,None,None,2,0,0.364633,,,,,,,,,,,,,,,,,,,,,,10,4,2,2024-10-20_09h07.37.475,uWM_experiment,2022.2.3,60.01021374
,,,,,,,,,,,,,,,,,,,,2,0,2,0,13,0,13,0,,,,,,,,,,,,,,,,,,,,,,,,,,,,,,,,,,,,,,,,,,,,,,,,,,,,,,,,,,,,,,,,,,,,,,0,,,,,,,,,,,,,,,,,,,,,,,,,,,,left,0,160,30,190,0,1057.028783,1057.028783,1057.028783,None,None,2,0,0.344961,,,,,,,,,,,,,,,,,,,,,,10,4,2,2024-10-20_09h07.37.475,uWM_experiment,2022.2.3,60.01021374
,,,,,,,,,,,,,,,,,,,,2,0,2,0,14,0,14,0,,,,,,,,,,,,,,,,,,,,,,,,,,,,,,,,,,,,,,,,,,,,,,,,,,,,,,,,,,,,,,,,,,,,,,0.092173129,,,,,,,,,,,,,,,,,,,,,,,,,,,,left,1,160,-30,130,1,1063.095751,1063.095751,1063.095751,None,None,2,0,0.2779541,,,,,,,,,,,,,,,,,,,,,,10,4,2,2024-10-20_09h07.37.475,uWM_experiment,2022.2.3,60.01021374
,,,,,,,,,,,,,,,,,,,,2,0,2,0,15,0,15,0,,,,,,,,,,,,,,,,,,,,,,,,,,,,,,,,,,,,,,,,,,,,,,,,,,,,,,,,,,,,,,,,,,,,,,0.082173129,,,,,,,,,,,,,,,,,,,,,,,,,,,,left,1,10,-30,-20,1,1069.079271,1069.079271,1069.079271,None,None,2,0,0.3264548,,,,,,,,,,,,,,,,,,,,,,10,4,2,2024-10-20_09h07.37.475,uWM_experiment,2022.2.3,60.01021374
,,,,,,,,,,,,,,,,,,,,2,0,2,0,16,0,16,0,,,,,,,,,,,,,,,,,,,,,,,,,,,,,,,,,,,,,,,,,,,,,,,,,,,,,,,,,,,,,,,,,,,,,,0,,,,,,,,,,,,,,,,,,,,,,,,,,,,left,0,70,30,100,0,1075.31285,1075.31285,1075.31285,None,None,1,1,0.3727858,,,,,,,,,,,,,,,,,,,,,,10,4,2,2024-10-20_09h07.37.475,uWM_experiment,2022.2.3,60.01021374
,,,,,,,,,,,,,,,,,,,,2,0,2,0,17,0,17,0,,,,,,,,,,,,,,,,,,,,,,,,,,,,,,,,,,,,,,,,,,,,,,,,,,,,,,,,,,,,,,,,,,,,,,0.072173129,,,,,,,,,,,,,,,,,,,,,,,,,,,,right,1,40,30,70,1,1081.463079,1081.463079,1081.463079,None,None,1,1,0.3505239,,,,,,,,,,,,,,,,,,,,,,10,4,2,2024-10-20_09h07.37.475,uWM_experiment,2022.2.3,60.01021374
,,,,,,,,,,,,,,,,,,,,2,0,2,0,18,0,18,0,,,,,,,,,,,,,,,,,,,,,,,,,,,,,,,,,,,,,,,,,,,,,,,,,,,,,,,,,,,,,,,,,,,,,,0,,,,,,,,,,,,,,,,,,,,,,,,,,,,left,1,130,-30,100,0,1087.43,1087.43,1087.43,None,None,1,1,0.3916884,,,,,,,,,,,,,,,,,,,,,,10,4,2,2024-10-20_09h07.37.475,uWM_experiment,2022.2.3,60.01021374
,,,,,,,,,,,,,,,,,,,,2,0,2,0,19,0,19,0,,,,,,,,,,,,,,,,,,,,,,,,,,,,,,,,,,,,,,,,,,,,,,,,,,,,,,,,,,,,,,,,,,,,,,0.082173129,,,,,,,,,,,,,,,,,,,,,,,,,,,,left,1,40,-30,10,1,1093.496879,1093.496879,1093.496879,None,None,1,1,0.2526498,,,,,,,,,,,,,,,,,,,,,,10,4,2,2024-10-20_09h07.37.475,uWM_experiment,2022.2.3,60.01021374
,,,,,,,,,,,,,,,,,,,,2,0,2,0,20,0,20,0,,,,,,,,,,,,,,,,,,,,,,,,,,,,,,,,,,,,,,,,,,,,,,,,,,,,,,,,,,,,,,,,,,,,,,0.092173129,,,,,,,,,,,,,,,,,,,,,,,,,,,,left,0,70,30,100,1,1099.230499,1099.230499,1099.230499,None,None,2,0,0.6950971,,,,,,,,,,,,,,,,,,,,,,10,4,2,2024-10-20_09h07.37.475,uWM_experiment,2022.2.3,60.01021374
,,,,,,,,,,,,,,,,,,,,2,0,2,0,21,0,21,0,,,,,,,,,,,,,,,,,,,,,,,,,,,,,,,,,,,,,,,,,,,,,,,,,,,,,,,,,,,,,,,,,,,,,,0,,,,,,,,,,,,,,,,,,,,,,,,,,,,left,1,100,-30,70,0,1105.81407,1105.81407,1105.81407,None,None,1,1,0.4474463,,,,,,,,,,,,,,,,,,,,,,10,4,2,2024-10-20_09h07.37.475,uWM_experiment,2022.2.3,60.01021374
,,,,,,,,,,,,,,,,,,,,2,0,2,0,22,0,22,0,,,,,,,,,,,,,,,,,,,,,,,,,,,,,,,,,,,,,,,,,,,,,,,,,,,,,,,,,,,,,,,,,,,,,,0,,,,,,,,,,,,,,,,,,,,,,,,,,,,left,1,160,-30,130,0,1115.047752,1115.047752,1115.047752,None,None,2,0,0.3257201,,,,,,,,,,,,,,,,,,,,,,10,4,2,2024-10-20_09h07.37.475,uWM_experiment,2022.2.3,60.01021374
,,,,,,,,,,,,,,,,,,,,2,0,2,0,23,0,23,0,,,,,,,,,,,,,,,,,,,,,,,,,,,,,,,,,,,,,,,,,,,,,,,,,,,,,,,,,,,,,,,,,,,,,,0.082173129,,,,,,,,,,,,,,,,,,,,,,,,,,,,right,1,130,30,160,1,1121.047976,1121.047976,1121.047976,None,None,1,1,0.3735623,,,,,,,,,,,,,,,,,,,,,,10,4,2,2024-10-20_09h07.37.475,uWM_experiment,2022.2.3,60.01021374
,,,,,,,,,,,,,,,,,,,,2,0,2,0,,,,,0,0,0,0,,,,,,,,,,,,,,,,,,,,,,,,,,,,,,,,,,,,,,,,,,,,,,,,,,,,,,,,,,,,,,,,,,,,,,,,,,,,,,,,,,,,,,,,,,,,,,,,,,,,,,,,,,,,1121.447985,1121.447985,space,0.8775152,space,None,,1122.348024,1122.348024,1.0015313,,,,,,,,,,,,10,4,2,2024-10-20_09h07.37.475,uWM_experiment,2022.2.3,60.01021374
,,,,,,,,,,,,,,,,,,,,2,0,2,0,,,,,1,0,1,0,,,,,,,,,,,,,,,,,,,,,,,,,,,,,,,,,,,,,,,,,,,,,,,,,,,,,,,,,,,,,,,,,,,,,,,,,,,,,,,,,,,,,,,,,,,,,,,,,,,,,,,,,,,,,,,,,,,,,,,,,,,,,,,,,10,4,2,2024-10-20_09h07.37.475,uWM_experiment,2022.2.3,60.01021374
,,,,,,,,,,,,,,,,,,,,2,0,2,0,,,,,2,0,2,0,,,,,,,,,,,,,,,,,,,,,,,,,,,,,,,,,,,,,,,,,,,,,,,,,,,,,,,,,,,,,,,,,,,,,,,,,,,,,,,,,,,,,,,,,,,,,,,,,,,,,,,,,,,,,,,,,,,,,,,,,,,,,,,,,10,4,2,2024-10-20_09h07.37.475,uWM_experiment,2022.2.3,60.01021374
,,,,,,,,,,,,,,,,,,,,3,0,3,0,0,0,0,0,,,,,,,,,,,,,,,,,,,,,,,,,,,,,,,,,,,,,,,,,,,,,,,,,,,,,,,,,,,,,,,,,,,,,,0,,,,,,,,,,,,,,,,,,,,1123.381404,1124.081428,1124.381435,1125.081464,1125.381478,1126.081502,1126.081502,1126.398198,left,0,130,30,160,0,1131.115071,1131.115071,1131.115071,None,None,1,1,0.3543416,,,,,,,None,,,,,,,,,,,,,,,10,4,2,2024-10-20_09h07.37.475,uWM_experiment,2022.2.3,60.01021374
,,,,,,,,,,,,,,,,,,,,3,0,3,0,1,0,1,0,,,,,,,,,,,,,,,,,,,,,,,,,,,,,,,,,,,,,,,,,,,,,,,,,,,,,,,,,,,,,,,,,,,,,,0.092173129,,,,,,,,,,,,,,,,,,,,,,,,,,,,left,1,40,-30,10,1,1137.748638,1137.748638,1137.748638,None,None,1,1,0.2407817,,,,,,,,,,,,,,,,,,,,,,10,4,2,2024-10-20_09h07.37.475,uWM_experiment,2022.2.3,60.01021374
,,,,,,,,,,,,,,,,,,,,3,0,3,0,2,0,2,0,,,,,,,,,,,,,,,,,,,,,,,,,,,,,,,,,,,,,,,,,,,,,,,,,,,,,,,,,,,,,,,,,,,,,,0.102173129,,,,,,,,,,,,,,,,,,,,,,,,,,,,right,0,70,-30,40,1,1143.515571,1143.515571,1143.515571,None,None,1,1,0.3458987,,,,,,,,,,,,,,,,,,,,,,10,4,2,2024-10-20_09h07.37.475,uWM_experiment,2022.2.3,60.01021374
,,,,,,,,,,,,,,,,,,,,3,0,3,0,3,0,3,0,,,,,,,,,,,,,,,,,,,,,,,,,,,,,,,,,,,,,,,,,,,,,,,,,,,,,,,,,,,,,,,,,,,,,,0.112173129,,,,,,,,,,,,,,,,,,,,,,,,,,,,right,1,40,30,70,1,1149.332437,1149.332437,1149.332437,None,None,1,1,0.4248821,,,,,,,,,,,,,,,,,,,,,,10,4,2,2024-10-20_09h07.37.475,uWM_experiment,2022.2.3,60.01021374
,,,,,,,,,,,,,,,,,,,,3,0,3,0,4,0,4,0,,,,,,,,,,,,,,,,,,,,,,,,,,,,,,,,,,,,,,,,,,,,,,,,,,,,,,,,,,,,,,,,,,,,,,0.122173129,,,,,,,,,,,,,,,,,,,,,,,,,,,,right,1,40,30,70,1,1155.432691,1155.432691,1155.432691,None,None,2,0,0.2446636,,,,,,,,,,,,,,,,,,,,,,10,4,2,2024-10-20_09h07.37.475,uWM_experiment,2022.2.3,60.01021374
,,,,,,,,,,,,,,,,,,,,3,0,3,0,5,0,5,0,,,,,,,,,,,,,,,,,,,,,,,,,,,,,,,,,,,,,,,,,,,,,,,,,,,,,,,,,,,,,,,,,,,,,,0.1,,,,,,,,,,,,,,,,,,,,,,,,,,,,left,1,70,-30,40,2,1161.516263,1161.516263,1161.516263,None,None,4,0,0.6170708,,,,,,,,,,,,,,,,,,,,,,10,4,2,2024-10-20_09h07.37.475,uWM_experiment,2022.2.3,60.01021374
,,,,,,,,,,,,,,,,,,,,3,0,3,0,6,0,6,0,,,,,,,,,,,,,,,,,,,,,,,,,,,,,,,,,,,,,,,,,,,,,,,,,,,,,,,,,,,,,,,,,,,,,,0,,,,,,,,,,,,,,,,,,,,,,,,,,,,right,1,40,30,70,0,1167.933181,1167.933181,1167.933181,None,None,2,0,0.3120905,,,,,,,,,,,,,,,,,,,,,,10,4,2,2024-10-20_09h07.37.475,uWM_experiment,2022.2.3,60.01021374
,,,,,,,,,,,,,,,,,,,,3,0,3,0,7,0,7,0,,,,,,,,,,,,,,,,,,,,,,,,,,,,,,,,,,,,,,,,,,,,,,,,,,,,,,,,,,,,,,,,,,,,,,0.112173129,,,,,,,,,,,,,,,,,,,,,,,,,,,,right,1,130,30,160,1,1174.583445,1174.583445,1174.583445,None,None,2,0,0.4458606,,,,,,,,,,,,,,,,,,,,,,10,4,2,2024-10-20_09h07.37.475,uWM_experiment,2022.2.3,60.01021374
,,,,,,,,,,,,,,,,,,,,3,0,3,0,8,0,8,0,,,,,,,,,,,,,,,,,,,,,,,,,,,,,,,,,,,,,,,,,,,,,,,,,,,,,,,,,,,,,,,,,,,,,,0,,,,,,,,,,,,,,,,,,,,,,,,,,,,left,0,10,30,40,0,1180.833692,1180.833692,1180.833692,None,None,1,1,0.3874308,,,,,,,,,,,,,,,,,,,,,,10,4,2,2024-10-20_09h07.37.475,uWM_experiment,2022.2.3,60.01021374
,,,,,,,,,,,,,,,,,,,,3,0,3,0,9,0,9,0,,,,,,,,,,,,,,,,,,,,,,,,,,,,,,,,,,,,,,,,,,,,,,,,,,,,,,,,,,,,,,,,,,,,,,0.102173129,,,,,,,,,,,,,,,,,,,,,,,,,,,,right,0,100,-30,70,1,1186.667246,1186.667246,1186.667246,None,None,2,0,0.5299632,,,,,,,,,,,,,,,,,,,,,,10,4,2,2024-10-20_09h07.37.475,uWM_experiment,2022.2.3,60.01021374
,,,,,,,,,,,,,,,,,,,,3,0,3,0,10,0,10,0,,,,,,,,,,,,,,,,,,,,,,,,,,,,,,,,,,,,,,,,,,,,,,,,,,,,,,,,,,,,,,,,,,,,,,0.092173129,,,,,,,,,,,,,,,,,,,,,,,,,,,,right,1,160,30,190,1,1192.65081,1192.65081,1192.65081,None,None,2,0,0.3382528,,,,,,,,,,,,,,,,,,,,,,10,4,2,2024-10-20_09h07.37.475,uWM_experiment,2022.2.3,60.01021374
,,,,,,,,,,,,,,,,,,,,3,0,3,0,11,0,11,0,,,,,,,,,,,,,,,,,,,,,,,,,,,,,,,,,,,,,,,,,,,,,,,,,,,,,,,,,,,,,,,,,,,,,,0.082173129,,,,,,,,,,,,,,,,,,,,,,,,,,,,right,1,130,30,160,1,1198.684394,1198.684394,1198.684394,None,None,2,0,0.3046542,,,,,,,,,,,,,,,,,,,,,,10,4,2,2024-10-20_09h07.37.475,uWM_experiment,2022.2.3,60.01021374
,,,,,,,,,,,,,,,,,,,,3,0,3,0,12,0,12,0,,,,,,,,,,,,,,,,,,,,,,,,,,,,,,,,,,,,,,,,,,,,,,,,,,,,,,,,,,,,,,,,,,,,,,0.072173129,,,,,,,,,,,,,,,,,,,,,,,,,,,,right,0,100,-30,70,1,1205.117962,1205.117962,1205.117962,None,None,2,0,0.4312116,,,,,,,,,,,,,,,,,,,,,,10,4,2,2024-10-20_09h07.37.475,uWM_experiment,2022.2.3,60.01021374
,,,,,,,,,,,,,,,,,,,,3,0,3,0,13,0,13,0,,,,,,,,,,,,,,,,,,,,,,,,,,,,,,,,,,,,,,,,,,,,,,,,,,,,,,,,,,,,,,,,,,,,,,0.062173129,,,,,,,,,,,,,,,,,,,,,,,,,,,,left,0,100,30,130,1,1211.368235,1211.368235,1211.368235,None,None,2,0,0.636898,,,,,,,,,,,,,,,,,,,,,,10,4,2,2024-10-20_09h07.37.475,uWM_experiment,2022.2.3,60.01021374
,,,,,,,,,,,,,,,,,,,,3,0,3,0,14,0,14,0,,,,,,,,,,,,,,,,,,,,,,,,,,,,,,,,,,,,,,,,,,,,,,,,,,,,,,,,,,,,,,,,,,,,,,0.052173129,,,,,,,,,,,,,,,,,,,,,,,,,,,,left,1,10,-30,-20,1,1217.901831,1217.901831,1217.901831,None,None,1,1,0.2711281,,,,,,,,,,,,,,,,,,,,,,10,4,2,2024-10-20_09h07.37.475,uWM_experiment,2022.2.3,60.01021374
,,,,,,,,,,,,,,,,,,,,3,0,3,0,15,0,15,0,,,,,,,,,,,,,,,,,,,,,,,,,,,,,,,,,,,,,,,,,,,,,,,,,,,,,,,,,,,,,,,,,,,,,,0.062173129,,,,,,,,,,,,,,,,,,,,,,,,,,,,right,0,70,-30,40,1,1223.902048,1223.902048,1223.902048,None,None,2,0,0.3188548,,,,,,,,,,,,,,,,,,,,,,10,4,2,2024-10-20_09h07.37.475,uWM_experiment,2022.2.3,60.01021374
,,,,,,,,,,,,,,,,,,,,3,0,3,0,16,0,16,0,,,,,,,,,,,,,,,,,,,,,,,,,,,,,,,,,,,,,,,,,,,,,,,,,,,,,,,,,,,,,,,,,,,,,,0.052173129,,,,,,,,,,,,,,,,,,,,,,,,,,,,left,1,160,-30,130,1,1229.91895,1229.91895,1229.91895,None,None,2,0,0.2619463,,,,,,,,,,,,,,,,,,,,,,10,4,2,2024-10-20_09h07.37.475,uWM_experiment,2022.2.3,60.01021374
,,,,,,,,,,,,,,,,,,,,3,0,3,0,17,0,17,0,,,,,,,,,,,,,,,,,,,,,,,,,,,,,,,,,,,,,,,,,,,,,,,,,,,,,,,,,,,,,,,,,,,,,,0,,,,,,,,,,,,,,,,,,,,,,,,,,,,left,1,160,-30,130,0,1237.73596,1237.73596,1237.73596,None,None,2,0,0.4449998,,,,,,,,,,,,,,,,,,,,,,10,4,2,2024-10-20_09h07.37.475,uWM_experiment,2022.2.3,60.01021374
,,,,,,,,,,,,,,,,,,,,3,0,3,0,18,0,18,0,,,,,,,,,,,,,,,,,,,,,,,,,,,,,,,,,,,,,,,,,,,,,,,,,,,,,,,,,,,,,,,,,,,,,,0,,,,,,,,,,,,,,,,,,,,,,,,,,,,left,0,100,30,130,0,1243.886184,1243.886184,1243.886184,None,None,2,0,0.3987906,,,,,,,,,,,,,,,,,,,,,,10,4,2,2024-10-20_09h07.37.475,uWM_experiment,2022.2.3,60.01021374
,,,,,,,,,,,,,,,,,,,,3,0,3,0,19,0,19,0,,,,,,,,,,,,,,,,,,,,,,,,,,,,,,,,,,,,,,,,,,,,,,,,,,,,,,,,,,,,,,,,,,,,,,0.042173129,,,,,,,,,,,,,,,,,,,,,,,,,,,,left,1,160,-30,130,1,1250.069725,1250.069725,1250.069725,None,None,2,0,0.3991982,,,,,,,,,,,,,,,,,,,,,,10,4,2,2024-10-20_09h07.37.475,uWM_experiment,2022.2.3,60.01021374
,,,,,,,,,,,,,,,,,,,,3,0,3,0,20,0,20,0,,,,,,,,,,,,,,,,,,,,,,,,,,,,,,,,,,,,,,,,,,,,,,,,,,,,,,,,,,,,,,,,,,,,,,0.032173129,,,,,,,,,,,,,,,,,,,,,,,,,,,,left,1,10,-30,-20,1,1256.103338,1256.103338,1256.103338,None,None,1,1,0.2774657,,,,,,,,,,,,,,,,,,,,,,10,4,2,2024-10-20_09h07.37.475,uWM_experiment,2022.2.3,60.01021374
,,,,,,,,,,,,,,,,,,,,3,0,3,0,21,0,21,0,,,,,,,,,,,,,,,,,,,,,,,,,,,,,,,,,,,,,,,,,,,,,,,,,,,,,,,,,,,,,,,,,,,,,,0.042173129,,,,,,,,,,,,,,,,,,,,,,,,,,,,right,1,40,30,70,1,1262.120246,1262.120246,1262.120246,None,None,2,0,0.2365157,,,,,,,,,,,,,,,,,,,,,,10,4,2,2024-10-20_09h07.37.475,uWM_experiment,2022.2.3,60.01021374
,,,,,,,,,,,,,,,,,,,,3,0,3,0,22,0,22,0,,,,,,,,,,,,,,,,,,,,,,,,,,,,,,,,,,,,,,,,,,,,,,,,,,,,,,,,,,,,,,,,,,,,,,0.032173129,,,,,,,,,,,,,,,,,,,,,,,,,,,,left,1,100,-30,70,1,1267.487105,1267.487105,1267.487105,None,None,1,1,0.3977647,,,,,,,,,,,,,,,,,,,,,,10,4,2,2024-10-20_09h07.37.475,uWM_experiment,2022.2.3,60.01021374
,,,,,,,,,,,,,,,,,,,,3,0,3,0,23,0,23,0,,,,,,,,,,,,,,,,,,,,,,,,,,,,,,,,,,,,,,,,,,,,,,,,,,,,,,,,,,,,,,,,,,,,,,0.042173129,,,,,,,,,,,,,,,,,,,,,,,,,,,,left,0,130,30,160,1,1273.654001,1273.654001,1273.654001,None,None,1,1,0.5590134,,,,,,,,,,,,,,,,,,,,,,10,4,2,2024-10-20_09h07.37.475,uWM_experiment,2022.2.3,60.01021374
,,,,,,,,,,,,,,,,,,,,3,0,3,0,,,,,0,0,0,0,,,,,,,,,,,,,,,,,,,,,,,,,,,,,,,,,,,,,,,,,,,,,,,,,,,,,,,,,,,,,,,,,,,,,,,,,,,,,,,,,,,,,,,,,,,,,,,,,,,,,,,,,,,,1274.237352,1274.237352,space,3.367581,None,None,,,,,,,,,,,,,,,,10,4,2,2024-10-20_09h07.37.475,uWM_experiment,2022.2.3,60.01021374
,,,,,,,,,,,,,,,,,,,,3,0,3,0,,,,,1,0,1,0,,,,,,,,,,,,,,,,,,,,,,,,,,,,,,,,,,,,,,,,,,,,,,,,,,,,,,,,,,,,,,,,,,,,,,,,,,,,,,,,,,,,,,,,,,,,,,,,,,,,,,,,,,,,,,,,,,,,,,,,,,,,,,,,,10,4,2,2024-10-20_09h07.37.475,uWM_experiment,2022.2.3,60.01021374
,,,,,,,,,,,,,,,,,,,,3,0,3,0,,,,,2,0,2,0,,,,,,,,,,,,,,,,,,,,,,,,,,,,,,,,,,,,,,,,,,,,,,,,,,,,,,,,,,,,,,,,,,,,,,,,,,,,,,,,,,,,,,,,,,,,,,,,,,,,,,,,,,,,,,,,,,,,,,,,,,,,,,,,,10,4,2,2024-10-20_09h07.37.475,uWM_experiment,2022.2.3,60.01021374
,,,,,,,,,,,,,,,,,,,,4,0,4,0,0,0,0,0,,,,,,,,,,,,,,,,,,,,,,,,,,,,,,,,,,,,,,,,,,,,,,,,,,,,,,,,,,,,,,,,,,,,,,0.052173129,,,,,,,,,,,,,,,,,,,,1277.637501,1278.337526,1278.63754,1279.337567,1279.637579,1280.337607,1280.337607,1280.654304,left,0,130,30,160,1,1285.13782,1285.13782,1285.13782,None,None,2,0,0.3868042,,,,,,,None,,,,,,,,,,,,,,,10,4,2,2024-10-20_09h07.37.475,uWM_experiment,2022.2.3,60.01021374
,,,,,,,,,,,,,,,,,,,,4,0,4,0,1,0,1,0,,,,,,,,,,,,,,,,,,,,,,,,,,,,,,,,,,,,,,,,,,,,,,,,,,,,,,,,,,,,,,,,,,,,,,0.1,,,,,,,,,,,,,,,,,,,,,,,,,,,,left,0,70,30,100,2,1291.338054,1291.338054,1291.338054,None,None,2,0,0.3146255,,,,,,,,,,,,,,,,,,,,,,10,4,2,2024-10-20_09h07.37.475,uWM_experiment,2022.2.3,60.01021374
,,,,,,,,,,,,,,,,,,,,4,0,4,0,2,0,2,0,,,,,,,,,,,,,,,,,,,,,,,,,,,,,,,,,,,,,,,,,,,,,,,,,,,,,,,,,,,,,,,,,,,,,,0,,,,,,,,,,,,,,,,,,,,,,,,,,,,right,0,100,-30,70,0,1296.821594,1296.821594,1296.821594,None,None,1,1,0.2472515,,,,,,,,,,,,,,,,,,,,,,10,4,2,2024-10-20_09h07.37.475,uWM_experiment,2022.2.3,60.01021374
,,,,,,,,,,,,,,,,,,,,4,0,4,0,3,0,3,0,,,,,,,,,,,,,,,,,,,,,,,,,,,,,,,,,,,,,,,,,,,,,,,,,,,,,,,,,,,,,,,,,,,,,,0,,,,,,,,,,,,,,,,,,,,,,,,,,,,left,1,130,-30,100,0,1302.721823,1302.721823,1302.721823,None,None,1,1,0.2828715,,,,,,,,,,,,,,,,,,,,,,10,4,2,2024-10-20_09h07.37.475,uWM_experiment,2022.2.3,60.01021374
,,,,,,,,,,,,,,,,,,,,4,0,4,0,4,0,4,0,,,,,,,,,,,,,,,,,,,,,,,,,,,,,,,,,,,,,,,,,,,,,,,,,,,,,,,,,,,,,,,,,,,,,,0.042173129,,,,,,,,,,,,,,,,,,,,,,,,,,,,right,0,160,-30,130,1,1308.155379,1308.155379,1308.155379,None,None,1,1,0.2091876,,,,,,,,,,,,,,,,,,,,,,10,4,2,2024-10-20_09h07.37.475,uWM_experiment,2022.2.3,60.01021374
,,,,,,,,,,,,,,,,,,,,4,0,4,0,5,0,5,0,,,,,,,,,,,,,,,,,,,,,,,,,,,,,,,,,,,,,,,,,,,,,,,,,,,,,,,,,,,,,,,,,,,,,,0.052173129,,,,,,,,,,,,,,,,,,,,,,,,,,,,right,1,70,30,100,1,1313.738933,1313.738933,1313.738933,None,None,1,1,0.2257048,,,,,,,,,,,,,,,,,,,,,,10,4,2,2024-10-20_09h07.37.475,uWM_experiment,2022.2.3,60.01021374
,,,,,,,,,,,,,,,,,,,,4,0,4,0,6,0,6,0,,,,,,,,,,,,,,,,,,,,,,,,,,,,,,,,,,,,,,,,,,,,,,,,,,,,,,,,,,,,,,,,,,,,,,0.062173129,,,,,,,,,,,,,,,,,,,,,,,,,,,,right,1,160,30,190,1,1319.322485,1319.322485,1319.322485,None,None,1,1,0.4100728,,,,,,,,,,,,,,,,,,,,,,10,4,2,2024-10-20_09h07.37.475,uWM_experiment,2022.2.3,60.01021374
,,,,,,,,,,,,,,,,,,,,4,0,4,0,7,0,7,0,,,,,,,,,,,,,,,,,,,,,,,,,,,,,,,,,,,,,,,,,,,,,,,,,,,,,,,,,,,,,,,,,,,,,,0,,,,,,,,,,,,,,,,,,,,,,,,,,,,left,1,40,-30,10,0,1324.889404,1324.889404,1324.889404,None,None,1,1,0.2111097,,,,,,,,,,,,,,,,,,,,,,10,4,2,2024-10-20_09h07.37.475,uWM_experiment,2022.2.3,60.01021374
,,,,,,,,,,,,,,,,,,,,4,0,4,0,8,0,8,0,,,,,,,,,,,,,,,,,,,,,,,,,,,,,,,,,,,,,,,,,,,,,,,,,,,,,,,,,,,,,,,,,,,,,,0.072173129,,,,,,,,,,,,,,,,,,,,,,,,,,,,left,1,10,-30,-20,1,1331.522982,1331.522982,1331.522982,None,None,1,1,0.3295433,,,,,,,,,,,,,,,,,,,,,,10,4,2,2024-10-20_09h07.37.475,uWM_experiment,2022.2.3,60.01021374
,,,,,,,,,,,,,,,,,,,,4,0,4,0,9,0,9,0,,,,,,,,,,,,,,,,,,,,,,,,,,,,,,,,,,,,,,,,,,,,,,,,,,,,,,,,,,,,,,,,,,,,,,0.082173129,,,,,,,,,,,,,,,,,,,,,,,,,,,,left,1,40,-30,10,1,1340.823755,1340.823755,1340.823755,None,None,1,1,0.2366668,,,,,,,,,,,,,,,,,,,,,,10,4,2,2024-10-20_09h07.37.475,uWM_experiment,2022.2.3,60.01021374
,,,,,,,,,,,,,,,,,,,,4,0,4,0,10,0,10,0,,,,,,,,,,,,,,,,,,,,,,,,,,,,,,,,,,,,,,,,,,,,,,,,,,,,,,,,,,,,,,,,,,,,,,0.092173129,,,,,,,,,,,,,,,,,,,,,,,,,,,,left,1,10,-30,-20,1,1346.806917,1346.806917,1346.806917,None,None,1,1,0.197617,,,,,,,,,,,,,,,,,,,,,,10,4,2,2024-10-20_09h07.37.475,uWM_experiment,2022.2.3,60.01021374
,,,,,,,,,,,,,,,,,,,,4,0,4,0,11,0,11,0,,,,,,,,,,,,,,,,,,,,,,,,,,,,,,,,,,,,,,,,,,,,,,,,,,,,,,,,,,,,,,,,,,,,,,0.102173129,,,,,,,,,,,,,,,,,,,,,,,,,,,,right,1,40,30,70,1,1352.54046,1352.54046,1352.54046,None,None,2,0,0.2959773,,,,,,,,,,,,,,,,,,,,,,10,4,2,2024-10-20_09h07.37.475,uWM_experiment,2022.2.3,60.01021374
,,,,,,,,,,,,,,,,,,,,4,0,4,0,12,0,12,0,,,,,,,,,,,,,,,,,,,,,,,,,,,,,,,,,,,,,,,,,,,,,,,,,,,,,,,,,,,,,,,,,,,,,,0.092173129,,,,,,,,,,,,,,,,,,,,,,,,,,,,right,1,10,30,40,1,1358.4407,1358.4407,1358.4407,None,None,2,0,0.2756841,,,,,,,,,,,,,,,,,,,,,,10,4,2,2024-10-20_09h07.37.475,uWM_experiment,2022.2.3,60.01021374
,,,,,,,,,,,,,,,,,,,,4,0,4,0,13,0,13,0,,,,,,,,,,,,,,,,,,,,,,,,,,,,,,,,,,,,,,,,,,,,,,,,,,,,,,,,,,,,,,,,,,,,,,0.082173129,,,,,,,,,,,,,,,,,,,,,,,,,,,,right,1,10,30,40,1,1364.124284,1364.124284,1364.124284,None,None,2,0,0.2320804,,,,,,,,,,,,,,,,,,,,,,10,4,2,2024-10-20_09h07.37.475,uWM_experiment,2022.2.3,60.01021374
,,,,,,,,,,,,,,,,,,,,4,0,4,0,14,0,14,0,,,,,,,,,,,,,,,,,,,,,,,,,,,,,,,,,,,,,,,,,,,,,,,,,,,,,,,,,,,,,,,,,,,,,,0,,,,,,,,,,,,,,,,,,,,,,,,,,,,left,0,130,30,160,0,1370.057843,1370.057843,1370.057843,None,None,1,1,0.2184402,,,,,,,,,,,,,,,,,,,,,,10,4,2,2024-10-20_09h07.37.475,uWM_experiment,2022.2.3,60.01021374
,,,,,,,,,,,,,,,,,,,,4,0,4,0,15,0,15,0,,,,,,,,,,,,,,,,,,,,,,,,,,,,,,,,,,,,,,,,,,,,,,,,,,,,,,,,,,,,,,,,,,,,,,0.072173129,,,,,,,,,,,,,,,,,,,,,,,,,,,,right,1,100,30,130,1,1375.658058,1375.658058,1375.658058,None,None,2,0,0.2582715,,,,,,,,,,,,,,,,,,,,,,10,4,2,2024-10-20_09h07.37.475,uWM_experiment,2022.2.3,60.01021374
,,,,,,,,,,,,,,,,,,,,4,0,4,0,16,0,16,0,,,,,,,,,,,,,,,,,,,,,,,,,,,,,,,,,,,,,,,,,,,,,,,,,,,,,,,,,,,,,,,,,,,,,,0.062173129,,,,,,,,,,,,,,,,,,,,,,,,,,,,left,1,160,-30,130,1,1381.591606,1381.591606,1381.591606,None,None,1,1,0.2606848,,,,,,,,,,,,,,,,,,,,,,10,4,2,2024-10-20_09h07.37.475,uWM_experiment,2022.2.3,60.01021374
,,,,,,,,,,,,,,,,,,,,4,0,4,0,17,0,17,0,,,,,,,,,,,,,,,,,,,,,,,,,,,,,,,,,,,,,,,,,,,,,,,,,,,,,,,,,,,,,,,,,,,,,,0,,,,,,,,,,,,,,,,,,,,,,,,,,,,left,1,160,-30,130,0,1387.591879,1387.591879,1387.591879,None,None,2,0,0.2604538,,,,,,,,,,,,,,,,,,,,,,10,4,2,2024-10-20_09h07.37.475,uWM_experiment,2022.2.3,60.01021374
,,,,,,,,,,,,,,,,,,,,4,0,4,0,18,0,18,0,,,,,,,,,,,,,,,,,,,,,,,,,,,,,,,,,,,,,,,,,,,,,,,,,,,,,,,,,,,,,,,,,,,,,,0.072173129,,,,,,,,,,,,,,,,,,,,,,,,,,,,right,1,10,30,40,1,1393.2421,1393.2421,1393.2421,None,None,2,0,0.2422086,,,,,,,,,,,,,,,,,,,,,,10,4,2,2024-10-20_09h07.37.475,uWM_experiment,2022.2.3,60.01021374
,,,,,,,,,,,,,,,,,,,,4,0,4,0,19,0,19,0,,,,,,,,,,,,,,,,,,,,,,,,,,,,,,,,,,,,,,,,,,,,,,,,,,,,,,,,,,,,,,,,,,,,,,0.062173129,,,,,,,,,,,,,,,,,,,,,,,,,,,,right,0,70,-30,40,1,1399.12565,1399.12565,1399.12565,None,None,2,0,0.254467,,,,,,,,,,,,,,,,,,,,,,10,4,2,2024-10-20_09h07.37.475,uWM_experiment,2022.2.3,60.01021374
,,,,,,,,,,,,,,,,,,,,4,0,4,0,20,0,20,0,,,,,,,,,,,,,,,,,,,,,,,,,,,,,,,,,,,,,,,,,,,,,,,,,,,,,,,,,,,,,,,,,,,,,,0.1,,,,,,,,,,,,,,,,,,,,,,,,,,,,left,0,100,30,130,2,1404.74254,1404.74254,1404.74254,None,None,2,0,0.2615724,,,,,,,,,,,,,,,,,,,,,,10,4,2,2024-10-20_09h07.37.475,uWM_experiment,2022.2.3,60.01021374
,,,,,,,,,,,,,,,,,,,,4,0,4,0,21,0,21,0,,,,,,,,,,,,,,,,,,,,,,,,,,,,,,,,,,,,,,,,,,,,,,,,,,,,,,,,,,,,,,,,,,,,,,0.052173129,,,,,,,,,,,,,,,,,,,,,,,,,,,,right,0,160,-30,130,1,1410.159424,1410.159424,1410.159424,None,None,2,0,0.1886881,,,,,,,,,,,,,,,,,,,,,,10,4,2,2024-10-20_09h07.37.475,uWM_experiment,2022.2.3,60.01021374
,,,,,,,,,,,,,,,,,,,,4,0,4,0,22,0,22,0,,,,,,,,,,,,,,,,,,,,,,,,,,,,,,,,,,,,,,,,,,,,,,,,,,,,,,,,,,,,,,,,,,,,,,0.042173129,,,,,,,,,,,,,,,,,,,,,,,,,,,,left,0,40,30,70,1,1415.692972,1415.692972,1415.692972,None,None,2,0,0.4952965,,,,,,,,,,,,,,,,,,,,,,10,4,2,2024-10-20_09h07.37.475,uWM_experiment,2022.2.3,60.01021374
,,,,,,,,,,,,,,,,,,,,4,0,4,0,23,0,23,0,,,,,,,,,,,,,,,,,,,,,,,,,,,,,,,,,,,,,,,,,,,,,,,,,,,,,,,,,,,,,,,,,,,,,,0,,,,,,,,,,,,,,,,,,,,,,,,,,,,left,0,10,30,40,0,1421.893225,1421.893225,1421.893225,None,None,1,1,0.5348037,,,,,,,,,,,,,,,,,,,,,,10,4,2,2024-10-20_09h07.37.475,uWM_experiment,2022.2.3,60.01021374
,,,,,,,,,,,,,,,,,,,,4,0,4,0,,,,,0,0,0,0,,,,,,,,,,,,,,,,,,,,,,,,,,,,,,,,,,,,,,,,,,,,,,,,,,,,,,,,,,,,,,,,,,,,,,,,,,,,,,,,,,,,,,,,,,,,,,,,,,,,,,,,,,,,1422.459886,1422.459886,space,0.8881976,None,None,,,,,,,,,,,,,,,,10,4,2,2024-10-20_09h07.37.475,uWM_experiment,2022.2.3,60.01021374
,,,,,,,,,,,,,,,,,,,,4,0,4,0,,,,,1,0,1,0,,,,,,,,,,,,,,,,,,,,,,,,,,,,,,,,,,,,,,,,,,,,,,,,,,,,,,,,,,,,,,,,,,,,,,,,,,,,,,,,,,,,,,,,,,,,,,,,,,,,,,,,,,,,,,,,,,,,,,,,,,,,,,,,,10,4,2,2024-10-20_09h07.37.475,uWM_experiment,2022.2.3,60.01021374
,,,,,,,,,,,,,,,,,,,,4,0,4,0,,,,,2,0,2,0,,,,,,,,,,,,,,,,,,,,,,,,,,,,,,,,,,,,,,,,,,,,,,,,,,,,,,,,,,,,,,,,,,,,,,,,,,,,,,,,,,,,,,,,,,,,,,,,,,,,,,,,,,,,,,,,,,,,,,,,,,,,,,,,,10,4,2,2024-10-20_09h07.37.475,uWM_experiment,2022.2.3,60.01021374
,,,,,,,,,,,,,,,,,,,,5,0,5,0,0,0,0,0,,,,,,,,,,,,,,,,,,,,,,,,,,,,,,,,,,,,,,,,,,,,,,,,,,,,,,,,,,,,,,,,,,,,,,0,,,,,,,,,,,,,,,,,,,,1423.376592,1424.07663,1424.376629,1425.07671,1425.37667,1426.076726,1426.076726,1426.393388,left,1,10,-30,-20,0,1430.993581,1430.993581,1430.993581,None,None,2,0,0.3465126,,,,,,,None,,,,,,,,,,,,,,,10,4,2,2024-10-20_09h07.37.475,uWM_experiment,2022.2.3,60.01021374
,,,,,,,,,,,,,,,,,,,,5,0,5,0,1,0,1,0,,,,,,,,,,,,,,,,,,,,,,,,,,,,,,,,,,,,,,,,,,,,,,,,,,,,,,,,,,,,,,,,,,,,,,0,,,,,,,,,,,,,,,,,,,,,,,,,,,,right,0,40,-30,10,0,1436.993818,1436.993818,1436.993818,None,None,2,0,0.2182829,,,,,,,,,,,,,,,,,,,,,,10,4,2,2024-10-20_09h07.37.475,uWM_experiment,2022.2.3,60.01021374
,,,,,,,,,,,,,,,,,,,,5,0,5,0,2,0,2,0,,,,,,,,,,,,,,,,,,,,,,,,,,,,,,,,,,,,,,,,,,,,,,,,,,,,,,,,,,,,,,,,,,,,,,0.032173129,,,,,,,,,,,,,,,,,,,,,,,,,,,,left,1,130,-30,100,1,1443.094043,1443.094043,1443.094043,None,None,1,1,0.2780392,,,,,,,,,,,,,,,,,,,,,,10,4,2,2024-10-20_09h07.37.475,uWM_experiment,2022.2.3,60.01021374
,,,,,,,,,,,,,,,,,,,,5,0,5,0,3,0,3,0,,,,,,,,,,,,,,,,,,,,,,,,,,,,,,,,,,,,,,,,,,,,,,,,,,,,,,,,,,,,,,,,,,,,,,0,,,,,,,,,,,,,,,,,,,,,,,,,,,,left,0,130,30,160,0,1448.910975,1448.910975,1448.910975,None,None,1,1,0.2929968,,,,,,,,,,,,,,,,,,,,,,10,4,2,2024-10-20_09h07.37.475,uWM_experiment,2022.2.3,60.01021374
,,,,,,,,,,,,,,,,,,,,5,0,5,0,4,0,4,0,,,,,,,,,,,,,,,,,,,,,,,,,,,,,,,,,,,,,,,,,,,,,,,,,,,,,,,,,,,,,,,,,,,,,,0.042173129,,,,,,,,,,,,,,,,,,,,,,,,,,,,left,1,40,-30,10,1,1454.661162,1454.661162,1454.661162,None,None,1,1,0.2867049,,,,,,,,,,,,,,,,,,,,,,10,4,2,2024-10-20_09h07.37.475,uWM_experiment,2022.2.3,60.01021374
,,,,,,,,,,,,,,,,,,,,5,0,5,0,5,0,5,0,,,,,,,,,,,,,,,,,,,,,,,,,,,,,,,,,,,,,,,,,,,,,,,,,,,,,,,,,,,,,,,,,,,,,,0.052173129,,,,,,,,,,,,,,,,,,,,,,,,,,,,right,0,100,-30,70,1,1460.378078,1460.378078,1460.378078,None,None,1,1,0.2578767,,,,,,,,,,,,,,,,,,,,,,10,4,2,2024-10-20_09h07.37.475,uWM_experiment,2022.2.3,60.01021374
,,,,,,,,,,,,,,,,,,,,5,0,5,0,6,0,6,0,,,,,,,,,,,,,,,,,,,,,,,,,,,,,,,,,,,,,,,,,,,,,,,,,,,,,,,,,,,,,,,,,,,,,,0.062173129,,,,,,,,,,,,,,,,,,,,,,,,,,,,left,1,40,-30,10,1,1465.894944,1465.894944,1465.894944,None,None,1,1,0.4048787,,,,,,,,,,,,,,,,,,,,,,10,4,2,2024-10-20_09h07.37.475,uWM_experiment,2022.2.3,60.01021374
,,,,,,,,,,,,,,,,,,,,5,0,5,0,7,0,7,0,,,,,,,,,,,,,,,,,,,,,,,,,,,,,,,,,,,,,,,,,,,,,,,,,,,,,,,,,,,,,,,,,,,,,,0.072173129,,,,,,,,,,,,,,,,,,,,,,,,,,,,right,1,160,30,190,1,1471.661853,1471.661853,1471.661853,None,None,2,0,0.2379424,,,,,,,,,,,,,,,,,,,,,,10,4,2,2024-10-20_09h07.37.475,uWM_experiment,2022.2.3,60.01021374
,,,,,,,,,,,,,,,,,,,,5,0,5,0,8,0,8,0,,,,,,,,,,,,,,,,,,,,,,,,,,,,,,,,,,,,,,,,,,,,,,,,,,,,,,,,,,,,,,,,,,,,,,0.062173129,,,,,,,,,,,,,,,,,,,,,,,,,,,,left,0,130,30,160,1,1477.178738,1477.178738,1477.178738,None,None,2,0,0.3050852,,,,,,,,,,,,,,,,,,,,,,10,4,2,2024-10-20_09h07.37.475,uWM_experiment,2022.2.3,60.01021374
,,,,,,,,,,,,,,,,,,,,5,0,5,0,9,0,9,0,,,,,,,,,,,,,,,,,,,,,,,,,,,,,,,,,,,,,,,,,,,,,,,,,,,,,,,,,,,,,,,,,,,,,,0.052173129,,,,,,,,,,,,,,,,,,,,,,,,,,,,right,1,160,30,190,1,1482.862313,1482.862313,1482.862313,None,None,3,0,0.2214219,,,,,,,,,,,,,,,,,,,,,,10,4,2,2024-10-20_09h07.37.475,uWM_experiment,2022.2.3,60.01021374
,,,,,,,,,,,,,,,,,,,,5,0,5,0,10,0,10,0,,,,,,,,,,,,,,,,,,,,,,,,,,,,,,,,,,,,,,,,,,,,,,,,,,,,,,,,,,,,,,,,,,,,,,0.042173129,,,,,,,,,,,,,,,,,,,,,,,,,,,,left,1,10,-30,-20,1,1488.529191,1488.529191,1488.529191,None,None,1,1,0.2505403,,,,,,,,,,,,,,,,,,,,,,10,4,2,2024-10-20_09h07.37.475,uWM_experiment,2022.2.3,60.01021374
,,,,,,,,,,,,,,,,,,,,5,0,5,0,11,0,11,0,,,,,,,,,,,,,,,,,,,,,,,,,,,,,,,,,,,,,,,,,,,,,,,,,,,,,,,,,,,,,,,,,,,,,,0.052173129,,,,,,,,,,,,,,,,,,,,,,,,,,,,left,0,70,30,100,1,1494.046063,1494.046063,1494.046063,None,None,2,0,0.0777669,,,,,,,,,,,,,,,,,,,,,,10,4,2,2024-10-20_09h07.37.475,uWM_experiment,2022.2.3,60.01021374
,,,,,,,,,,,,,,,,,,,,5,0,5,0,12,0,12,0,,,,,,,,,,,,,,,,,,,,,,,,,,,,,,,,,,,,,,,,,,,,,,,,,,,,,,,,,,,,,,,,,,,,,,0.042173129,,,,,,,,,,,,,,,,,,,,,,,,,,,,left,0,40,30,70,1,1499.779603,1499.779603,1499.779603,None,None,2,0,0.336099,,,,,,,,,,,,,,,,,,,,,,10,4,2,2024-10-20_09h07.37.475,uWM_experiment,2022.2.3,60.01021374
,,,,,,,,,,,,,,,,,,,,5,0,5,0,13,0,13,0,,,,,,,,,,,,,,,,,,,,,,,,,,,,,,,,,,,,,,,,,,,,,,,,,,,,,,,,,,,,,,,,,,,,,,0.032173129,,,,,,,,,,,,,,,,,,,,,,,,,,,,left,0,160,30,190,1,1505.363169,1505.363169,1505.363169,None,None,1,1,0.1765544,,,,,,,,,,,,,,,,,,,,,,10,4,2,2024-10-20_09h07.37.475,uWM_experiment,2022.2.3,60.01021374
,,,,,,,,,,,,,,,,,,,,5,0,5,0,14,0,14,0,,,,,,,,,,,,,,,,,,,,,,,,,,,,,,,,,,,,,,,,,,,,,,,,,,,,,,,,,,,,,,,,,,,,,,0.042173129,,,,,,,,,,,,,,,,,,,,,,,,,,,,left,0,10,30,40,1,1510.79673,1510.79673,1510.79673,None,None,1,1,0.4310261,,,,,,,,,,,,,,,,,,,,,,10,4,2,2024-10-20_09h07.37.475,uWM_experiment,2022.2.3,60.01021374
,,,,,,,,,,,,,,,,,,,,5,0,5,0,15,0,15,0,,,,,,,,,,,,,,,,,,,,,,,,,,,,,,,,,,,,,,,,,,,,,,,,,,,,,,,,,,,,,,,,,,,,,,0.052173129,,,,,,,,,,,,,,,,,,,,,,,,,,,,left,0,70,30,100,1,1516.896977,1516.896977,1516.896977,None,None,2,0,0.2667362,,,,,,,,,,,,,,,,,,,,,,10,4,2,2024-10-20_09h07.37.475,uWM_experiment,2022.2.3,60.01021374
,,,,,,,,,,,,,,,,,,,,5,0,5,0,16,0,16,0,,,,,,,,,,,,,,,,,,,,,,,,,,,,,,,,,,,,,,,,,,,,,,,,,,,,,,,,,,,,,,,,,,,,,,0.042173129,,,,,,,,,,,,,,,,,,,,,,,,,,,,left,0,130,30,160,1,1523.230544,1523.230544,1523.230544,None,None,2,0,0.1970196,,,,,,,,,,,,,,,,,,,,,,10,4,2,2024-10-20_09h07.37.475,uWM_experiment,2022.2.3,60.01021374
,,,,,,,,,,,,,,,,,,,,5,0,5,0,17,0,17,0,,,,,,,,,,,,,,,,,,,,,,,,,,,,,,,,,,,,,,,,,,,,,,,,,,,,,,,,,,,,,,,,,,,,,,0.032173129,,,,,,,,,,,,,,,,,,,,,,,,,,,,left,1,130,-30,100,1,1528.847446,1528.847446,1528.847446,None,None,2,0,0.2040497,,,,,,,,,,,,,,,,,,,,,,10,4,2,2024-10-20_09h07.37.475,uWM_experiment,2022.2.3,60.01021374
,,,,,,,,,,,,,,,,,,,,5,0,5,0,18,0,18,0,,,,,,,,,,,,,,,,,,,,,,,,,,,,,,,,,,,,,,,,,,,,,,,,,,,,,,,,,,,,,,,,,,,,,,0.1,,,,,,,,,,,,,,,,,,,,,,,,,,,,left,1,40,-30,10,2,1535.114371,1535.114371,1535.114371,None,None,4,0,0.5771978,,,,,,,,,,,,,,,,,,,,,,10,4,2,2024-10-20_09h07.37.475,uWM_experiment,2022.2.3,60.01021374
,,,,,,,,,,,,,,,,,,,,5,0,5,0,19,0,19,0,,,,,,,,,,,,,,,,,,,,,,,,,,,,,,,,,,,,,,,,,,,,,,,,,,,,,,,,,,,,,,,,,,,,,,0.022173129,,,,,,,,,,,,,,,,,,,,,,,,,,,,left,0,160,30,190,1,1541.497928,1541.497928,1541.497928,None,None,2,0,0.3215641,,,,,,,,,,,,,,,,,,,,,,10,4,2,2024-10-20_09h07.37.475,uWM_experiment,2022.2.3,60.01021374
,,,,,,,,,,,,,,,,,,,,5,0,5,0,20,0,20,0,,,,,,,,,,,,,,,,,,,,,,,,,,,,,,,,,,,,,,,,,,,,,,,,,,,,,,,,,,,,,,,,,,,,,,0.012173129,,,,,,,,,,,,,,,,,,,,,,,,,,,,right,1,40,30,70,1,1547.23148,1547.23148,1547.23148,None,None,2,0,0.1640342,,,,,,,,,,,,,,,,,,,,,,10,4,2,2024-10-20_09h07.37.475,uWM_experiment,2022.2.3,60.01021374
,,,,,,,,,,,,,,,,,,,,5,0,5,0,21,0,21,0,,,,,,,,,,,,,,,,,,,,,,,,,,,,,,,,,,,,,,,,,,,,,,,,,,,,,,,,,,,,,,,,,,,,,,0.005,,,,,,,,,,,,,,,,,,,,,,,,,,,,right,0,160,-30,130,1,1552.665039,1552.665039,1552.665039,None,None,1,1,0.842456,,,,,,,,,,,,,,,,,,,,,,10,4,2,2024-10-20_09h07.37.475,uWM_experiment,2022.2.3,60.01021374
,,,,,,,,,,,,,,,,,,,,5,0,5,0,22,0,22,0,,,,,,,,,,,,,,,,,,,,,,,,,,,,,,,,,,,,,,,,,,,,,,,,,,,,,,,,,,,,,,,,,,,,,,0.015,,,,,,,,,,,,,,,,,,,,,,,,,,,,left,1,100,-30,70,1,1558.881949,1558.881949,1558.881949,None,None,1,1,0.1774116,,,,,,,,,,,,,,,,,,,,,,10,4,2,2024-10-20_09h07.37.475,uWM_experiment,2022.2.3,60.01021374
,,,,,,,,,,,,,,,,,,,,5,0,5,0,23,0,23,0,,,,,,,,,,,,,,,,,,,,,,,,,,,,,,,,,,,,,,,,,,,,,,,,,,,,,,,,,,,,,,,,,,,,,,0,,,,,,,,,,,,,,,,,,,,,,,,,,,,left,0,10,30,40,0,1567.115609,1567.115609,1567.115609,None,None,1,1,0.2637724,,,,,,,,,,,,,,,,,,,,,,10,4,2,2024-10-20_09h07.37.475,uWM_experiment,2022.2.3,60.01021374
,,,,,,,,,,,,,,,,,,,,5,0,5,0,,,,,0,0,0,0,,,,,,,,,,,,,,,,,,,,,,,,,,,,,,,,,,,,,,,,,,,,,,,,,,,,,,,,,,,,,,,,,,,,,,,,,,,,,,,,,,,,,,,,,,,,,,,,,,,,,,,,,,,,1567.398938,1567.398938,space,31.9083771,space,None,,1599.333547,1599.333547,1.8617701,,,,,,,,,,,,10,4,2,2024-10-20_09h07.37.475,uWM_experiment,2022.2.3,60.01021374
,,,,,,,,,,,,,,,,,,,,5,0,5,0,,,,,1,0,1,0,,,,,,,,,,,,,,,,,,,,,,,,,,,,,,,,,,,,,,,,,,,,,,,,,,,,,,,,,,,,,,,,,,,,,,,,,,,,,,,,,,,,,,,,,,,,,,,,,,,,,,,,,,,,,,,,,,,,,,,,,,,,,,,,,10,4,2,2024-10-20_09h07.37.475,uWM_experiment,2022.2.3,60.01021374
,,,,,,,,,,,,,,,,,,,,5,0,5,0,,,,,2,0,2,0,,,,,,,,,,,,,,,,,,,,,,,,,,,,,,,,,,,,,,,,,,,,,,,,,,,,,,,,,,,,,,,,,,,,,,,,,,,,,,,,,,,,,,,,,,,,,,,,,,,,,,,,,,,,,,,,,,,,,,,,,,,,,,,,,10,4,2,2024-10-20_09h07.37.475,uWM_experiment,2022.2.3,60.01021374
,,,,,,,,,,,,,,,,,,,,6,0,6,0,0,0,0,0,,,,,,,,,,,,,,,,,,,,,,,,,,,,,,,,,,,,,,,,,,,,,,,,,,,,,,,,,,,,,,,,,,,,,,0.025,,,,,,,,,,,,,,,,,,,,1601.216944,1601.916979,1602.217006,1602.917019,1603.217028,1603.917089,1603.917089,1604.233743,left,0,130,30,160,1,1608.317246,1608.317246,1608.317246,None,None,1,1,0.2219457,,,,,,,None,,,,,,,,,,,,,,,10,4,2,2024-10-20_09h07.37.475,uWM_experiment,2022.2.3,60.01021374
,,,,,,,,,,,,,,,,,,,,6,0,6,0,1,0,1,0,,,,,,,,,,,,,,,,,,,,,,,,,,,,,,,,,,,,,,,,,,,,,,,,,,,,,,,,,,,,,,,,,,,,,,0,,,,,,,,,,,,,,,,,,,,,,,,,,,,left,0,70,30,100,0,1614.067464,1614.067464,1614.067464,None,None,1,1,0.2477498,,,,,,,,,,,,,,,,,,,,,,10,4,2,2024-10-20_09h07.37.475,uWM_experiment,2022.2.3,60.01021374
,,,,,,,,,,,,,,,,,,,,6,0,6,0,2,0,2,0,,,,,,,,,,,,,,,,,,,,,,,,,,,,,,,,,,,,,,,,,,,,,,,,,,,,,,,,,,,,,,,,,,,,,,0.035,,,,,,,,,,,,,,,,,,,,,,,,,,,,right,1,10,30,40,1,1619.817704,1619.817704,1619.817704,None,None,1,1,0.257694,,,,,,,,,,,,,,,,,,,,,,10,4,2,2024-10-20_09h07.37.475,uWM_experiment,2022.2.3,60.01021374
,,,,,,,,,,,,,,,,,,,,6,0,6,0,3,0,3,0,,,,,,,,,,,,,,,,,,,,,,,,,,,,,,,,,,,,,,,,,,,,,,,,,,,,,,,,,,,,,,,,,,,,,,0.045,,,,,,,,,,,,,,,,,,,,,,,,,,,,left,1,70,-30,40,1,1626.051275,1626.051275,1626.051275,None,None,2,0,0.2878995,,,,,,,,,,,,,,,,,,,,,,10,4,2,2024-10-20_09h07.37.475,uWM_experiment,2022.2.3,60.01021374
,,,,,,,,,,,,,,,,,,,,6,0,6,0,4,0,4,0,,,,,,,,,,,,,,,,,,,,,,,,,,,,,,,,,,,,,,,,,,,,,,,,,,,,,,,,,,,,,,,,,,,,,,0.035,,,,,,,,,,,,,,,,,,,,,,,,,,,,left,1,40,-30,10,1,1632.984876,1632.984876,1632.984876,None,None,2,0,0.3862032,,,,,,,,,,,,,,,,,,,,,,10,4,2,2024-10-20_09h07.37.475,uWM_experiment,2022.2.3,60.01021374
,,,,,,,,,,,,,,,,,,,,6,0,6,0,5,0,5,0,,,,,,,,,,,,,,,,,,,,,,,,,,,,,,,,,,,,,,,,,,,,,,,,,,,,,,,,,,,,,,,,,,,,,,0.025,,,,,,,,,,,,,,,,,,,,,,,,,,,,left,0,130,30,160,1,1638.551775,1638.551775,1638.551775,None,None,1,1,0.8192769,,,,,,,,,,,,,,,,,,,,,,10,4,2,2024-10-20_09h07.37.475,uWM_experiment,2022.2.3,60.01021374
,,,,,,,,,,,,,,,,,,,,6,0,6,0,6,0,6,0,,,,,,,,,,,,,,,,,,,,,,,,,,,,,,,,,,,,,,,,,,,,,,,,,,,,,,,,,,,,,,,,,,,,,,0,,,,,,,,,,,,,,,,,,,,,,,,,,,,left,0,130,30,160,0,1644.535331,1644.535331,1644.535331,None,None,1,1,0.5557924,,,,,,,,,,,,,,,,,,,,,,10,4,2,2024-10-20_09h07.37.475,uWM_experiment,2022.2.3,60.01021374
,,,,,,,,,,,,,,,,,,,,6,0,6,0,7,0,7,0,,,,,,,,,,,,,,,,,,,,,,,,,,,,,,,,,,,,,,,,,,,,,,,,,,,,,,,,,,,,,,,,,,,,,,0,,,,,,,,,,,,,,,,,,,,,,,,,,,,right,0,40,-30,10,0,1651.252272,1651.252272,1651.252272,None,None,1,1,0.1668507,,,,,,,,,,,,,,,,,,,,,,10,4,2,2024-10-20_09h07.37.475,uWM_experiment,2022.2.3,60.01021374
,,,,,,,,,,,,,,,,,,,,6,0,6,0,8,0,8,0,,,,,,,,,,,,,,,,,,,,,,,,,,,,,,,,,,,,,,,,,,,,,,,,,,,,,,,,,,,,,,,,,,,,,,0.035,,,,,,,,,,,,,,,,,,,,,,,,,,,,left,1,70,-30,40,1,1657.78585,1657.78585,1657.78585,None,None,2,0,0.281215,,,,,,,,,,,,,,,,,,,,,,10,4,2,2024-10-20_09h07.37.475,uWM_experiment,2022.2.3,60.01021374
,,,,,,,,,,,,,,,,,,,,6,0,6,0,9,0,9,0,,,,,,,,,,,,,,,,,,,,,,,,,,,,,,,,,,,,,,,,,,,,,,,,,,,,,,,,,,,,,,,,,,,,,,0.025,,,,,,,,,,,,,,,,,,,,,,,,,,,,left,1,40,-30,10,1,1663.586096,1663.586096,1663.586096,None,None,1,1,0.2008402,,,,,,,,,,,,,,,,,,,,,,10,4,2,2024-10-20_09h07.37.475,uWM_experiment,2022.2.3,60.01021374
,,,,,,,,,,,,,,,,,,,,6,0,6,0,10,0,10,0,,,,,,,,,,,,,,,,,,,,,,,,,,,,,,,,,,,,,,,,,,,,,,,,,,,,,,,,,,,,,,,,,,,,,,0.035,,,,,,,,,,,,,,,,,,,,,,,,,,,,left,1,130,-30,100,1,1669.436309,1669.436309,1669.436309,None,None,2,0,0.5185994,,,,,,,,,,,,,,,,,,,,,,10,4,2,2024-10-20_09h07.37.475,uWM_experiment,2022.2.3,60.01021374
,,,,,,,,,,,,,,,,,,,,6,0,6,0,11,0,11,0,,,,,,,,,,,,,,,,,,,,,,,,,,,,,,,,,,,,,,,,,,,,,,,,,,,,,,,,,,,,,,,,,,,,,,0,,,,,,,,,,,,,,,,,,,,,,,,,,,,left,0,70,30,100,0,1675.63655,1675.63655,1675.63655,None,None,2,0,0.1504274,,,,,,,,,,,,,,,,,,,,,,10,4,2,2024-10-20_09h07.37.475,uWM_experiment,2022.2.3,60.01021374
,,,,,,,,,,,,,,,,,,,,6,0,6,0,12,0,12,0,,,,,,,,,,,,,,,,,,,,,,,,,,,,,,,,,,,,,,,,,,,,,,,,,,,,,,,,,,,,,,,,,,,,,,0,,,,,,,,,,,,,,,,,,,,,,,,,,,,left,1,10,-30,-20,0,1681.203447,1681.203447,1681.203447,None,None,1,1,0.3354027,,,,,,,,,,,,,,,,,,,,,,10,4,2,2024-10-20_09h07.37.475,uWM_experiment,2022.2.3,60.01021374
,,,,,,,,,,,,,,,,,,,,6,0,6,0,13,0,13,0,,,,,,,,,,,,,,,,,,,,,,,,,,,,,,,,,,,,,,,,,,,,,,,,,,,,,,,,,,,,,,,,,,,,,,0.025,,,,,,,,,,,,,,,,,,,,,,,,,,,,left,1,40,-30,10,1,1687.103688,1687.103688,1687.103688,None,None,2,0,0.1632261,,,,,,,,,,,,,,,,,,,,,,10,4,2,2024-10-20_09h07.37.475,uWM_experiment,2022.2.3,60.01021374
,,,,,,,,,,,,,,,,,,,,6,0,6,0,14,0,14,0,,,,,,,,,,,,,,,,,,,,,,,,,,,,,,,,,,,,,,,,,,,,,,,,,,,,,,,,,,,,,,,,,,,,,,0.015,,,,,,,,,,,,,,,,,,,,,,,,,,,,left,0,130,30,160,1,1692.837269,1692.837269,1692.837269,None,None,1,1,0.2936404,,,,,,,,,,,,,,,,,,,,,,10,4,2,2024-10-20_09h07.37.475,uWM_experiment,2022.2.3,60.01021374
,,,,,,,,,,,,,,,,,,,,6,0,6,0,15,0,15,0,,,,,,,,,,,,,,,,,,,,,,,,,,,,,,,,,,,,,,,,,,,,,,,,,,,,,,,,,,,,,,,,,,,,,,0.025,,,,,,,,,,,,,,,,,,,,,,,,,,,,left,1,130,-30,100,1,1698.737473,1698.737473,1698.737473,None,None,1,1,0.3614003,,,,,,,,,,,,,,,,,,,,,,10,4,2,2024-10-20_09h07.37.475,uWM_experiment,2022.2.3,60.01021374
,,,,,,,,,,,,,,,,,,,,6,0,6,0,16,0,16,0,,,,,,,,,,,,,,,,,,,,,,,,,,,,,,,,,,,,,,,,,,,,,,,,,,,,,,,,,,,,,,,,,,,,,,0.035,,,,,,,,,,,,,,,,,,,,,,,,,,,,left,0,100,30,130,1,1704.687698,1704.687698,1704.687698,None,None,2,0,0.2350487,,,,,,,,,,,,,,,,,,,,,,10,4,2,2024-10-20_09h07.37.475,uWM_experiment,2022.2.3,60.01021374
,,,,,,,,,,,,,,,,,,,,6,0,6,0,17,0,17,0,,,,,,,,,,,,,,,,,,,,,,,,,,,,,,,,,,,,,,,,,,,,,,,,,,,,,,,,,,,,,,,,,,,,,,0,,,,,,,,,,,,,,,,,,,,,,,,,,,,right,1,160,30,190,0,1710.487908,1710.487908,1710.487908,None,None,1,1,0.3628601,,,,,,,,,,,,,,,,,,,,,,10,4,2,2024-10-20_09h07.37.475,uWM_experiment,2022.2.3,60.01021374
,,,,,,,,,,,,,,,,,,,,6,0,6,0,18,0,18,0,,,,,,,,,,,,,,,,,,,,,,,,,,,,,,,,,,,,,,,,,,,,,,,,,,,,,,,,,,,,,,,,,,,,,,0,,,,,,,,,,,,,,,,,,,,,,,,,,,,left,1,130,-30,100,0,1716.404824,1716.404824,1716.404824,None,None,2,0,0.2218622,,,,,,,,,,,,,,,,,,,,,,10,4,2,2024-10-20_09h07.37.475,uWM_experiment,2022.2.3,60.01021374
,,,,,,,,,,,,,,,,,,,,6,0,6,0,19,0,19,0,,,,,,,,,,,,,,,,,,,,,,,,,,,,,,,,,,,,,,,,,,,,,,,,,,,,,,,,,,,,,,,,,,,,,,0.025,,,,,,,,,,,,,,,,,,,,,,,,,,,,right,1,40,30,70,1,1722.155076,1722.155076,1722.155076,None,None,1,1,0.4316914,,,,,,,,,,,,,,,,,,,,,,10,4,2,2024-10-20_09h07.37.475,uWM_experiment,2022.2.3,60.01021374
,,,,,,,,,,,,,,,,,,,,6,0,6,0,20,0,20,0,,,,,,,,,,,,,,,,,,,,,,,,,,,,,,,,,,,,,,,,,,,,,,,,,,,,,,,,,,,,,,,,,,,,,,0.035,,,,,,,,,,,,,,,,,,,,,,,,,,,,right,0,40,-30,10,1,1728.171975,1728.171975,1728.171975,None,None,1,1,0.3267427,,,,,,,,,,,,,,,,,,,,,,10,4,2,2024-10-20_09h07.37.475,uWM_experiment,2022.2.3,60.01021374
,,,,,,,,,,,,,,,,,,,,6,0,6,0,21,0,21,0,,,,,,,,,,,,,,,,,,,,,,,,,,,,,,,,,,,,,,,,,,,,,,,,,,,,,,,,,,,,,,,,,,,,,,0.045,,,,,,,,,,,,,,,,,,,,,,,,,,,,left,0,10,30,40,1,1734.005537,1734.005537,1734.005537,None,None,1,1,0.2291078,,,,,,,,,,,,,,,,,,,,,,10,4,2,2024-10-20_09h07.37.475,uWM_experiment,2022.2.3,60.01021374
,,,,,,,,,,,,,,,,,,,,6,0,6,0,22,0,22,0,,,,,,,,,,,,,,,,,,,,,,,,,,,,,,,,,,,,,,,,,,,,,,,,,,,,,,,,,,,,,,,,,,,,,,0.055,,,,,,,,,,,,,,,,,,,,,,,,,,,,left,1,70,-30,40,1,1740.489128,1740.489128,1740.489128,None,None,2,0,0.4336502,,,,,,,,,,,,,,,,,,,,,,10,4,2,2024-10-20_09h07.37.475,uWM_experiment,2022.2.3,60.01021374
,,,,,,,,,,,,,,,,,,,,6,0,6,0,23,0,23,0,,,,,,,,,,,,,,,,,,,,,,,,,,,,,,,,,,,,,,,,,,,,,,,,,,,,,,,,,,,,,,,,,,,,,,0.045,,,,,,,,,,,,,,,,,,,,,,,,,,,,left,1,70,-30,40,1,1746.889431,1746.889431,1746.889431,None,None,1,1,0.4412526,,,,,,,,,,,,,,,,,,,,,,10,4,2,2024-10-20_09h07.37.475,uWM_experiment,2022.2.3,60.01021374
,,,,,,,,,,,,,,,,,,,,6,0,6,0,,,,,0,0,0,0,,,,,,,,,,,,,,,,,,,,,,,,,,,,,,,,,,,,,,,,,,,,,,,,,,,,,,,,,,,,,,,,,,,,,,,,,,,,,,,,,,,,,,,,,,,,,,,,,,,,,,,,,,,,1747.356059,1747.356059,space,0.7106368,None,space,,,,,1748.089412,1748.089412,0.5293434,,,,,,,,,10,4,2,2024-10-20_09h07.37.475,uWM_experiment,2022.2.3,60.01021374
,,,,,,,,,,,,,,,,,,,,6,0,6,0,,,,,1,0,1,0,,,,,,,,,,,,,,,,,,,,,,,,,,,,,,,,,,,,,,,,,,,,,,,,,,,,,,,,,,,,,,,,,,,,,,,,,,,,,,,,,,,,,,,,,,,,,,,,,,,,,,,,,,,,,,,,,,,,,,,,,,,,,,,,,10,4,2,2024-10-20_09h07.37.475,uWM_experiment,2022.2.3,60.01021374
,,,,,,,,,,,,,,,,,,,,6,0,6,0,,,,,2,0,2,0,,,,,,,,,,,,,,,,,,,,,,,,,,,,,,,,,,,,,,,,,,,,,,,,,,,,,,,,,,,,,,,,,,,,,,,,,,,,,,,,,,,,,,,,,,,,,,,,,,,,,,,,,,,,,,,,,,,,,,,,,,,,,,,,,10,4,2,2024-10-20_09h07.37.475,uWM_experiment,2022.2.3,60.01021374
,,,,,,,,,,,,,,,,,,,,7,0,7,0,0,0,0,0,,,,,,,,,,,,,,,,,,,,,,,,,,,,,,,,,,,,,,,,,,,,,,,,,,,,,,,,,,,,,,,,,,,,,,0.055,,,,,,,,,,,,,,,,,,,,1759.30652,1760.006561,1760.289892,1760.989918,1761.289921,1761.989956,1761.989956,1762.306657,right,1,130,30,160,1,1766.973498,1766.973498,1766.973498,None,None,1,1,0.5010132,,,,,,,space,,,,,,,1758.356478,1758.356478,0.9181373,,,,,,10,4,2,2024-10-20_09h07.37.475,uWM_experiment,2022.2.3,60.01021374
,,,,,,,,,,,,,,,,,,,,7,0,7,0,1,0,1,0,,,,,,,,,,,,,,,,,,,,,,,,,,,,,,,,,,,,,,,,,,,,,,,,,,,,,,,,,,,,,,,,,,,,,,0,,,,,,,,,,,,,,,,,,,,,,,,,,,,left,1,70,-30,40,0,1773.107082,1773.107082,1773.107082,None,None,1,1,0.2473969,,,,,,,,,,,,,,,,,,,,,,10,4,2,2024-10-20_09h07.37.475,uWM_experiment,2022.2.3,60.01021374
,,,,,,,,,,,,,,,,,,,,7,0,7,0,2,0,2,0,,,,,,,,,,,,,,,,,,,,,,,,,,,,,,,,,,,,,,,,,,,,,,,,,,,,,,,,,,,,,,,,,,,,,,0.065,,,,,,,,,,,,,,,,,,,,,,,,,,,,right,1,100,30,130,1,1779.007337,1779.007337,1779.007337,None,None,2,0,0.363218,,,,,,,,,,,,,,,,,,,,,,10,4,2,2024-10-20_09h07.37.475,uWM_experiment,2022.2.3,60.01021374
,,,,,,,,,,,,,,,,,,,,7,0,7,0,3,0,3,0,,,,,,,,,,,,,,,,,,,,,,,,,,,,,,,,,,,,,,,,,,,,,,,,,,,,,,,,,,,,,,,,,,,,,,0,,,,,,,,,,,,,,,,,,,,,,,,,,,,left,0,160,30,190,0,1786.540932,1786.540932,1786.540932,None,None,1,1,0.3336304,,,,,,,,,,,,,,,,,,,,,,10,4,2,2024-10-20_09h07.37.475,uWM_experiment,2022.2.3,60.01021374
,,,,,,,,,,,,,,,,,,,,7,0,7,0,4,0,4,0,,,,,,,,,,,,,,,,,,,,,,,,,,,,,,,,,,,,,,,,,,,,,,,,,,,,,,,,,,,,,,,,,,,,,,0,,,,,,,,,,,,,,,,,,,,,,,,,,,,right,0,40,-30,10,0,1792.457836,1792.457836,1792.457836,None,None,1,1,0.4966026,,,,,,,,,,,,,,,,,,,,,,10,4,2,2024-10-20_09h07.37.475,uWM_experiment,2022.2.3,60.01021374
,,,,,,,,,,,,,,,,,,,,7,0,7,0,5,0,5,0,,,,,,,,,,,,,,,,,,,,,,,,,,,,,,,,,,,,,,,,,,,,,,,,,,,,,,,,,,,,,,,,,,,,,,0,,,,,,,,,,,,,,,,,,,,,,,,,,,,left,0,160,30,190,0,1798.474756,1798.474756,1798.474756,None,None,1,1,0.1997077,,,,,,,,,,,,,,,,,,,,,,10,4,2,2024-10-20_09h07.37.475,uWM_experiment,2022.2.3,60.01021374
,,,,,,,,,,,,,,,,,,,,7,0,7,0,6,0,6,0,,,,,,,,,,,,,,,,,,,,,,,,,,,,,,,,,,,,,,,,,,,,,,,,,,,,,,,,,,,,,,,,,,,,,,0.055,,,,,,,,,,,,,,,,,,,,,,,,,,,,left,0,10,30,40,1,1803.991629,1803.991629,1803.991629,None,None,2,0,0.2186858,,,,,,,,,,,,,,,,,,,,,,10,4,2,2024-10-20_09h07.37.475,uWM_experiment,2022.2.3,60.01021374
,,,,,,,,,,,,,,,,,,,,7,0,7,0,7,0,7,0,,,,,,,,,,,,,,,,,,,,,,,,,,,,,,,,,,,,,,,,,,,,,,,,,,,,,,,,,,,,,,,,,,,,,,0.045,,,,,,,,,,,,,,,,,,,,,,,,,,,,left,0,130,30,160,1,1809.708499,1809.708499,1809.708499,None,None,1,1,0.2699287,,,,,,,,,,,,,,,,,,,,,,10,4,2,2024-10-20_09h07.37.475,uWM_experiment,2022.2.3,60.01021374
,,,,,,,,,,,,,,,,,,,,7,0,7,0,8,0,8,0,,,,,,,,,,,,,,,,,,,,,,,,,,,,,,,,,,,,,,,,,,,,,,,,,,,,,,,,,,,,,,,,,,,,,,0.055,,,,,,,,,,,,,,,,,,,,,,,,,,,,left,1,10,-30,-20,1,1816.158792,1816.158792,1816.158792,None,None,1,1,0.1794361,,,,,,,,,,,,,,,,,,,,,,10,4,2,2024-10-20_09h07.37.475,uWM_experiment,2022.2.3,60.01021374
,,,,,,,,,,,,,,,,,,,,7,0,7,0,9,0,9,0,,,,,,,,,,,,,,,,,,,,,,,,,,,,,,,,,,,,,,,,,,,,,,,,,,,,,,,,,,,,,,,,,,,,,,0,,,,,,,,,,,,,,,,,,,,,,,,,,,,right,0,70,-30,40,0,1821.892351,1821.892351,1821.892351,None,None,1,1,0.3419123,,,,,,,,,,,,,,,,,,,,,,10,4,2,2024-10-20_09h07.37.475,uWM_experiment,2022.2.3,60.01021374
,,,,,,,,,,,,,,,,,,,,7,0,7,0,10,0,10,0,,,,,,,,,,,,,,,,,,,,,,,,,,,,,,,,,,,,,,,,,,,,,,,,,,,,,,,,,,,,,,,,,,,,,,0,,,,,,,,,,,,,,,,,,,,,,,,,,,,right,1,40,30,70,0,1827.659239,1827.659239,1827.659239,None,None,1,1,0.294995,,,,,,,,,,,,,,,,,,,,,,10,4,2,2024-10-20_09h07.37.475,uWM_experiment,2022.2.3,60.01021374
,,,,,,,,,,,,,,,,,,,,7,0,7,0,11,0,11,0,,,,,,,,,,,,,,,,,,,,,,,,,,,,,,,,,,,,,,,,,,,,,,,,,,,,,,,,,,,,,,,,,,,,,,0.065,,,,,,,,,,,,,,,,,,,,,,,,,,,,left,0,70,30,100,1,1833.376124,1833.376124,1833.376124,None,None,1,1,0.3461698,,,,,,,,,,,,,,,,,,,,,,10,4,2,2024-10-20_09h07.37.475,uWM_experiment,2022.2.3,60.01021374
,,,,,,,,,,,,,,,,,,,,7,0,7,0,12,0,12,0,,,,,,,,,,,,,,,,,,,,,,,,,,,,,,,,,,,,,,,,,,,,,,,,,,,,,,,,,,,,,,,,,,,,,,0.1,,,,,,,,,,,,,,,,,,,,,,,,,,,,right,1,160,30,190,2,1839.326391,1839.326391,1839.326391,None,None,4,0,0.4517817,,,,,,,,,,,,,,,,,,,,,,10,4,2,2024-10-20_09h07.37.475,uWM_experiment,2022.2.3,60.01021374
,,,,,,,,,,,,,,,,,,,,7,0,7,0,13,0,13,0,,,,,,,,,,,,,,,,,,,,,,,,,,,,,,,,,,,,,,,,,,,,,,,,,,,,,,,,,,,,,,,,,,,,,,0.075,,,,,,,,,,,,,,,,,,,,,,,,,,,,left,0,70,30,100,1,1845.393278,1845.393278,1845.393278,None,None,1,1,0.3129228,,,,,,,,,,,,,,,,,,,,,,10,4,2,2024-10-20_09h07.37.475,uWM_experiment,2022.2.3,60.01021374
,,,,,,,,,,,,,,,,,,,,7,0,7,0,14,0,14,0,,,,,,,,,,,,,,,,,,,,,,,,,,,,,,,,,,,,,,,,,,,,,,,,,,,,,,,,,,,,,,,,,,,,,,0,,,,,,,,,,,,,,,,,,,,,,,,,,,,left,0,160,30,190,0,1851.110159,1851.110159,1851.110159,None,None,1,1,0.3319939,,,,,,,,,,,,,,,,,,,,,,10,4,2,2024-10-20_09h07.37.475,uWM_experiment,2022.2.3,60.01021374
,,,,,,,,,,,,,,,,,,,,7,0,7,0,15,0,15,0,,,,,,,,,,,,,,,,,,,,,,,,,,,,,,,,,,,,,,,,,,,,,,,,,,,,,,,,,,,,,,,,,,,,,,0.1,,,,,,,,,,,,,,,,,,,,,,,,,,,,right,0,100,-30,70,2,1857.327084,1857.327084,1857.327084,None,None,3,0,2.091071,,,,,,,,,,,,,,,,,,,,,,10,4,2,2024-10-20_09h07.37.475,uWM_experiment,2022.2.3,60.01021374
,,,,,,,,,,,,,,,,,,,,7,0,7,0,16,0,16,0,,,,,,,,,,,,,,,,,,,,,,,,,,,,,,,,,,,,,,,,,,,,,,,,,,,,,,,,,,,,,,,,,,,,,,0,,,,,,,,,,,,,,,,,,,,,,,,,,,,left,1,130,-30,100,0,1864.944025,1864.944025,1864.944025,None,None,1,1,0.2900736,,,,,,,,,,,,,,,,,,,,,,10,4,2,2024-10-20_09h07.37.475,uWM_experiment,2022.2.3,60.01021374
,,,,,,,,,,,,,,,,,,,,7,0,7,0,17,0,17,0,,,,,,,,,,,,,,,,,,,,,,,,,,,,,,,,,,,,,,,,,,,,,,,,,,,,,,,,,,,,,,,,,,,,,,0.085,,,,,,,,,,,,,,,,,,,,,,,,,,,,left,1,130,-30,100,1,1870.844296,1870.844296,1870.844296,None,None,3,0,0.4137493,,,,,,,,,,,,,,,,,,,,,,10,4,2,2024-10-20_09h07.37.475,uWM_experiment,2022.2.3,60.01021374
,,,,,,,,,,,,,,,,,,,,7,0,7,0,18,0,18,0,,,,,,,,,,,,,,,,,,,,,,,,,,,,,,,,,,,,,,,,,,,,,,,,,,,,,,,,,,,,,,,,,,,,,,0,,,,,,,,,,,,,,,,,,,,,,,,,,,,right,0,100,-30,70,0,1877.794574,1877.794574,1877.794574,None,None,1,1,0.2873569,,,,,,,,,,,,,,,,,,,,,,10,4,2,2024-10-20_09h07.37.475,uWM_experiment,2022.2.3,60.01021374
,,,,,,,,,,,,,,,,,,,,7,0,7,0,19,0,19,0,,,,,,,,,,,,,,,,,,,,,,,,,,,,,,,,,,,,,,,,,,,,,,,,,,,,,,,,,,,,,,,,,,,,,,0.075,,,,,,,,,,,,,,,,,,,,,,,,,,,,left,1,160,-30,130,1,1883.728121,1883.728121,1883.728121,None,None,2,0,0.3218117,,,,,,,,,,,,,,,,,,,,,,10,4,2,2024-10-20_09h07.37.475,uWM_experiment,2022.2.3,60.01021374
,,,,,,,,,,,,,,,,,,,,7,0,7,0,20,0,20,0,,,,,,,,,,,,,,,,,,,,,,,,,,,,,,,,,,,,,,,,,,,,,,,,,,,,,,,,,,,,,,,,,,,,,,0.065,,,,,,,,,,,,,,,,,,,,,,,,,,,,left,0,70,30,100,1,1889.728339,1889.728339,1889.728339,None,None,2,0,0.2576262,,,,,,,,,,,,,,,,,,,,,,10,4,2,2024-10-20_09h07.37.475,uWM_experiment,2022.2.3,60.01021374
,,,,,,,,,,,,,,,,,,,,7,0,7,0,21,0,21,0,,,,,,,,,,,,,,,,,,,,,,,,,,,,,,,,,,,,,,,,,,,,,,,,,,,,,,,,,,,,,,,,,,,,,,0.055,,,,,,,,,,,,,,,,,,,,,,,,,,,,right,1,10,30,40,1,1895.545244,1895.545244,1895.545244,None,None,2,0,0.3607101,,,,,,,,,,,,,,,,,,,,,,10,4,2,2024-10-20_09h07.37.475,uWM_experiment,2022.2.3,60.01021374
,,,,,,,,,,,,,,,,,,,,7,0,7,0,22,0,22,0,,,,,,,,,,,,,,,,,,,,,,,,,,,,,,,,,,,,,,,,,,,,,,,,,,,,,,,,,,,,,,,,,,,,,,0.045,,,,,,,,,,,,,,,,,,,,,,,,,,,,left,1,130,-30,100,1,1901.478813,1901.478813,1901.478813,None,None,2,0,0.3870557,,,,,,,,,,,,,,,,,,,,,,10,4,2,2024-10-20_09h07.37.475,uWM_experiment,2022.2.3,60.01021374
,,,,,,,,,,,,,,,,,,,,7,0,7,0,23,0,23,0,,,,,,,,,,,,,,,,,,,,,,,,,,,,,,,,,,,,,,,,,,,,,,,,,,,,,,,,,,,,,,,,,,,,,,0.035,,,,,,,,,,,,,,,,,,,,,,,,,,,,right,0,10,-30,-20,1,1907.079046,1907.079046,1907.079046,None,None,1,1,0.0348053,,,,,,,,,,,,,,,,,,,,,,10,4,2,2024-10-20_09h07.37.475,uWM_experiment,2022.2.3,60.01021374
,,,,,,,,,,,,,,,,,,,,7,0,7,0,,,,,0,0,0,0,,,,,,,,,,,,,,,,,,,,,,,,,,,,,,,,,,,,,,,,,,,,,,,,,,,,,,,,,,,,,,,,,,,,,,,,,,,,,,,,,,,,,,,,,,,,,,,,,,,,,,,,,,,,1907.145682,1907.145682,space,1.2083098,None,None,,,,,,,,,,,,,,,,10,4,2,2024-10-20_09h07.37.475,uWM_experiment,2022.2.3,60.01021374
,,,,,,,,,,,,,,,,,,,,7,0,7,0,,,,,1,0,1,0,,,,,,,,,,,,,,,,,,,,,,,,,,,,,,,,,,,,,,,,,,,,,,,,,,,,,,,,,,,,,,,,,,,,,,,,,,,,,,,,,,,,,,,,,,,,,,,,,,,,,,,,,,,,,,,,,,,,,,,,,,,,,,,,,10,4,2,2024-10-20_09h07.37.475,uWM_experiment,2022.2.3,60.01021374
,,,,,,,,,,,,,,,,,,,,7,0,7,0,,,,,2,0,2,0,,,,,,,,,,,,,,,,,,,,,,,,,,,,,,,,,,,,,,,,,,,,,,,,,,,,,,,,,,,,,,,,,,,,,,,,,,,,,,,,,,,,,,,,,,,,,,,,,,,,,,,,,,,,,,,,,,,,,,,,,,,,,,,,,10,4,2,2024-10-20_09h07.37.475,uWM_experiment,2022.2.3,60.01021374
,,,,,,,,,,,,,,,,,,,,8,0,8,0,0,0,0,0,,,,,,,,,,,,,,,,,,,,,,,,,,,,,,,,,,,,,,,,,,,,,,,,,,,,,,,,,,,,,,,,,,,,,,0.045,,,,,,,,,,,,,,,,,,,,1908.379085,1909.079106,1909.379119,1910.079138,1910.379154,1911.079182,1911.079182,1911.395869,left,1,10,-30,-20,1,1915.796049,1915.796049,1915.796049,None,None,1,1,0.3579011,,,,,,,None,,,,,,,,,,,,,,,10,4,2,2024-10-20_09h07.37.475,uWM_experiment,2022.2.3,60.01021374
,,,,,,,,,,,,,,,,,,,,8,0,8,0,1,0,1,0,,,,,,,,,,,,,,,,,,,,,,,,,,,,,,,,,,,,,,,,,,,,,,,,,,,,,,,,,,,,,,,,,,,,,,0.055,,,,,,,,,,,,,,,,,,,,,,,,,,,,right,1,160,30,190,1,1921.496298,1921.496298,1921.496298,None,None,2,0,0.2815128,,,,,,,,,,,,,,,,,,,,,,10,4,2,2024-10-20_09h07.37.475,uWM_experiment,2022.2.3,60.01021374
,,,,,,,,,,,,,,,,,,,,8,0,8,0,2,0,2,0,,,,,,,,,,,,,,,,,,,,,,,,,,,,,,,,,,,,,,,,,,,,,,,,,,,,,,,,,,,,,,,,,,,,,,0.045,,,,,,,,,,,,,,,,,,,,,,,,,,,,left,0,130,30,160,1,1927.029822,1927.029822,1927.029822,None,None,2,0,0.2760305,,,,,,,,,,,,,,,,,,,,,,10,4,2,2024-10-20_09h07.37.475,uWM_experiment,2022.2.3,60.01021374
,,,,,,,,,,,,,,,,,,,,8,0,8,0,3,0,3,0,,,,,,,,,,,,,,,,,,,,,,,,,,,,,,,,,,,,,,,,,,,,,,,,,,,,,,,,,,,,,,,,,,,,,,0.035,,,,,,,,,,,,,,,,,,,,,,,,,,,,left,0,100,30,130,1,1932.71339,1932.71339,1932.71339,None,None,1,1,0.2083211,,,,,,,,,,,,,,,,,,,,,,10,4,2,2024-10-20_09h07.37.475,uWM_experiment,2022.2.3,60.01021374
,,,,,,,,,,,,,,,,,,,,8,0,8,0,4,0,4,0,,,,,,,,,,,,,,,,,,,,,,,,,,,,,,,,,,,,,,,,,,,,,,,,,,,,,,,,,,,,,,,,,,,,,,0,,,,,,,,,,,,,,,,,,,,,,,,,,,,left,0,70,30,100,0,1938.263596,1938.263596,1938.263596,None,None,1,1,0.2021592,,,,,,,,,,,,,,,,,,,,,,10,4,2,2024-10-20_09h07.37.475,uWM_experiment,2022.2.3,60.01021374
,,,,,,,,,,,,,,,,,,,,8,0,8,0,5,0,5,0,,,,,,,,,,,,,,,,,,,,,,,,,,,,,,,,,,,,,,,,,,,,,,,,,,,,,,,,,,,,,,,,,,,,,,0.045,,,,,,,,,,,,,,,,,,,,,,,,,,,,right,0,100,-30,70,1,1943.830488,1943.830488,1943.830488,None,None,1,1,0.2191777,,,,,,,,,,,,,,,,,,,,,,10,4,2,2024-10-20_09h07.37.475,uWM_experiment,2022.2.3,60.01021374
,,,,,,,,,,,,,,,,,,,,8,0,8,0,6,0,6,0,,,,,,,,,,,,,,,,,,,,,,,,,,,,,,,,,,,,,,,,,,,,,,,,,,,,,,,,,,,,,,,,,,,,,,0.055,,,,,,,,,,,,,,,,,,,,,,,,,,,,left,1,70,-30,40,1,1949.880729,1949.880729,1949.880729,None,None,2,0,0.3609283,,,,,,,,,,,,,,,,,,,,,,10,4,2,2024-10-20_09h07.37.475,uWM_experiment,2022.2.3,60.01021374
,,,,,,,,,,,,,,,,,,,,8,0,8,0,7,0,7,0,,,,,,,,,,,,,,,,,,,,,,,,,,,,,,,,,,,,,,,,,,,,,,,,,,,,,,,,,,,,,,,,,,,,,,0.045,,,,,,,,,,,,,,,,,,,,,,,,,,,,right,0,40,-30,10,1,1955.914301,1955.914301,1955.914301,None,None,1,1,0.2633272,,,,,,,,,,,,,,,,,,,,,,10,4,2,2024-10-20_09h07.37.475,uWM_experiment,2022.2.3,60.01021374
,,,,,,,,,,,,,,,,,,,,8,0,8,0,8,0,8,0,,,,,,,,,,,,,,,,,,,,,,,,,,,,,,,,,,,,,,,,,,,,,,,,,,,,,,,,,,,,,,,,,,,,,,0.055,,,,,,,,,,,,,,,,,,,,,,,,,,,,right,1,10,30,40,1,1961.614522,1961.614522,1961.614522,None,None,2,0,0.2672555,,,,,,,,,,,,,,,,,,,,,,10,4,2,2024-10-20_09h07.37.475,uWM_experiment,2022.2.3,60.01021374
,,,,,,,,,,,,,,,,,,,,8,0,8,0,9,0,9,0,,,,,,,,,,,,,,,,,,,,,,,,,,,,,,,,,,,,,,,,,,,,,,,,,,,,,,,,,,,,,,,,,,,,,,0.045,,,,,,,,,,,,,,,,,,,,,,,,,,,,left,0,100,30,130,1,1967.19807,1967.19807,1967.19807,None,None,1,1,2.0355399,,,,,,,,,,,,,,,,,,,,,,10,4,2,2024-10-20_09h07.37.475,uWM_experiment,2022.2.3,60.01021374
,,,,,,,,,,,,,,,,,,,,8,0,8,0,10,0,10,0,,,,,,,,,,,,,,,,,,,,,,,,,,,,,,,,,,,,,,,,,,,,,,,,,,,,,,,,,,,,,,,,,,,,,,0.055,,,,,,,,,,,,,,,,,,,,,,,,,,,,left,0,70,30,100,1,1974.665052,1974.665052,1974.665052,None,None,2,0,0.3524771,,,,,,,,,,,,,,,,,,,,,,10,4,2,2024-10-20_09h07.37.475,uWM_experiment,2022.2.3,60.01021374
,,,,,,,,,,,,,,,,,,,,8,0,8,0,11,0,11,0,,,,,,,,,,,,,,,,,,,,,,,,,,,,,,,,,,,,,,,,,,,,,,,,,,,,,,,,,,,,,,,,,,,,,,0.045,,,,,,,,,,,,,,,,,,,,,,,,,,,,left,0,70,30,100,1,1980.548595,1980.548595,1980.548595,None,None,2,0,0.2290772,,,,,,,,,,,,,,,,,,,,,,10,4,2,2024-10-20_09h07.37.475,uWM_experiment,2022.2.3,60.01021374
,,,,,,,,,,,,,,,,,,,,8,0,8,0,12,0,12,0,,,,,,,,,,,,,,,,,,,,,,,,,,,,,,,,,,,,,,,,,,,,,,,,,,,,,,,,,,,,,,,,,,,,,,0,,,,,,,,,,,,,,,,,,,,,,,,,,,,left,1,130,-30,100,0,1986.282175,1986.282175,1986.282175,None,None,1,1,0.2393103,,,,,,,,,,,,,,,,,,,,,,10,4,2,2024-10-20_09h07.37.475,uWM_experiment,2022.2.3,60.01021374
,,,,,,,,,,,,,,,,,,,,8,0,8,0,13,0,13,0,,,,,,,,,,,,,,,,,,,,,,,,,,,,,,,,,,,,,,,,,,,,,,,,,,,,,,,,,,,,,,,,,,,,,,0.035,,,,,,,,,,,,,,,,,,,,,,,,,,,,left,0,70,30,100,1,1991.749043,1991.749043,1991.749043,None,None,1,1,1.9405023,,,,,,,,,,,,,,,,,,,,,,10,4,2,2024-10-20_09h07.37.475,uWM_experiment,2022.2.3,60.01021374
,,,,,,,,,,,,,,,,,,,,8,0,8,0,14,0,14,0,,,,,,,,,,,,,,,,,,,,,,,,,,,,,,,,,,,,,,,,,,,,,,,,,,,,,,,,,,,,,,,,,,,,,,0.045,,,,,,,,,,,,,,,,,,,,,,,,,,,,left,1,10,-30,-20,1,1999.532699,1999.532699,1999.532699,None,None,1,1,0.4047238,,,,,,,,,,,,,,,,,,,,,,10,4,2,2024-10-20_09h07.37.475,uWM_experiment,2022.2.3,60.01021374
,,,,,,,,,,,,,,,,,,,,8,0,8,0,15,0,15,0,,,,,,,,,,,,,,,,,,,,,,,,,,,,,,,,,,,,,,,,,,,,,,,,,,,,,,,,,,,,,,,,,,,,,,0,,,,,,,,,,,,,,,,,,,,,,,,,,,,right,0,70,-30,40,0,2005.382928,2005.382928,2005.382928,None,None,1,1,0.2745178,,,,,,,,,,,,,,,,,,,,,,10,4,2,2024-10-20_09h07.37.475,uWM_experiment,2022.2.3,60.01021374
,,,,,,,,,,,,,,,,,,,,8,0,8,0,16,0,16,0,,,,,,,,,,,,,,,,,,,,,,,,,,,,,,,,,,,,,,,,,,,,,,,,,,,,,,,,,,,,,,,,,,,,,,0.055,,,,,,,,,,,,,,,,,,,,,,,,,,,,left,1,160,-30,130,1,2011.099793,2011.099793,2011.099793,None,None,1,1,0.3015948,,,,,,,,,,,,,,,,,,,,,,10,4,2,2024-10-20_09h07.37.475,uWM_experiment,2022.2.3,60.01021374
,,,,,,,,,,,,,,,,,,,,8,0,8,0,17,0,17,0,,,,,,,,,,,,,,,,,,,,,,,,,,,,,,,,,,,,,,,,,,,,,,,,,,,,,,,,,,,,,,,,,,,,,,0.065,,,,,,,,,,,,,,,,,,,,,,,,,,,,left,0,100,30,130,1,2016.633357,2016.633357,2016.633357,None,None,1,1,0.2959855,,,,,,,,,,,,,,,,,,,,,,10,4,2,2024-10-20_09h07.37.475,uWM_experiment,2022.2.3,60.01021374
,,,,,,,,,,,,,,,,,,,,8,0,8,0,18,0,18,0,,,,,,,,,,,,,,,,,,,,,,,,,,,,,,,,,,,,,,,,,,,,,,,,,,,,,,,,,,,,,,,,,,,,,,0.075,,,,,,,,,,,,,,,,,,,,,,,,,,,,left,1,160,-30,130,1,2022.533579,2022.533579,2022.533579,None,None,1,1,0.1959113,,,,,,,,,,,,,,,,,,,,,,10,4,2,2024-10-20_09h07.37.475,uWM_experiment,2022.2.3,60.01021374
,,,,,,,,,,,,,,,,,,,,8,0,8,0,19,0,19,0,,,,,,,,,,,,,,,,,,,,,,,,,,,,,,,,,,,,,,,,,,,,,,,,,,,,,,,,,,,,,,,,,,,,,,0.1,,,,,,,,,,,,,,,,,,,,,,,,,,,,right,1,130,30,160,2,2028.717184,2028.717184,2028.717184,None,None,2,0,0.3961777,,,,,,,,,,,,,,,,,,,,,,10,4,2,2024-10-20_09h07.37.475,uWM_experiment,2022.2.3,60.01021374
,,,,,,,,,,,,,,,,,,,,8,0,8,0,20,0,20,0,,,,,,,,,,,,,,,,,,,,,,,,,,,,,,,,,,,,,,,,,,,,,,,,,,,,,,,,,,,,,,,,,,,,,,0.085,,,,,,,,,,,,,,,,,,,,,,,,,,,,left,1,40,-30,10,1,2035.084095,2035.084095,2035.084095,None,None,2,0,0.5172442,,,,,,,,,,,,,,,,,,,,,,10,4,2,2024-10-20_09h07.37.475,uWM_experiment,2022.2.3,60.01021374
,,,,,,,,,,,,,,,,,,,,8,0,8,0,21,0,21,0,,,,,,,,,,,,,,,,,,,,,,,,,,,,,,,,,,,,,,,,,,,,,,,,,,,,,,,,,,,,,,,,,,,,,,0.075,,,,,,,,,,,,,,,,,,,,,,,,,,,,left,1,70,-30,40,1,2041.484335,2041.484335,2041.484335,None,None,2,0,0.525008,,,,,,,,,,,,,,,,,,,,,,10,4,2,2024-10-20_09h07.37.475,uWM_experiment,2022.2.3,60.01021374
,,,,,,,,,,,,,,,,,,,,8,0,8,0,22,0,22,0,,,,,,,,,,,,,,,,,,,,,,,,,,,,,,,,,,,,,,,,,,,,,,,,,,,,,,,,,,,,,,,,,,,,,,0,,,,,,,,,,,,,,,,,,,,,,,,,,,,left,0,10,30,40,0,2047.134559,2047.134559,2047.134559,None,None,1,1,0.1866083,,,,,,,,,,,,,,,,,,,,,,10,4,2,2024-10-20_09h07.37.475,uWM_experiment,2022.2.3,60.01021374
,,,,,,,,,,,,,,,,,,,,8,0,8,0,23,0,23,0,,,,,,,,,,,,,,,,,,,,,,,,,,,,,,,,,,,,,,,,,,,,,,,,,,,,,,,,,,,,,,,,,,,,,,0,,,,,,,,,,,,,,,,,,,,,,,,,,,,left,1,40,-30,10,0,2052.468095,2052.468095,2052.468095,None,None,1,1,0.1652394,,,,,,,,,,,,,,,,,,,,,,10,4,2,2024-10-20_09h07.37.475,uWM_experiment,2022.2.3,60.01021374
,,,,,,,,,,,,,,,,,,,,8,0,8,0,,,,,0,0,0,0,,,,,,,,,,,,,,,,,,,,,,,,,,,,,,,,,,,,,,,,,,,,,,,,,,,,,,,,,,,,,,,,,,,,,,,,,,,,,,,,,,,,,,,,,,,,,,,,,,,,,,,,,,,,2052.651445,2052.651445,space,0.6618841,space,None,,2053.334802,2053.334802,0.4985417,,,,,,,,,,,,10,4,2,2024-10-20_09h07.37.475,uWM_experiment,2022.2.3,60.01021374
,,,,,,,,,,,,,,,,,,,,8,0,8,0,,,,,1,0,1,0,,,,,,,,,,,,,,,,,,,,,,,,,,,,,,,,,,,,,,,,,,,,,,,,,,,,,,,,,,,,,,,,,,,,,,,,,,,,,,,,,,,,,,,,,,,,,,,,,,,,,,,,,,,,,,,,,,,,,,,,,,,,,,,,,10,4,2,2024-10-20_09h07.37.475,uWM_experiment,2022.2.3,60.01021374
,,,,,,,,,,,,,,,,,,,,8,0,8,0,,,,,2,0,2,0,,,,,,,,,,,,,,,,,,,,,,,,,,,,,,,,,,,,,,,,,,,,,,,,,,,,,,,,,,,,,,,,,,,,,,,,,,,,,,,,,,,,,,,,,,,,,,,,,,,,,,,,,,,,,,,,,,,,,,,,,,,,,,,,,10,4,2,2024-10-20_09h07.37.475,uWM_experiment,2022.2.3,60.01021374
,,,,,,,,,,,,,,,,,,,,9,0,9,0,0,0,0,0,,,,,,,,,,,,,,,,,,,,,,,,,,,,,,,,,,,,,,,,,,,,,,,,,,,,,,,,,,,,,,,,,,,,,,0,,,,,,,,,,,,,,,,,,,,2053.851479,2054.551509,2054.851523,2055.551548,2055.851561,2056.551591,2056.551591,2056.868289,left,1,70,-30,40,0,2061.585152,2061.585152,2061.585152,None,None,1,1,0.1919974,,,,,,,None,,,,,,,,,,,,,,,10,4,2,2024-10-20_09h07.37.475,uWM_experiment,2022.2.3,60.01021374
,,,,,,,,,,,,,,,,,,,,9,0,9,0,1,0,1,0,,,,,,,,,,,,,,,,,,,,,,,,,,,,,,,,,,,,,,,,,,,,,,,,,,,,,,,,,,,,,,,,,,,,,,0.065,,,,,,,,,,,,,,,,,,,,,,,,,,,,right,1,10,30,40,1,2067.318701,2067.318701,2067.318701,None,None,2,0,0.2184715,,,,,,,,,,,,,,,,,,,,,,10,4,2,2024-10-20_09h07.37.475,uWM_experiment,2022.2.3,60.01021374
,,,,,,,,,,,,,,,,,,,,9,0,9,0,2,0,2,0,,,,,,,,,,,,,,,,,,,,,,,,,,,,,,,,,,,,,,,,,,,,,,,,,,,,,,,,,,,,,,,,,,,,,,0.055,,,,,,,,,,,,,,,,,,,,,,,,,,,,left,1,130,-30,100,1,2073.102248,2073.102248,2073.102248,None,None,1,1,0.1149551,,,,,,,,,,,,,,,,,,,,,,10,4,2,2024-10-20_09h07.37.475,uWM_experiment,2022.2.3,60.01021374
,,,,,,,,,,,,,,,,,,,,9,0,9,0,3,0,3,0,,,,,,,,,,,,,,,,,,,,,,,,,,,,,,,,,,,,,,,,,,,,,,,,,,,,,,,,,,,,,,,,,,,,,,0.065,,,,,,,,,,,,,,,,,,,,,,,,,,,,right,1,160,30,190,1,2078.569145,2078.569145,2078.569145,None,None,1,1,0.2320892,,,,,,,,,,,,,,,,,,,,,,10,4,2,2024-10-20_09h07.37.475,uWM_experiment,2022.2.3,60.01021374
,,,,,,,,,,,,,,,,,,,,9,0,9,0,4,0,4,0,,,,,,,,,,,,,,,,,,,,,,,,,,,,,,,,,,,,,,,,,,,,,,,,,,,,,,,,,,,,,,,,,,,,,,0.075,,,,,,,,,,,,,,,,,,,,,,,,,,,,left,1,40,-30,10,1,2084.502714,2084.502714,2084.502714,None,None,2,0,0.2743789,,,,,,,,,,,,,,,,,,,,,,10,4,2,2024-10-20_09h07.37.475,uWM_experiment,2022.2.3,60.01021374
,,,,,,,,,,,,,,,,,,,,9,0,9,0,5,0,5,0,,,,,,,,,,,,,,,,,,,,,,,,,,,,,,,,,,,,,,,,,,,,,,,,,,,,,,,,,,,,,,,,,,,,,,0.1,,,,,,,,,,,,,,,,,,,,,,,,,,,,right,1,10,30,40,2,2090.852966,2090.852966,2090.852966,None,None,4,0,0.396067,,,,,,,,,,,,,,,,,,,,,,10,4,2,2024-10-20_09h07.37.475,uWM_experiment,2022.2.3,60.01021374
,,,,,,,,,,,,,,,,,,,,9,0,9,0,6,0,6,0,,,,,,,,,,,,,,,,,,,,,,,,,,,,,,,,,,,,,,,,,,,,,,,,,,,,,,,,,,,,,,,,,,,,,,0.065,,,,,,,,,,,,,,,,,,,,,,,,,,,,right,1,130,30,160,1,2097.036541,2097.036541,2097.036541,None,None,2,0,0.2844294,,,,,,,,,,,,,,,,,,,,,,10,4,2,2024-10-20_09h07.37.475,uWM_experiment,2022.2.3,60.01021374
,,,,,,,,,,,,,,,,,,,,9,0,9,0,7,0,7,0,,,,,,,,,,,,,,,,,,,,,,,,,,,,,,,,,,,,,,,,,,,,,,,,,,,,,,,,,,,,,,,,,,,,,,0.055,,,,,,,,,,,,,,,,,,,,,,,,,,,,left,1,130,-30,100,1,2103.003439,2103.003439,2103.003439,None,None,2,0,0.2214601,,,,,,,,,,,,,,,,,,,,,,10,4,2,2024-10-20_09h07.37.475,uWM_experiment,2022.2.3,60.01021374
,,,,,,,,,,,,,,,,,,,,9,0,9,0,8,0,8,0,,,,,,,,,,,,,,,,,,,,,,,,,,,,,,,,,,,,,,,,,,,,,,,,,,,,,,,,,,,,,,,,,,,,,,0,,,,,,,,,,,,,,,,,,,,,,,,,,,,left,0,70,30,100,0,2108.653651,2108.653651,2108.653651,None,None,1,1,0.1234309,,,,,,,,,,,,,,,,,,,,,,10,4,2,2024-10-20_09h07.37.475,uWM_experiment,2022.2.3,60.01021374
,,,,,,,,,,,,,,,,,,,,9,0,9,0,9,0,9,0,,,,,,,,,,,,,,,,,,,,,,,,,,,,,,,,,,,,,,,,,,,,,,,,,,,,,,,,,,,,,,,,,,,,,,0.045,,,,,,,,,,,,,,,,,,,,,,,,,,,,right,1,40,30,70,1,2114.753889,2114.753889,2114.753889,None,None,2,0,0.1591447,,,,,,,,,,,,,,,,,,,,,,10,4,2,2024-10-20_09h07.37.475,uWM_experiment,2022.2.3,60.01021374
,,,,,,,,,,,,,,,,,,,,9,0,9,0,10,0,10,0,,,,,,,,,,,,,,,,,,,,,,,,,,,,,,,,,,,,,,,,,,,,,,,,,,,,,,,,,,,,,,,,,,,,,,0.035,,,,,,,,,,,,,,,,,,,,,,,,,,,,right,1,10,30,40,1,2120.354114,2120.354114,2120.354114,None,None,2,0,0.2147684,,,,,,,,,,,,,,,,,,,,,,10,4,2,2024-10-20_09h07.37.475,uWM_experiment,2022.2.3,60.01021374
,,,,,,,,,,,,,,,,,,,,9,0,9,0,11,0,11,0,,,,,,,,,,,,,,,,,,,,,,,,,,,,,,,,,,,,,,,,,,,,,,,,,,,,,,,,,,,,,,,,,,,,,,0,,,,,,,,,,,,,,,,,,,,,,,,,,,,right,1,160,30,190,0,2126.08767,2126.08767,2126.08767,None,None,1,1,0.2172471,,,,,,,,,,,,,,,,,,,,,,10,4,2,2024-10-20_09h07.37.475,uWM_experiment,2022.2.3,60.01021374
,,,,,,,,,,,,,,,,,,,,9,0,9,0,12,0,12,0,,,,,,,,,,,,,,,,,,,,,,,,,,,,,,,,,,,,,,,,,,,,,,,,,,,,,,,,,,,,,,,,,,,,,,0,,,,,,,,,,,,,,,,,,,,,,,,,,,,right,1,70,30,100,0,2131.904591,2131.904591,2131.904591,None,None,2,0,0.456347,,,,,,,,,,,,,,,,,,,,,,10,4,2,2024-10-20_09h07.37.475,uWM_experiment,2022.2.3,60.01021374
,,,,,,,,,,,,,,,,,,,,9,0,9,0,13,0,13,0,,,,,,,,,,,,,,,,,,,,,,,,,,,,,,,,,,,,,,,,,,,,,,,,,,,,,,,,,,,,,,,,,,,,,,0,,,,,,,,,,,,,,,,,,,,,,,,,,,,left,1,10,-30,-20,0,2137.8548,2137.8548,2137.8548,None,None,1,1,0.1540841,,,,,,,,,,,,,,,,,,,,,,10,4,2,2024-10-20_09h07.37.475,uWM_experiment,2022.2.3,60.01021374
,,,,,,,,,,,,,,,,,,,,9,0,9,0,14,0,14,0,,,,,,,,,,,,,,,,,,,,,,,,,,,,,,,,,,,,,,,,,,,,,,,,,,,,,,,,,,,,,,,,,,,,,,0,,,,,,,,,,,,,,,,,,,,,,,,,,,,right,1,100,30,130,0,2143.37169,2143.37169,2143.37169,None,None,1,1,0.1732079,,,,,,,,,,,,,,,,,,,,,,10,4,2,2024-10-20_09h07.37.475,uWM_experiment,2022.2.3,60.01021374
,,,,,,,,,,,,,,,,,,,,9,0,9,0,15,0,15,0,,,,,,,,,,,,,,,,,,,,,,,,,,,,,,,,,,,,,,,,,,,,,,,,,,,,,,,,,,,,,,,,,,,,,,0.025,,,,,,,,,,,,,,,,,,,,,,,,,,,,left,1,130,-30,100,1,2148.705248,2148.705248,2148.705248,None,None,1,1,0.2155669,,,,,,,,,,,,,,,,,,,,,,10,4,2,2024-10-20_09h07.37.475,uWM_experiment,2022.2.3,60.01021374
,,,,,,,,,,,,,,,,,,,,9,0,9,0,16,0,16,0,,,,,,,,,,,,,,,,,,,,,,,,,,,,,,,,,,,,,,,,,,,,,,,,,,,,,,,,,,,,,,,,,,,,,,0,,,,,,,,,,,,,,,,,,,,,,,,,,,,right,1,70,30,100,0,2154.055464,2154.055464,2154.055464,None,None,1,1,0.1853058,,,,,,,,,,,,,,,,,,,,,,10,4,2,2024-10-20_09h07.37.475,uWM_experiment,2022.2.3,60.01021374
,,,,,,,,,,,,,,,,,,,,9,0,9,0,17,0,17,0,,,,,,,,,,,,,,,,,,,,,,,,,,,,,,,,,,,,,,,,,,,,,,,,,,,,,,,,,,,,,,,,,,,,,,0.035,,,,,,,,,,,,,,,,,,,,,,,,,,,,left,1,100,-30,70,1,2159.93904,2159.93904,2159.93904,None,None,1,1,0.1657724,,,,,,,,,,,,,,,,,,,,,,10,4,2,2024-10-20_09h07.37.475,uWM_experiment,2022.2.3,60.01021374
,,,,,,,,,,,,,,,,,,,,9,0,9,0,18,0,18,0,,,,,,,,,,,,,,,,,,,,,,,,,,,,,,,,,,,,,,,,,,,,,,,,,,,,,,,,,,,,,,,,,,,,,,0.045,,,,,,,,,,,,,,,,,,,,,,,,,,,,right,1,40,30,70,1,2165.489217,2165.489217,2165.489217,None,None,1,1,0.2874516,,,,,,,,,,,,,,,,,,,,,,10,4,2,2024-10-20_09h07.37.475,uWM_experiment,2022.2.3,60.01021374
,,,,,,,,,,,,,,,,,,,,9,0,9,0,19,0,19,0,,,,,,,,,,,,,,,,,,,,,,,,,,,,,,,,,,,,,,,,,,,,,,,,,,,,,,,,,,,,,,,,,,,,,,0.055,,,,,,,,,,,,,,,,,,,,,,,,,,,,right,1,100,30,130,1,2170.939444,2170.939444,2170.939444,None,None,1,1,0.1492179,,,,,,,,,,,,,,,,,,,,,,10,4,2,2024-10-20_09h07.37.475,uWM_experiment,2022.2.3,60.01021374
,,,,,,,,,,,,,,,,,,,,9,0,9,0,20,0,20,0,,,,,,,,,,,,,,,,,,,,,,,,,,,,,,,,,,,,,,,,,,,,,,,,,,,,,,,,,,,,,,,,,,,,,,0,,,,,,,,,,,,,,,,,,,,,,,,,,,,right,0,10,-30,-20,0,2176.256339,2176.256339,2176.256339,None,None,1,1,0.0963894,,,,,,,,,,,,,,,,,,,,,,10,4,2,2024-10-20_09h07.37.475,uWM_experiment,2022.2.3,60.01021374
,,,,,,,,,,,,,,,,,,,,9,0,9,0,21,0,21,0,,,,,,,,,,,,,,,,,,,,,,,,,,,,,,,,,,,,,,,,,,,,,,,,,,,,,,,,,,,,,,,,,,,,,,0.065,,,,,,,,,,,,,,,,,,,,,,,,,,,,right,1,100,30,130,1,2181.973229,2181.973229,2181.973229,None,None,1,1,0.1314624,,,,,,,,,,,,,,,,,,,,,,10,4,2,2024-10-20_09h07.37.475,uWM_experiment,2022.2.3,60.01021374
,,,,,,,,,,,,,,,,,,,,9,0,9,0,22,0,22,0,,,,,,,,,,,,,,,,,,,,,,,,,,,,,,,,,,,,,,,,,,,,,,,,,,,,,,,,,,,,,,,,,,,,,,0.075,,,,,,,,,,,,,,,,,,,,,,,,,,,,right,1,160,30,190,1,2187.540099,2187.540099,2187.540099,None,None,2,0,0.2605786,,,,,,,,,,,,,,,,,,,,,,10,4,2,2024-10-20_09h07.37.475,uWM_experiment,2022.2.3,60.01021374
,,,,,,,,,,,,,,,,,,,,9,0,9,0,23,0,23,0,,,,,,,,,,,,,,,,,,,,,,,,,,,,,,,,,,,,,,,,,,,,,,,,,,,,,,,,,,,,,,,,,,,,,,0,,,,,,,,,,,,,,,,,,,,,,,,,,,,right,1,130,30,160,0,2193.056984,2193.056984,2193.056984,None,None,1,1,0.1676924,,,,,,,,,,,,,,,,,,,,,,10,4,2,2024-10-20_09h07.37.475,uWM_experiment,2022.2.3,60.01021374
,,,,,,,,,,,,,,,,,,,,9,0,9,0,,,,,0,0,0,0,,,,,,,,,,,,,,,,,,,,,,,,,,,,,,,,,,,,,,,,,,,,,,,,,,,,,,,,,,,,,,,,,,,,,,,,,,,,,,,,,,,,,,,,,,,,,,,,,,,,,,,,,,,,2193.256986,2193.256986,space,0.9596704,None,None,,,,,,,,,,,,,,,,10,4,2,2024-10-20_09h07.37.475,uWM_experiment,2022.2.3,60.01021374
,,,,,,,,,,,,,,,,,,,,9,0,9,0,,,,,1,0,1,0,,,,,,,,,,,,,,,,,,,,,,,,,,,,,,,,,,,,,,,,,,,,,,,,,,,,,,,,,,,,,,,,,,,,,,,,,,,,,,,,,,,,,,,,,,,,,,,,,,,,,,,,,,,,,,,,,,,,,,,,,,,,,,,,,10,4,2,2024-10-20_09h07.37.475,uWM_experiment,2022.2.3,60.01021374
,,,,,,,,,,,,,,,,,,,,9,0,9,0,,,,,2,0,2,0,,,,,,,,,,,,,,,,,,,,,,,,,,,,,,,,,,,,,,,,,,,,,,,,,,,,,,,,,,,,,,,,,,,,,,,,,,,,,,,,,,,,,,,,,,,,,,,,,,,,,,,,,,,,,,,,,,,,,,,,,,,,,,,,,10,4,2,2024-10-20_09h07.37.475,uWM_experiment,2022.2.3,60.01021374
,,,,,,,,,,,,,,,,,,,,10,0,10,0,0,0,0,0,,,,,,,,,,,,,,,,,,,,,,,,,,,,,,,,,,,,,,,,,,,,,,,,,,,,,,,,,,,,,,,,,,,,,,0.065,,,,,,,,,,,,,,,,,,,,2194.240354,2194.940383,2195.240394,2195.940424,2196.240433,2196.940478,2196.940478,2197.257158,left,0,100,30,130,1,2201.790676,2201.790676,2201.790676,None,None,2,0,0.1699414,,,,,,,None,,,,,,,,,,,,,,,10,4,2,2024-10-20_09h07.37.475,uWM_experiment,2022.2.3,60.01021374
,,,,,,,,,,,,,,,,,,,,10,0,10,0,1,0,1,0,,,,,,,,,,,,,,,,,,,,,,,,,,,,,,,,,,,,,,,,,,,,,,,,,,,,,,,,,,,,,,,,,,,,,,0.055,,,,,,,,,,,,,,,,,,,,,,,,,,,,left,1,70,-30,40,1,2207.624215,2207.624215,2207.624215,None,None,2,0,0.2643562,,,,,,,,,,,,,,,,,,,,,,10,4,2,2024-10-20_09h07.37.475,uWM_experiment,2022.2.3,60.01021374
,,,,,,,,,,,,,,,,,,,,10,0,10,0,2,0,2,0,,,,,,,,,,,,,,,,,,,,,,,,,,,,,,,,,,,,,,,,,,,,,,,,,,,,,,,,,,,,,,,,,,,,,,0.045,,,,,,,,,,,,,,,,,,,,,,,,,,,,right,0,160,-30,130,1,2213.474453,2213.474453,2213.474453,None,None,1,1,0.1340378,,,,,,,,,,,,,,,,,,,,,,10,4,2,2024-10-20_09h07.37.475,uWM_experiment,2022.2.3,60.01021374
,,,,,,,,,,,,,,,,,,,,10,0,10,0,3,0,3,0,,,,,,,,,,,,,,,,,,,,,,,,,,,,,,,,,,,,,,,,,,,,,,,,,,,,,,,,,,,,,,,,,,,,,,0,,,,,,,,,,,,,,,,,,,,,,,,,,,,right,0,40,-30,10,0,2218.758046,2218.758046,2218.758046,None,None,1,1,0.0745423,,,,,,,,,,,,,,,,,,,,,,10,4,2,2024-10-20_09h07.37.475,uWM_experiment,2022.2.3,60.01021374
,,,,,,,,,,,,,,,,,,,,10,0,10,0,4,0,4,0,,,,,,,,,,,,,,,,,,,,,,,,,,,,,,,,,,,,,,,,,,,,,,,,,,,,,,,,,,,,,,,,,,,,,,0,,,,,,,,,,,,,,,,,,,,,,,,,,,,left,1,130,-30,100,0,2224.491572,2224.491572,2224.491572,None,None,1,1,0.2368244,,,,,,,,,,,,,,,,,,,,,,10,4,2,2024-10-20_09h07.37.475,uWM_experiment,2022.2.3,60.01021374
,,,,,,,,,,,,,,,,,,,,10,0,10,0,5,0,5,0,,,,,,,,,,,,,,,,,,,,,,,,,,,,,,,,,,,,,,,,,,,,,,,,,,,,,,,,,,,,,,,,,,,,,,0.055,,,,,,,,,,,,,,,,,,,,,,,,,,,,right,0,40,-30,10,1,2229.941787,2229.941787,2229.941787,None,None,1,1,0.1545249,,,,,,,,,,,,,,,,,,,,,,10,4,2,2024-10-20_09h07.37.475,uWM_experiment,2022.2.3,60.01021374
,,,,,,,,,,,,,,,,,,,,10,0,10,0,6,0,6,0,,,,,,,,,,,,,,,,,,,,,,,,,,,,,,,,,,,,,,,,,,,,,,,,,,,,,,,,,,,,,,,,,,,,,,0.065,,,,,,,,,,,,,,,,,,,,,,,,,,,,left,1,160,-30,130,1,2235.592021,2235.592021,2235.592021,None,None,1,1,0.3844304,,,,,,,,,,,,,,,,,,,,,,10,4,2,2024-10-20_09h07.37.475,uWM_experiment,2022.2.3,60.01021374
,,,,,,,,,,,,,,,,,,,,10,0,10,0,7,0,7,0,,,,,,,,,,,,,,,,,,,,,,,,,,,,,,,,,,,,,,,,,,,,,,,,,,,,,,,,,,,,,,,,,,,,,,0,,,,,,,,,,,,,,,,,,,,,,,,,,,,right,0,70,-30,40,0,2241.608893,2241.608893,2241.608893,None,None,1,1,0.1195641,,,,,,,,,,,,,,,,,,,,,,10,4,2,2024-10-20_09h07.37.475,uWM_experiment,2022.2.3,60.01021374
,,,,,,,,,,,,,,,,,,,,10,0,10,0,8,0,8,0,,,,,,,,,,,,,,,,,,,,,,,,,,,,,,,,,,,,,,,,,,,,,,,,,,,,,,,,,,,,,,,,,,,,,,0.075,,,,,,,,,,,,,,,,,,,,,,,,,,,,right,1,10,30,40,1,2247.359143,2247.359143,2247.359143,None,None,2,0,0.2492276,,,,,,,,,,,,,,,,,,,,,,10,4,2,2024-10-20_09h07.37.475,uWM_experiment,2022.2.3,60.01021374
,,,,,,,,,,,,,,,,,,,,10,0,10,0,9,0,9,0,,,,,,,,,,,,,,,,,,,,,,,,,,,,,,,,,,,,,,,,,,,,,,,,,,,,,,,,,,,,,,,,,,,,,,0.065,,,,,,,,,,,,,,,,,,,,,,,,,,,,left,0,70,30,100,1,2253.459408,2253.459408,2253.459408,None,None,2,0,0.2929713,,,,,,,,,,,,,,,,,,,,,,10,4,2,2024-10-20_09h07.37.475,uWM_experiment,2022.2.3,60.01021374
,,,,,,,,,,,,,,,,,,,,10,0,10,0,10,0,10,0,,,,,,,,,,,,,,,,,,,,,,,,,,,,,,,,,,,,,,,,,,,,,,,,,,,,,,,,,,,,,,,,,,,,,,0.055,,,,,,,,,,,,,,,,,,,,,,,,,,,,right,1,40,30,70,1,2259.459637,2259.459637,2259.459637,None,None,2,0,0.3006174,,,,,,,,,,,,,,,,,,,,,,10,4,2,2024-10-20_09h07.37.475,uWM_experiment,2022.2.3,60.01021374
,,,,,,,,,,,,,,,,,,,,10,0,10,0,11,0,11,0,,,,,,,,,,,,,,,,,,,,,,,,,,,,,,,,,,,,,,,,,,,,,,,,,,,,,,,,,,,,,,,,,,,,,,0.045,,,,,,,,,,,,,,,,,,,,,,,,,,,,left,0,70,30,100,1,2265.793181,2265.793181,2265.793181,None,None,1,1,0.1670869,,,,,,,,,,,,,,,,,,,,,,10,4,2,2024-10-20_09h07.37.475,uWM_experiment,2022.2.3,60.01021374
,,,,,,,,,,,,,,,,,,,,10,0,10,0,12,0,12,0,,,,,,,,,,,,,,,,,,,,,,,,,,,,,,,,,,,,,,,,,,,,,,,,,,,,,,,,,,,,,,,,,,,,,,0.1,,,,,,,,,,,,,,,,,,,,,,,,,,,,left,1,10,-30,-20,2,2271.926768,2271.926768,2271.926768,None,None,3,0,0.8415232,,,,,,,,,,,,,,,,,,,,,,10,4,2,2024-10-20_09h07.37.475,uWM_experiment,2022.2.3,60.01021374
,,,,,,,,,,,,,,,,,,,,10,0,10,0,13,0,13,0,,,,,,,,,,,,,,,,,,,,,,,,,,,,,,,,,,,,,,,,,,,,,,,,,,,,,,,,,,,,,,,,,,,,,,0.055,,,,,,,,,,,,,,,,,,,,,,,,,,,,left,1,160,-30,130,1,2278.410351,2278.410351,2278.410351,None,None,2,0,0.6779757,,,,,,,,,,,,,,,,,,,,,,10,4,2,2024-10-20_09h07.37.475,uWM_experiment,2022.2.3,60.01021374
,,,,,,,,,,,,,,,,,,,,10,0,10,0,14,0,14,0,,,,,,,,,,,,,,,,,,,,,,,,,,,,,,,,,,,,,,,,,,,,,,,,,,,,,,,,,,,,,,,,,,,,,,0.045,,,,,,,,,,,,,,,,,,,,,,,,,,,,right,0,100,-30,70,1,2284.310589,2284.310589,2284.310589,None,None,1,1,0.0977062,,,,,,,,,,,,,,,,,,,,,,10,4,2,2024-10-20_09h07.37.475,uWM_experiment,2022.2.3,60.01021374
,,,,,,,,,,,,,,,,,,,,10,0,10,0,15,0,15,0,,,,,,,,,,,,,,,,,,,,,,,,,,,,,,,,,,,,,,,,,,,,,,,,,,,,,,,,,,,,,,,,,,,,,,0.055,,,,,,,,,,,,,,,,,,,,,,,,,,,,left,1,10,-30,-20,1,2290.110817,2290.110817,2290.110817,None,None,2,0,0.2012404,,,,,,,,,,,,,,,,,,,,,,10,4,2,2024-10-20_09h07.37.475,uWM_experiment,2022.2.3,60.01021374
,,,,,,,,,,,,,,,,,,,,10,0,10,0,16,0,16,0,,,,,,,,,,,,,,,,,,,,,,,,,,,,,,,,,,,,,,,,,,,,,,,,,,,,,,,,,,,,,,,,,,,,,,0.045,,,,,,,,,,,,,,,,,,,,,,,,,,,,right,1,100,30,130,1,2295.644381,2295.644381,2295.644381,None,None,1,1,0.1478468,,,,,,,,,,,,,,,,,,,,,,10,4,2,2024-10-20_09h07.37.475,uWM_experiment,2022.2.3,60.01021374
