PreTrainingPAS4_loop.thisRepN,PreTrainingPAS4_loop.thisTrialN,PreTrainingPAS4_loop.thisN,PreTrainingPAS4_loop.thisIndex,PreTrainingPAS1_loop.thisRepN,PreTrainingPAS1_loop.thisTrialN,PreTrainingPAS1_loop.thisN,PreTrainingPAS1_loop.thisIndex,RepeatCV_loop.thisRepN,RepeatCV_loop.thisTrialN,RepeatCV_loop.thisN,RepeatCV_loop.thisIndex,TrainingCV_loop.thisRepN,TrainingCV_loop.thisTrialN,TrainingCV_loop.thisN,TrainingCV_loop.thisIndex,TrainingCAL_loop.thisRepN,TrainingCAL_loop.thisTrialN,TrainingCAL_loop.thisN,TrainingCAL_loop.thisIndex,blocks_loop.thisRepN,blocks_loop.thisTrialN,blocks_loop.thisN,blocks_loop.thisIndex,trials_loop.thisRepN,trials_loop.thisTrialN,trials_loop.thisN,trials_loop.thisIndex,TrainingPAS1_loop.thisRepN,TrainingPAS1_loop.thisTrialN,TrainingPAS1_loop.thisN,TrainingPAS1_loop.thisIndex,spacebarWelcome0.started,spacebarWelcome0.keys,spacebarWelcome0.rt,spacebarWelcome1.started,gaborWelcome1.started,maskWelcome1.started,textMaskWelcome1.started,spacebarWelcome1.keys,spacebarWelcome1.rt,spacebarWelcome2.started,spacebarWelcome2.keys,spacebarWelcome2.rt,textInst_PreTrainingPAS4.started,spacebarPreTrainingPAS4.started,spacebarPreTrainingPAS4.keys,spacebarPreTrainingPAS4.rt,textPreTrainingPAS1.started,spacebarPreTrainingPAS1.started,spacebarPreTrainingPAS1.keys,spacebarPreTrainingPAS1.rt,textQUEST0.started,spacebarQUEST0.started,spacebarQUEST0.keys,spacebarQUEST0.rt,spacebar0.started,spacebar0.keys,spacebar0.rt,spacebar1.started,spacebar1.keys,spacebar1.rt,textInstructions2.started,spacebar2.started,Gabor1Inst2.started,Gabor2Inst2.started,Gabor3Inst2.started,Gabor4Inst2.started,spacebar2.keys,spacebar2.rt,textInstructionsPAS.started,spacebarInstPAS.started,spacebarInstPAS.keys,spacebarInstPAS.rt,textInstructions3.started,spacebar3.started,spacebar3.keys,spacebar3.rt,WMresp_CV,WMresp_CV_acc,oriMemo_CV,gyre_CV,oriTest_CV,feedbackText.started,feedbackText.stopped,sliderCV.started,PAStextCV.started,PASkeyCV.started,sliderCV.response,sliderCV.rt,PASkeyCV.keys,PASkeyCV.corr,PASkeyCV.rt,TextInstructionsCAL.started,spacebarCAL.started,spacebarCAL.keys,spacebarCAL.rt,contrast,WMresp_CAL,WMresp_CAL_acc,oriMemo_CAL,gyre_CAL,oriTest_CAL,cue_CAL,sliderCAL.started,PAStextCAL.started,PASkeyCAL.started,sliderCAL.response,sliderCAL.rt,PASkeyCAL.keys,PASkeyCAL.corr,PASkeyCAL.rt,propUnseen_CAL,textStart.started,spacebar4.started,spacebar4.keys,spacebar4.rt,three.started,three.stopped,two.started,two.stopped,one.started,one.stopped,blank_countdown.started,blank_countdown.stopped,WMresp,WMresp_acc,oriMemo,gyre,oriTest,cue,slider.started,textPAS_firstGabor.started,PASkey.started,slider.response,slider.rt,PASkey.keys,PASkey.corr,PASkey.rt,spacebarContinue.started,textBreak.started,spacebarContinue.keys,spacebarContinue.rt,spacebar_reminder.keys,spacebar_TrainingPAS1.keys,spacebar_endpractice.keys,spacebar_reminder.started,textReminder.started,spacebar_reminder.rt,textInst_TrainingPAS1.started,spacebar_TrainingPAS1.started,spacebar_TrainingPAS1.rt,textend_practicePAS1.started,spacebar_endpractice.started,spacebar_endpractice.rt,textThanks.started,textThanks.stopped,laboratory,participant,session,date,expName,psychopyVersion,frameRate
,,,,,,,,,,,,,,,,,,,,,,,,,,,,,,,,528.0724852,space,137.3746152,,,,,,,,,,,,,,,,,,,,,,,,,,,,,,,,,,,,,,,,,,,,,,,,,,,,,,,,,,,,,,,,,,,,,,,,,,,,,,,,,,,,,,,,,,,,,,,,,,,,,,,,,,,,,,,,,,,,,,,,,,,10,6,1,2024-10-18_13h01.27.661,uWM_experiment,2022.2.3,59.98562745
,,,,,,,,,,,,,,,,,,,,,,,,,,,,,,,,,,,665.494323,665.494323,665.494323,665.494323,space,26.2805427,,,,,,,,,,,,,,,,,,,,,,,,,,,,,,,,,,,,,,,,,,,,,,,,,,,,,,,,,,,,,,,,,,,,,,,,,,,,,,,,,,,,,,,,,,,,,,,,,,,,,,,,,,,,,,,,,,,,,10,6,1,2024-10-18_13h01.27.661,uWM_experiment,2022.2.3,59.98562745
,,,,,,,,,,,,,,,,,,,,,,,,,,,,,,,,,,,,,,,,,691.7953613,space,26.4994613,,,,,,,,,,,,,,,,,,,,,,,,,,,,,,,,,,,,,,,,,,,,,,,,,,,,,,,,,,,,,,,,,,,,,,,,,,,,,,,,,,,,,,,,,,,,,,,,,,,,,,,,,,,,,,,,,,10,6,1,2024-10-18_13h01.27.661,uWM_experiment,2022.2.3,59.98562745
,,,,,,,,,,,,,,,,,,,,,,,,,,,,,,,,,,,,,,,,,,,,718.3130815,718.3130815,space,16.3096832,,,,,,,,,,,,,,,,,,,,,,,,,,,,,,,,,,,,,,,,,,,,,,,,,,,,,,,,,,,,,,,,,,,,,,,,,,,,,,,,,,,,,,,,,,,,,,,,,,,,,,,,,,,,,,10,6,1,2024-10-18_13h01.27.661,uWM_experiment,2022.2.3,59.98562745
0,0,0,0,,,,,,,,,,,,,,,,,,,,,,,,,,,,,,,,,,,,,,,,,,,,,,,,,,,,,,,,,,,,,,,,,,,,,,,,,,,,,,,,,,,,,,,,,,,,,,,,,,,,,,,,,,,,,,,,,,,,,,,,,,,,,,,,,,,,,,,,,,,,,,,,,,,,,,,,,,10,6,1,2024-10-18_13h01.27.661,uWM_experiment,2022.2.3,59.98562745
1,0,1,0,,,,,,,,,,,,,,,,,,,,,,,,,,,,,,,,,,,,,,,,,,,,,,,,,,,,,,,,,,,,,,,,,,,,,,,,,,,,,,,,,,,,,,,,,,,,,,,,,,,,,,,,,,,,,,,,,,,,,,,,,,,,,,,,,,,,,,,,,,,,,,,,,,,,,,,,,,10,6,1,2024-10-18_13h01.27.661,uWM_experiment,2022.2.3,59.98562745
2,0,2,0,,,,,,,,,,,,,,,,,,,,,,,,,,,,,,,,,,,,,,,,,,,,,,,,,,,,,,,,,,,,,,,,,,,,,,,,,,,,,,,,,,,,,,,,,,,,,,,,,,,,,,,,,,,,,,,,,,,,,,,,,,,,,,,,,,,,,,,,,,,,,,,,,,,,,,,,,,10,6,1,2024-10-18_13h01.27.661,uWM_experiment,2022.2.3,59.98562745
,,,,,,,,,,,,,,,,,,,,,,,,,,,,,,,,,,,,,,,,,,,,,,,,747.1142355,747.1142355,space,26.6523675,,,,,,,,,,,,,,,,,,,,,,,,,,,,,,,,,,,,,,,,,,,,,,,,,,,,,,,,,,,,,,,,,,,,,,,,,,,,,,,,,,,,,,,,,,,,,,,,,,,,,,,,,,10,6,1,2024-10-18_13h01.27.661,uWM_experiment,2022.2.3,59.98562745
,,,,0,0,0,0,,,,,,,,,,,,,,,,,,,,,,,,,,,,,,,,,,,,,,,,,,,,,,,,,,,,,,,,,,,,,,,,,,,,,,,,,,,,,,,,,,,,,,,,,,,,,,,,,,,,,,,,,,,,,,,,,,,,,,,,,,,,,,,,,,,,,,,,,,,,,,,,,,,,,,10,6,1,2024-10-18_13h01.27.661,uWM_experiment,2022.2.3,59.98562745
,,,,1,0,1,0,,,,,,,,,,,,,,,,,,,,,,,,,,,,,,,,,,,,,,,,,,,,,,,,,,,,,,,,,,,,,,,,,,,,,,,,,,,,,,,,,,,,,,,,,,,,,,,,,,,,,,,,,,,,,,,,,,,,,,,,,,,,,,,,,,,,,,,,,,,,,,,,,,,,,,10,6,1,2024-10-18_13h01.27.661,uWM_experiment,2022.2.3,59.98562745
,,,,2,0,2,0,,,,,,,,,,,,,,,,,,,,,,,,,,,,,,,,,,,,,,,,,,,,,,,,,,,,,,,,,,,,,,,,,,,,,,,,,,,,,,,,,,,,,,,,,,,,,,,,,,,,,,,,,,,,,,,,,,,,,,,,,,,,,,,,,,,,,,,,,,,,,,,,,,,,,,10,6,1,2024-10-18_13h01.27.661,uWM_experiment,2022.2.3,59.98562745
,,,,,,,,,,,,,,,,,,,,,,,,,,,,,,,,,,,,,,,,,,,,,,,,,,,,782.6656325,782.6656325,space,42.844648,,,,,,,,,,,,,,,,,,,,,,,,,,,,,,,,,,,,,,,,,,,,,,,,,,,,,,,,,,,,,,,,,,,,,,,,,,,,,,,,,,,,,,,,,,,,,,,,,,,,,,10,6,1,2024-10-18_13h01.27.661,uWM_experiment,2022.2.3,59.98562745
,,,,,,,,,,,,,,,,,,,,,,,,,,,,,,,,,,,,,,,,,,,,,,,,,,,,,,,,969.8397139,space,7.1658242,,,,,,,,,,,,,,,,,,,,,,,,,,,,,,,,,,,,,,,,,,,,,,,,,,,,,,,,,,,,,,,,,,,,,,,,,,,,,,,,,,,,,,,,,,,,,,,,,,,10,6,1,2024-10-18_13h01.27.661,uWM_experiment,2022.2.3,59.98562745
,,,,,,,,,,,,,,,,,,,,,,,,,,,,,,,,,,,,,,,,,,,,,,,,,,,,,,,,,,,977.0233477,space,25.0620992,,,,,,,,,,,,,,,,,,,,,,,,,,,,,,,,,,,,,,,,,,,,,,,,,,,,,,,,,,,,,,,,,,,,,,,,,,,,,,,,,,,,,,,,,,,,,,,,10,6,1,2024-10-18_13h01.27.661,uWM_experiment,2022.2.3,59.98562745
,,,,,,,,,,,,,,,,,,,,,,,,,,,,,,,,,,,,,,,,,,,,,,,,,,,,,,,,,,,,,,1002.107719,1002.107719,1002.107719,1002.107719,1002.107719,1002.107719,space,12.9856094,,,,,,,,,,,,,,,,,,,,,,,,,,,,,,,,,,,,,,,,,,,,,,,,,,,,,,,,,,,,,,,,,,,,,,,,,,,,,,,,,,,,,,,,10,6,1,2024-10-18_13h01.27.661,uWM_experiment,2022.2.3,59.98562745
,,,,,,,,,,,,,,,,,,,,,,,,,,,,,,,,,,,,,,,,,,,,,,,,,,,,,,,,,,,,,,,,,,,,,,1015.124872,1015.124872,space,12.128502,,,,,,,,,,,,,,,,,,,,,,,,,,,,,,,,,,,,,,,,,,,,,,,,,,,,,,,,,,,,,,,,,,,,,,,,,,,,,,,,,,,,10,6,1,2024-10-18_13h01.27.661,uWM_experiment,2022.2.3,59.98562745
,,,,,,,,,,,,,,,,,,,,,,,,,,,,,,,,,,,,,,,,,,,,,,,,,,,,,,,,,,,,,,,,,,,,,,,,,,1027.275351,1027.275351,space,10.2099525,,,,,,,,,,,,,,,,,,,,,,,,,,,,,,,,,,,,,,,,,,,,,,,,,,,,,,,,,,,,,,,,,,,,,,,,,,,,,,,,10,6,1,2024-10-18_13h01.27.661,uWM_experiment,2022.2.3,59.98562745
,,,,,,,,0,0,0,0,0,0,0,0,,,,,,,,,,,,,,,,,,,,,,,,,,,,,,,,,,,,,,,,,,,,,,,,,,,,,,,,,,,,,,,right,1,160,30,190,1044.876076,1045.876098,1045.876098,1045.876098,1045.876098,None,None,4,0,2.88904,,,,,,,,,,,,,,,,,,,,,,,,,,,,,,,,,,,,,,,,,,,,,,,,,,,,,,,,,,,,,,,,,10,6,1,2024-10-18_13h01.27.661,uWM_experiment,2022.2.3,59.98562745
,,,,,,,,0,0,0,0,1,0,1,0,,,,,,,,,,,,,,,,,,,,,,,,,,,,,,,,,,,,,,,,,,,,,,,,,,,,,,,,,,,,,,,right,0,70,-30,40,1055.093126,,1056.093166,1056.093166,1056.093166,None,None,4,0,1.2641054,,,,,,,,,,,,,,,,,,,,,,,,,,,,,,,,,,,,,,,,,,,,,,,,,,,,,,,,,,,,,,,,,10,6,1,2024-10-18_13h01.27.661,uWM_experiment,2022.2.3,59.98562745
,,,,,,,,0,0,0,0,2,0,2,0,,,,,,,,,,,,,,,,,,,,,,,,,,,,,,,,,,,,,,,,,,,,,,,,,,,,,,,,,,,,,,,left,1,10,-30,-20,1064.760168,1065.760219,1065.760219,1065.760219,1065.760219,None,None,4,0,1.365022,,,,,,,,,,,,,,,,,,,,,,,,,,,,,,,,,,,,,,,,,,,,,,,,,,,,,,,,,,,,,,,,,10,6,1,2024-10-18_13h01.27.661,uWM_experiment,2022.2.3,59.98562745
,,,,,,,,0,0,0,0,3,0,3,0,,,,,,,,,,,,,,,,,,,,,,,,,,,,,,,,,,,,,,,,,,,,,,,,,,,,,,,,,,,,,,,right,1,130,30,160,1074.110552,1075.110596,1075.110596,1075.110596,1075.110596,None,None,4,0,1.0864344,,,,,,,,,,,,,,,,,,,,,,,,,,,,,,,,,,,,,,,,,,,,,,,,,,,,,,,,,,,,,,,,,10,6,1,2024-10-18_13h01.27.661,uWM_experiment,2022.2.3,59.98562745
,,,,,,,,0,0,0,0,4,0,4,0,,,,,,,,,,,,,,,,,,,,,,,,,,,,,,,,,,,,,,,,,,,,,,,,,,,,,,,,,,,,,,,right,1,100,30,130,1082.644246,1083.644269,1083.644269,1083.644269,1083.644269,None,None,4,0,1.0728863,,,,,,,,,,,,,,,,,,,,,,,,,,,,,,,,,,,,,,,,,,,,,,,,,,,,,,,,,,,,,,,,,10,6,1,2024-10-18_13h01.27.661,uWM_experiment,2022.2.3,59.98562745
,,,,,,,,0,0,0,0,5,0,5,0,,,,,,,,,,,,,,,,,,,,,,,,,,,,,,,,,,,,,,,,,,,,,,,,,,,,,,,,,,,,,,,left,1,160,-30,130,1091.044588,1092.044611,1092.044611,1092.044611,1092.044611,None,None,4,0,0.5043467,,,,,,,,,,,,,,,,,,,,,,,,,,,,,,,,,,,,,,,,,,,,,,,,,,,,,,,,,,,,,,,,,10,6,1,2024-10-18_13h01.27.661,uWM_experiment,2022.2.3,59.98562745
,,,,,,,,0,0,0,0,6,0,6,0,,,,,,,,,,,,,,,,,,,,,,,,,,,,,,,,,,,,,,,,,,,,,,,,,,,,,,,,,,,,,,,left,0,70,30,100,1098.644864,1099.644909,1099.644909,1099.644909,1099.644909,None,None,4,0,1.0961214,,,,,,,,,,,,,,,,,,,,,,,,,,,,,,,,,,,,,,,,,,,,,,,,,,,,,,,,,,,,,,,,,10,6,1,2024-10-18_13h01.27.661,uWM_experiment,2022.2.3,59.98562745
,,,,,,,,0,0,0,0,7,0,7,0,,,,,,,,,,,,,,,,,,,,,,,,,,,,,,,,,,,,,,,,,,,,,,,,,,,,,,,,,,,,,,,right,1,40,30,70,1106.91188,1107.911905,1107.911905,1107.911905,1107.911905,None,None,4,0,0.4529652,,,,,,,,,,,,,,,,,,,,,,,,,,,,,,,,,,,,,,,,,,,,,,,,,,,,,,,,,,,,,,,,,10,6,1,2024-10-18_13h01.27.661,uWM_experiment,2022.2.3,59.98562745
,,,,,,,,0,0,0,0,8,0,8,0,,,,,,,,,,,,,,,,,,,,,,,,,,,,,,,,,,,,,,,,,,,,,,,,,,,,,,,,,,,,,,,right,1,100,30,130,1114.29552,1115.295535,1115.295535,1115.295535,1115.295535,None,None,4,0,0.333576,,,,,,,,,,,,,,,,,,,,,,,,,,,,,,,,,,,,,,,,,,,,,,,,,,,,,,,,,,,,,,,,,10,6,1,2024-10-18_13h01.27.661,uWM_experiment,2022.2.3,59.98562745
,,,,,,,,0,0,0,0,9,0,9,0,,,,,,,,,,,,,,,,,,,,,,,,,,,,,,,,,,,,,,,,,,,,,,,,,,,,,,,,,,,,,,,left,1,10,-30,-20,1121.379134,1122.379152,1122.379152,1122.379152,1122.379152,None,None,4,0,0.2818631,,,,,,,,,,,,,,,,,,,,,,,,,,,,,,,,,,,,,,,,,,,,,,,,,,,,,,,,,,,,,,,,,10,6,1,2024-10-18_13h01.27.661,uWM_experiment,2022.2.3,59.98562745
,,,,,,,,0,0,0,0,10,0,10,0,,,,,,,,,,,,,,,,,,,,,,,,,,,,,,,,,,,,,,,,,,,,,,,,,,,,,,,,,,,,,,,left,1,130,-30,100,1128.57942,1129.579463,1129.579463,1129.579463,1129.579463,None,None,4,0,0.3614673,,,,,,,,,,,,,,,,,,,,,,,,,,,,,,,,,,,,,,,,,,,,,,,,,,,,,,,,,,,,,,,,,10,6,1,2024-10-18_13h01.27.661,uWM_experiment,2022.2.3,59.98562745
,,,,,,,,0,0,0,0,11,0,11,0,,,,,,,,,,,,,,,,,,,,,,,,,,,,,,,,,,,,,,,,,,,,,,,,,,,,,,,,,,,,,,,left,0,70,30,100,1135.796375,1136.796399,1136.796399,1136.796399,1136.796399,None,None,4,0,0.7124457,,,,,,,,,,,,,,,,,,,,,,,,,,,,,,,,,,,,,,,,,,,,,,,,,,,,,,,,,,,,,,,,,10,6,1,2024-10-18_13h01.27.661,uWM_experiment,2022.2.3,59.98562745
,,,,,,,,0,0,0,0,,,,,,,,,,,,,,,,,,,,,,,,,,,,,,,,,,,,,,,,,,,,,,,,,,,,,,,,,,,,,,,,,,,,,,,,,,,,,,,,,,,,,,,,,,,,,,,,,,,,,,,,,,,,,,,,,,,,,,,,,,,,,,,,,,,,,,,,,,,,,,,,,,10,6,1,2024-10-18_13h01.27.661,uWM_experiment,2022.2.3,59.98562745
,,,,,,,,,,,,,,,,,,,,,,,,,,,,,,,,,,,,,,,,,,,,,,,,,,,,,,,,,,,,,,,,,,,,,,,,,,,,,,,,,,,,,,,,,,,,,1142.796653,1142.796653,space,2.7761621,,,,,,,,,,,,,,,,,,,,,,,,,,,,,,,,,,,,,,,,,,,,,,,,,,,,,,,,,,,,,10,6,1,2024-10-18_13h01.27.661,uWM_experiment,2022.2.3,59.98562745
,,,,,,,,,,,,,,,,0,0,0,0,,,,,,,,,,,,,,,,,,,,,,,,,,,,,,,,,,,,,,,,,,,,,,,,,,,,,,,,,,,,,,,,,,,,,,,,,,,,,,0.040747097,left,0,70,30,100,1,1151.263657,1151.263657,1151.263657,None,None,4,0,0.9731639,,,,,,,,,,,,,,,,,,,,,,,,,,,,,,,,,,,,,,,,,,,,,,10,6,1,2024-10-18_13h01.27.661,uWM_experiment,2022.2.3,59.98562745
,,,,,,,,,,,,,,,,1,0,1,0,,,,,,,,,,,,,,,,,,,,,,,,,,,,,,,,,,,,,,,,,,,,,,,,,,,,,,,,,,,,,,,,,,,,,,,,,,,,,,0.1,right,0,100,-30,70,2,1158.380611,1158.380611,1158.380611,None,None,4,0,0.7921816,0,,,,,,,,,,,,,,,,,,,,,,,,,,,,,,,,,,,,,,,,,,,,,10,6,1,2024-10-18_13h01.27.661,uWM_experiment,2022.2.3,59.98562745
,,,,,,,,,,,,,,,,2,0,2,0,,,,,,,,,,,,,,,,,,,,,,,,,,,,,,,,,,,,,,,,,,,,,,,,,,,,,,,,,,,,,,,,,,,,,,,,,,,,,,0.030747097,right,1,10,30,40,1,1165.064182,1165.064182,1165.064182,None,None,4,0,0.5966302,0,,,,,,,,,,,,,,,,,,,,,,,,,,,,,,,,,,,,,,,,,,,,,10,6,1,2024-10-18_13h01.27.661,uWM_experiment,2022.2.3,59.98562745
,,,,,,,,,,,,,,,,3,0,3,0,,,,,,,,,,,,,,,,,,,,,,,,,,,,,,,,,,,,,,,,,,,,,,,,,,,,,,,,,,,,,,,,,,,,,,,,,,,,,,0.020747097,right,0,100,-30,70,1,1171.414445,1171.414445,1171.414445,None,None,4,0,0.438141,0,,,,,,,,,,,,,,,,,,,,,,,,,,,,,,,,,,,,,,,,,,,,,10,6,1,2024-10-18_13h01.27.661,uWM_experiment,2022.2.3,59.98562745
,,,,,,,,,,,,,,,,4,0,4,0,,,,,,,,,,,,,,,,,,,,,,,,,,,,,,,,,,,,,,,,,,,,,,,,,,,,,,,,,,,,,,,,,,,,,,,,,,,,,,0.010747097,left,0,100,30,130,1,1177.981376,1177.981376,1177.981376,None,None,1,1,0.5512182,0,,,,,,,,,,,,,,,,,,,,,,,,,,,,,,,,,,,,,,,,,,,,,10,6,1,2024-10-18_13h01.27.661,uWM_experiment,2022.2.3,59.98562745
,,,,,,,,,,,,,,,,5,0,5,0,,,,,,,,,,,,,,,,,,,,,,,,,,,,,,,,,,,,,,,,,,,,,,,,,,,,,,,,,,,,,,,,,,,,,,,,,,,,,,0.1,right,1,10,30,40,2,1184.464965,1184.464965,1184.464965,None,None,4,0,0.6277142,0.2,,,,,,,,,,,,,,,,,,,,,,,,,,,,,,,,,,,,,,,,,,,,,10,6,1,2024-10-18_13h01.27.661,uWM_experiment,2022.2.3,59.98562745
,,,,,,,,,,,,,,,,6,0,6,0,,,,,,,,,,,,,,,,,,,,,,,,,,,,,,,,,,,,,,,,,,,,,,,,,,,,,,,,,,,,,,,,,,,,,,,,,,,,,,0.1,right,0,100,-30,70,2,1191.031897,1191.031897,1191.031897,None,None,4,0,0.4526056,0.166666667,,,,,,,,,,,,,,,,,,,,,,,,,,,,,,,,,,,,,,,,,,,,,10,6,1,2024-10-18_13h01.27.661,uWM_experiment,2022.2.3,59.98562745
,,,,,,,,,,,,,,,,7,0,7,0,,,,,,,,,,,,,,,,,,,,,,,,,,,,,,,,,,,,,,,,,,,,,,,,,,,,,,,,,,,,,,,,,,,,,,,,,,,,,,0.1,left,0,70,30,100,2,1197.465505,1197.465505,1197.465505,None,None,4,0,0.4029892,0.142857143,,,,,,,,,,,,,,,,,,,,,,,,,,,,,,,,,,,,,,,,,,,,,10,6,1,2024-10-18_13h01.27.661,uWM_experiment,2022.2.3,59.98562745
,,,,,,,,,,,,,,,,8,0,8,0,,,,,,,,,,,,,,,,,,,,,,,,,,,,,,,,,,,,,,,,,,,,,,,,,,,,,,,,,,,,,,,,,,,,,,,,,,,,,,0.1,right,1,130,30,160,2,1203.599067,1203.599067,1203.599067,None,None,4,0,0.4053594,0.125,,,,,,,,,,,,,,,,,,,,,,,,,,,,,,,,,,,,,,,,,,,,,10,6,1,2024-10-18_13h01.27.661,uWM_experiment,2022.2.3,59.98562745
,,,,,,,,,,,,,,,,9,0,9,0,,,,,,,,,,,,,,,,,,,,,,,,,,,,,,,,,,,,,,,,,,,,,,,,,,,,,,,,,,,,,,,,,,,,,,,,,,,,,,0.020747097,left,1,10,-30,-20,1,1210.032681,1210.032681,1210.032681,None,None,2,0,1.8197352,0.111111111,,,,,,,,,,,,,,,,,,,,,,,,,,,,,,,,,,,,,,,,,,,,,10,6,1,2024-10-18_13h01.27.661,uWM_experiment,2022.2.3,59.98562745
,,,,,,,,,,,,,,,,10,0,10,0,,,,,,,,,,,,,,,,,,,,,,,,,,,,,,,,,,,,,,,,,,,,,,,,,,,,,,,,,,,,,,,,,,,,,,,,,,,,,,0.010747097,left,0,130,30,160,1,1217.382993,1217.382993,1217.382993,None,None,2,0,0.4534278,0.1,,,,,,,,,,,,,,,,,,,,,,,,,,,,,,,,,,,,,,,,,,,,,10,6,1,2024-10-18_13h01.27.661,uWM_experiment,2022.2.3,59.98562745
,,,,,,,,,,,,,,,,11,0,11,0,,,,,,,,,,,,,,,,,,,,,,,,,,,,,,,,,,,,,,,,,,,,,,,,,,,,,,,,,,,,,,,,,,,,,,,,,,,,,,0.005,left,0,40,30,70,1,1223.083177,1223.083177,1223.083177,None,None,1,1,0.609273,0.090909091,,,,,,,,,,,,,,,,,,,,,,,,,,,,,,,,,,,,,,,,,,,,,10,6,1,2024-10-18_13h01.27.661,uWM_experiment,2022.2.3,59.98562745
,,,,,,,,,,,,,,,,12,0,12,0,,,,,,,,,,,,,,,,,,,,,,,,,,,,,,,,,,,,,,,,,,,,,,,,,,,,,,,,,,,,,,,,,,,,,,,,,,,,,,0.1,left,1,160,-30,130,2,1229.78346,1229.78346,1229.78346,None,None,4,0,0.4688517,0.166666667,,,,,,,,,,,,,,,,,,,,,,,,,,,,,,,,,,,,,,,,,,,,,10,6,1,2024-10-18_13h01.27.661,uWM_experiment,2022.2.3,59.98562745
,,,,,,,,,,,,,,,,13,0,13,0,,,,,,,,,,,,,,,,,,,,,,,,,,,,,,,,,,,,,,,,,,,,,,,,,,,,,,,,,,,,,,,,,,,,,,,,,,,,,,0.1,left,1,10,-30,-20,2,1236.000415,1236.000415,1236.000415,None,None,4,0,0.8679263,0.153846154,,,,,,,,,,,,,,,,,,,,,,,,,,,,,,,,,,,,,,,,,,,,,10,6,1,2024-10-18_13h01.27.661,uWM_experiment,2022.2.3,59.98562745
,,,,,,,,,,,,,,,,14,0,14,0,,,,,,,,,,,,,,,,,,,,,,,,,,,,,,,,,,,,,,,,,,,,,,,,,,,,,,,,,,,,,,,,,,,,,,,,,,,,,,0.015,right,1,160,30,190,1,1242.467306,1242.467306,1242.467306,None,None,4,0,4.0729437,0.142857143,,,,,,,,,,,,,,,,,,,,,,,,,,,,,,,,,,,,,,,,,,,,,10,6,1,2024-10-18_13h01.27.661,uWM_experiment,2022.2.3,59.98562745
,,,,,,,,,,,,,,,,15,0,15,0,,,,,,,,,,,,,,,,,,,,,,,,,,,,,,,,,,,,,,,,,,,,,,,,,,,,,,,,,,,,,,,,,,,,,,,,,,,,,,0.1,left,1,160,-30,130,2,1252.367687,1252.367687,1252.367687,None,None,4,0,0.460673,0.133333333,,,,,,,,,,,,,,,,,,,,,,,,,,,,,,,,,,,,,,,,,,,,,10,6,1,2024-10-18_13h01.27.661,uWM_experiment,2022.2.3,59.98562745
,,,,,,,,,,,,,,,,16,0,16,0,,,,,,,,,,,,,,,,,,,,,,,,,,,,,,,,,,,,,,,,,,,,,,,,,,,,,,,,,,,,,,,,,,,,,,,,,,,,,,0.005,right,0,70,-30,40,1,1258.851281,1258.851281,1258.851281,None,None,4,0,0.4650714,0.125,,,,,,,,,,,,,,,,,,,,,,,,,,,,,,,,,,,,,,,,,,,,,10,6,1,2024-10-18_13h01.27.661,uWM_experiment,2022.2.3,59.98562745
,,,,,,,,,,,,,,,,17,0,17,0,,,,,,,,,,,,,,,,,,,,,,,,,,,,,,,,,,,,,,,,,,,,,,,,,,,,,,,,,,,,,,,,,,,,,,,,,,,,,,0.1,left,1,40,-30,10,2,1265.151544,1265.151544,1265.151544,None,None,4,0,0.5967485,0.117647059,,,,,,,,,,,,,,,,,,,,,,,,,,,,,,,,,,,,,,,,,,,,,10,6,1,2024-10-18_13h01.27.661,uWM_experiment,2022.2.3,59.98562745
,,,,,,,,,,,,,,,,18,0,18,0,,,,,,,,,,,,,,,,,,,,,,,,,,,,,,,,,,,,,,,,,,,,,,,,,,,,,,,,,,,,,,,,,,,,,,,,,,,,,,0.1,right,1,40,30,70,2,1272.735171,1272.735171,1272.735171,None,None,4,0,0.5411372,0.111111111,,,,,,,,,,,,,,,,,,,,,,,,,,,,,,,,,,,,,,,,,,,,,10,6,1,2024-10-18_13h01.27.661,uWM_experiment,2022.2.3,59.98562745
,,,,,,,,,,,,,,,,19,0,19,0,,,,,,,,,,,,,,,,,,,,,,,,,,,,,,,,,,,,,,,,,,,,,,,,,,,,,,,,,,,,,,,,,,,,,,,,,,,,,,0.1,left,0,70,30,100,2,1278.802111,1278.802111,1278.802111,None,None,4,0,0.3461492,0.105263158,,,,,,,,,,,,,,,,,,,,,,,,,,,,,,,,,,,,,,,,,,,,,10,6,1,2024-10-18_13h01.27.661,uWM_experiment,2022.2.3,59.98562745
,,,,,,,,,,,,,,,,20,0,20,0,,,,,,,,,,,,,,,,,,,,,,,,,,,,,,,,,,,,,,,,,,,,,,,,,,,,,,,,,,,,,,,,,,,,,,,,,,,,,,0.005,left,1,40,-30,10,1,1284.368967,1284.368967,1284.368967,None,None,1,1,0.3952715,0.1,,,,,,,,,,,,,,,,,,,,,,,,,,,,,,,,,,,,,,,,,,,,,10,6,1,2024-10-18_13h01.27.661,uWM_experiment,2022.2.3,59.98562745
,,,,,,,,,,,,,,,,21,0,21,0,,,,,,,,,,,,,,,,,,,,,,,,,,,,,,,,,,,,,,,,,,,,,,,,,,,,,,,,,,,,,,,,,,,,,,,,,,,,,,0.015,left,0,160,30,190,1,1290.885912,1290.885912,1290.885912,None,None,1,1,0.4063798,0.142857143,,,,,,,,,,,,,,,,,,,,,,,,,,,,,,,,,,,,,,,,,,,,,10,6,1,2024-10-18_13h01.27.661,uWM_experiment,2022.2.3,59.98562745
,,,,,,,,,,,,,,,,22,0,22,0,,,,,,,,,,,,,,,,,,,,,,,,,,,,,,,,,,,,,,,,,,,,,,,,,,,,,,,,,,,,,,,,,,,,,,,,,,,,,,0.025,left,1,130,-30,100,1,1298.23619,1298.23619,1298.23619,None,None,1,1,0.4479815,0.181818182,,,,,,,,,,,,,,,,,,,,,,,,,,,,,,,,,,,,,,,,,,,,,10,6,1,2024-10-18_13h01.27.661,uWM_experiment,2022.2.3,59.98562745
,,,,,,,,,,,,,,,,23,0,23,0,,,,,,,,,,,,,,,,,,,,,,,,,,,,,,,,,,,,,,,,,,,,,,,,,,,,,,,,,,,,,,,,,,,,,,,,,,,,,,0.1,left,1,130,-30,100,2,1304.836494,1304.836494,1304.836494,None,None,4,0,0.423618,0.217391304,,,,,,,,,,,,,,,,,,,,,,,,,,,,,,,,,,,,,,,,,,,,,10,6,1,2024-10-18_13h01.27.661,uWM_experiment,2022.2.3,59.98562745
,,,,,,,,,,,,,,,,,,,,,,,,,,,,,,,,,,,,,,,,,,,,,,,,,,,,,,,,,,,,,,,,,,,,,,,,,,,,,,,,,,,,,,,,,,,,,,,,,,,,,,,,,,,,,,,,,1305.286455,1306.286507,space,20.0855681,,,,,,,,,,,,,,,,,,,,,,,,,,,,,,,,,,,,,,,,,10,6,1,2024-10-18_13h01.27.661,uWM_experiment,2022.2.3,59.98562745
,,,,,,,,,,,,,,,,,,,,0,0,0,0,0,0,0,0,,,,,,,,,,,,,,,,,,,,,,,,,,,,,,,,,,,,,,,,,,,,,,,,,,,,,,,,,,,,,,,,,,,,,,0.025,,,,,,,,,,,,,,,,,,,,1326.403976,1327.104002,1327.387377,1328.087378,1328.387389,1329.087414,1329.087414,1329.437431,left,1,10,-30,-20,1,1334.137642,1334.137642,1334.137642,None,None,1,1,0.4504748,,,,,,,,,,,,,,,,,,,10,6,1,2024-10-18_13h01.27.661,uWM_experiment,2022.2.3,59.98562745
,,,,,,,,,,,,,,,,,,,,0,0,0,0,1,0,1,0,,,,,,,,,,,,,,,,,,,,,,,,,,,,,,,,,,,,,,,,,,,,,,,,,,,,,,,,,,,,,,,,,,,,,,0,,,,,,,,,,,,,,,,,,,,,,,,,,,,left,0,40,30,70,0,1340.371203,1340.371203,1340.371203,None,None,1,1,0.4006304,,,,,,,,,,,,,,,,,,,10,6,1,2024-10-18_13h01.27.661,uWM_experiment,2022.2.3,59.98562745
,,,,,,,,,,,,,,,,,,,,0,0,0,0,2,0,2,0,,,,,,,,,,,,,,,,,,,,,,,,,,,,,,,,,,,,,,,,,,,,,,,,,,,,,,,,,,,,,,,,,,,,,,0.035,,,,,,,,,,,,,,,,,,,,,,,,,,,,right,0,100,-30,70,1,1346.454813,1346.454813,1346.454813,None,None,4,0,0.7491464,,,,,,,,,,,,,,,,,,,10,6,1,2024-10-18_13h01.27.661,uWM_experiment,2022.2.3,59.98562745
,,,,,,,,,,,,,,,,,,,,0,0,0,0,3,0,3,0,,,,,,,,,,,,,,,,,,,,,,,,,,,,,,,,,,,,,,,,,,,,,,,,,,,,,,,,,,,,,,,,,,,,,,0,,,,,,,,,,,,,,,,,,,,,,,,,,,,right,1,160,30,190,0,1353.505067,1353.505067,1353.505067,None,None,2,0,0.458862,,,,,,,,,,,,,,,,,,,10,6,1,2024-10-18_13h01.27.661,uWM_experiment,2022.2.3,59.98562745
,,,,,,,,,,,,,,,,,,,,0,0,0,0,4,0,4,0,,,,,,,,,,,,,,,,,,,,,,,,,,,,,,,,,,,,,,,,,,,,,,,,,,,,,,,,,,,,,,,,,,,,,,0,,,,,,,,,,,,,,,,,,,,,,,,,,,,left,0,10,30,40,0,1359.772005,1359.772005,1359.772005,None,None,1,1,0.9918956,,,,,,,,,,,,,,,,,,,10,6,1,2024-10-18_13h01.27.661,uWM_experiment,2022.2.3,59.98562745
,,,,,,,,,,,,,,,,,,,,0,0,0,0,5,0,5,0,,,,,,,,,,,,,,,,,,,,,,,,,,,,,,,,,,,,,,,,,,,,,,,,,,,,,,,,,,,,,,,,,,,,,,0.025,,,,,,,,,,,,,,,,,,,,,,,,,,,,right,1,160,30,190,1,1367.355644,1367.355644,1367.355644,None,None,2,0,1.2880745,,,,,,,,,,,,,,,,,,,10,6,1,2024-10-18_13h01.27.661,uWM_experiment,2022.2.3,59.98562745
,,,,,,,,,,,,,,,,,,,,0,0,0,0,6,0,6,0,,,,,,,,,,,,,,,,,,,,,,,,,,,,,,,,,,,,,,,,,,,,,,,,,,,,,,,,,,,,,,,,,,,,,,0.015,,,,,,,,,,,,,,,,,,,,,,,,,,,,left,1,130,-30,100,1,1374.922585,1374.922585,1374.922585,None,None,2,0,0.8171937,,,,,,,,,,,,,,,,,,,10,6,1,2024-10-18_13h01.27.661,uWM_experiment,2022.2.3,59.98562745
,,,,,,,,,,,,,,,,,,,,0,0,0,0,7,0,7,0,,,,,,,,,,,,,,,,,,,,,,,,,,,,,,,,,,,,,,,,,,,,,,,,,,,,,,,,,,,,,,,,,,,,,,0,,,,,,,,,,,,,,,,,,,,,,,,,,,,right,1,10,30,40,0,1381.822866,1381.822866,1381.822866,None,None,2,0,0.3648974,,,,,,,,,,,,,,,,,,,10,6,1,2024-10-18_13h01.27.661,uWM_experiment,2022.2.3,59.98562745
,,,,,,,,,,,,,,,,,,,,0,0,0,0,8,0,8,0,,,,,,,,,,,,,,,,,,,,,,,,,,,,,,,,,,,,,,,,,,,,,,,,,,,,,,,,,,,,,,,,,,,,,,0,,,,,,,,,,,,,,,,,,,,,,,,,,,,right,0,70,-30,40,0,1388.023118,1388.023118,1388.023118,None,None,3,0,0.4445567,,,,,,,,,,,,,,,,,,,10,6,1,2024-10-18_13h01.27.661,uWM_experiment,2022.2.3,59.98562745
,,,,,,,,,,,,,,,,,,,,0,0,0,0,9,0,9,0,,,,,,,,,,,,,,,,,,,,,,,,,,,,,,,,,,,,,,,,,,,,,,,,,,,,,,,,,,,,,,,,,,,,,,0,,,,,,,,,,,,,,,,,,,,,,,,,,,,left,0,10,30,40,0,1394.223382,1394.223382,1394.223382,None,None,1,1,0.5643031,,,,,,,,,,,,,,,,,,,10,6,1,2024-10-18_13h01.27.661,uWM_experiment,2022.2.3,59.98562745
,,,,,,,,,,,,,,,,,,,,0,0,0,0,10,0,10,0,,,,,,,,,,,,,,,,,,,,,,,,,,,,,,,,,,,,,,,,,,,,,,,,,,,,,,,,,,,,,,,,,,,,,,0,,,,,,,,,,,,,,,,,,,,,,,,,,,,left,0,160,30,190,0,1401.340338,1401.340338,1401.340338,None,None,2,0,0.5512244,,,,,,,,,,,,,,,,,,,10,6,1,2024-10-18_13h01.27.661,uWM_experiment,2022.2.3,59.98562745
,,,,,,,,,,,,,,,,,,,,0,0,0,0,11,0,11,0,,,,,,,,,,,,,,,,,,,,,,,,,,,,,,,,,,,,,,,,,,,,,,,,,,,,,,,,,,,,,,,,,,,,,,0.005,,,,,,,,,,,,,,,,,,,,,,,,,,,,left,0,100,30,130,1,1407.923931,1407.923931,1407.923931,None,None,2,0,1.1516531,,,,,,,,,,,,,,,,,,,10,6,1,2024-10-18_13h01.27.661,uWM_experiment,2022.2.3,59.98562745
,,,,,,,,,,,,,,,,,,,,0,0,0,0,12,0,12,0,,,,,,,,,,,,,,,,,,,,,,,,,,,,,,,,,,,,,,,,,,,,,,,,,,,,,,,,,,,,,,,,,,,,,,0.005,,,,,,,,,,,,,,,,,,,,,,,,,,,,left,0,160,30,190,1,1414.774217,1414.774217,1414.774217,None,None,2,0,0.389344,,,,,,,,,,,,,,,,,,,10,6,1,2024-10-18_13h01.27.661,uWM_experiment,2022.2.3,59.98562745
,,,,,,,,,,,,,,,,,,,,0,0,0,0,13,0,13,0,,,,,,,,,,,,,,,,,,,,,,,,,,,,,,,,,,,,,,,,,,,,,,,,,,,,,,,,,,,,,,,,,,,,,,0,,,,,,,,,,,,,,,,,,,,,,,,,,,,left,1,160,-30,130,0,1420.891111,1420.891111,1420.891111,None,None,1,1,0.3125321,,,,,,,,,,,,,,,,,,,10,6,1,2024-10-18_13h01.27.661,uWM_experiment,2022.2.3,59.98562745
,,,,,,,,,,,,,,,,,,,,0,0,0,0,14,0,14,0,,,,,,,,,,,,,,,,,,,,,,,,,,,,,,,,,,,,,,,,,,,,,,,,,,,,,,,,,,,,,,,,,,,,,,0.005,,,,,,,,,,,,,,,,,,,,,,,,,,,,right,1,10,30,40,1,1427.024699,1427.024699,1427.024699,None,None,2,0,0.434811,,,,,,,,,,,,,,,,,,,10,6,1,2024-10-18_13h01.27.661,uWM_experiment,2022.2.3,59.98562745
,,,,,,,,,,,,,,,,,,,,0,0,0,0,15,0,15,0,,,,,,,,,,,,,,,,,,,,,,,,,,,,,,,,,,,,,,,,,,,,,,,,,,,,,,,,,,,,,,,,,,,,,,0.005,,,,,,,,,,,,,,,,,,,,,,,,,,,,right,0,70,-30,40,1,1433.041582,1433.041582,1433.041582,None,None,1,1,0.6259021,,,,,,,,,,,,,,,,,,,10,6,1,2024-10-18_13h01.27.661,uWM_experiment,2022.2.3,59.98562745
,,,,,,,,,,,,,,,,,,,,0,0,0,0,16,0,16,0,,,,,,,,,,,,,,,,,,,,,,,,,,,,,,,,,,,,,,,,,,,,,,,,,,,,,,,,,,,,,,,,,,,,,,0.015,,,,,,,,,,,,,,,,,,,,,,,,,,,,left,1,10,-30,-20,1,1439.191828,1439.191828,1439.191828,None,None,1,1,0.4276199,,,,,,,,,,,,,,,,,,,10,6,1,2024-10-18_13h01.27.661,uWM_experiment,2022.2.3,59.98562745
,,,,,,,,,,,,,,,,,,,,0,0,0,0,17,0,17,0,,,,,,,,,,,,,,,,,,,,,,,,,,,,,,,,,,,,,,,,,,,,,,,,,,,,,,,,,,,,,,,,,,,,,,0.025,,,,,,,,,,,,,,,,,,,,,,,,,,,,left,1,10,-30,-20,1,1445.108804,1445.108804,1445.108804,None,None,1,1,0.3745688,,,,,,,,,,,,,,,,,,,10,6,1,2024-10-18_13h01.27.661,uWM_experiment,2022.2.3,59.98562745
,,,,,,,,,,,,,,,,,,,,0,0,0,0,18,0,18,0,,,,,,,,,,,,,,,,,,,,,,,,,,,,,,,,,,,,,,,,,,,,,,,,,,,,,,,,,,,,,,,,,,,,,,0.035,,,,,,,,,,,,,,,,,,,,,,,,,,,,right,0,70,-30,40,1,1451.092306,1451.092306,1451.092306,None,None,2,0,1.319019,,,,,,,,,,,,,,,,,,,10,6,1,2024-10-18_13h01.27.661,uWM_experiment,2022.2.3,59.98562745
,,,,,,,,,,,,,,,,,,,,0,0,0,0,19,0,19,0,,,,,,,,,,,,,,,,,,,,,,,,,,,,,,,,,,,,,,,,,,,,,,,,,,,,,,,,,,,,,,,,,,,,,,0.025,,,,,,,,,,,,,,,,,,,,,,,,,,,,right,0,100,-30,70,1,1459.575977,1459.575977,1459.575977,None,None,2,0,0.8113945,,,,,,,,,,,,,,,,,,,10,6,1,2024-10-18_13h01.27.661,uWM_experiment,2022.2.3,59.98562745
,,,,,,,,,,,,,,,,,,,,0,0,0,0,20,0,20,0,,,,,,,,,,,,,,,,,,,,,,,,,,,,,,,,,,,,,,,,,,,,,,,,,,,,,,,,,,,,,,,,,,,,,,0,,,,,,,,,,,,,,,,,,,,,,,,,,,,right,0,40,-30,10,0,1466.559601,1466.559601,1466.559601,None,None,2,0,0.4676802,,,,,,,,,,,,,,,,,,,10,6,1,2024-10-18_13h01.27.661,uWM_experiment,2022.2.3,59.98562745
,,,,,,,,,,,,,,,,,,,,0,0,0,0,21,0,21,0,,,,,,,,,,,,,,,,,,,,,,,,,,,,,,,,,,,,,,,,,,,,,,,,,,,,,,,,,,,,,,,,,,,,,,0,,,,,,,,,,,,,,,,,,,,,,,,,,,,right,1,40,30,70,0,1472.593178,1472.593178,1472.593178,None,None,2,0,0.49817,,,,,,,,,,,,,,,,,,,10,6,1,2024-10-18_13h01.27.661,uWM_experiment,2022.2.3,59.98562745
,,,,,,,,,,,,,,,,,,,,0,0,0,0,22,0,22,0,,,,,,,,,,,,,,,,,,,,,,,,,,,,,,,,,,,,,,,,,,,,,,,,,,,,,,,,,,,,,,,,,,,,,,0,,,,,,,,,,,,,,,,,,,,,,,,,,,,right,1,10,30,40,0,1478.660104,1478.660104,1478.660104,None,None,2,0,0.5351414,,,,,,,,,,,,,,,,,,,10,6,1,2024-10-18_13h01.27.661,uWM_experiment,2022.2.3,59.98562745
,,,,,,,,,,,,,,,,,,,,0,0,0,0,23,0,23,0,,,,,,,,,,,,,,,,,,,,,,,,,,,,,,,,,,,,,,,,,,,,,,,,,,,,,,,,,,,,,,,,,,,,,,0.015,,,,,,,,,,,,,,,,,,,,,,,,,,,,right,1,10,30,40,1,1486.710424,1486.710424,1486.710424,None,None,2,0,0.6288957,,,,,,,,,,,,,,,,,,,10,6,1,2024-10-18_13h01.27.661,uWM_experiment,2022.2.3,59.98562745
,,,,,,,,,,,,,,,,,,,,0,0,0,0,,,,,0,0,0,0,,,,,,,,,,,,,,,,,,,,,,,,,,,,,,,,,,,,,,,,,,,,,,,,,,,,,,,,,,,,,,,,,,,,,,,,,,,,,,,,,,,,,,,,,,,,,,,,,,,,,,,,,,,,1487.360412,1487.360412,space,42.3546682,None,None,,,,,,,,,,,,,10,6,1,2024-10-18_13h01.27.661,uWM_experiment,2022.2.3,59.98562745
,,,,,,,,,,,,,,,,,,,,0,0,0,0,,,,,1,0,1,0,,,,,,,,,,,,,,,,,,,,,,,,,,,,,,,,,,,,,,,,,,,,,,,,,,,,,,,,,,,,,,,,,,,,,,,,,,,,,,,,,,,,,,,,,,,,,,,,,,,,,,,,,,,,,,,,,,,,,,,,,,,,,,10,6,1,2024-10-18_13h01.27.661,uWM_experiment,2022.2.3,59.98562745
,,,,,,,,,,,,,,,,,,,,0,0,0,0,,,,,2,0,2,0,,,,,,,,,,,,,,,,,,,,,,,,,,,,,,,,,,,,,,,,,,,,,,,,,,,,,,,,,,,,,,,,,,,,,,,,,,,,,,,,,,,,,,,,,,,,,,,,,,,,,,,,,,,,,,,,,,,,,,,,,,,,,,10,6,1,2024-10-18_13h01.27.661,uWM_experiment,2022.2.3,59.98562745
,,,,,,,,,,,,,,,,,,,,1,0,1,0,0,0,0,0,,,,,,,,,,,,,,,,,,,,,,,,,,,,,,,,,,,,,,,,,,,,,,,,,,,,,,,,,,,,,,,,,,,,,,0,,,,,,,,,,,,,,,,,,,,1529.745479,1530.445479,1530.745526,1531.445534,1531.745582,1532.445558,1532.445558,1532.762249,left,0,40,30,70,0,1536.995768,1536.995768,1536.995768,None,None,2,0,1.0312688,,,,,,,None,,,,,,,,,,,,10,6,1,2024-10-18_13h01.27.661,uWM_experiment,2022.2.3,59.98562745
,,,,,,,,,,,,,,,,,,,,1,0,1,0,1,0,1,0,,,,,,,,,,,,,,,,,,,,,,,,,,,,,,,,,,,,,,,,,,,,,,,,,,,,,,,,,,,,,,,,,,,,,,0.005,,,,,,,,,,,,,,,,,,,,,,,,,,,,left,0,70,30,100,1,1543.846021,1543.846021,1543.846021,None,None,2,0,0.7730194,,,,,,,,,,,,,,,,,,,10,6,1,2024-10-18_13h01.27.661,uWM_experiment,2022.2.3,59.98562745
,,,,,,,,,,,,,,,,,,,,1,0,1,0,2,0,2,0,,,,,,,,,,,,,,,,,,,,,,,,,,,,,,,,,,,,,,,,,,,,,,,,,,,,,,,,,,,,,,,,,,,,,,0.005,,,,,,,,,,,,,,,,,,,,,,,,,,,,left,0,130,30,160,1,1550.079614,1550.079614,1550.079614,None,None,2,0,0.3712645,,,,,,,,,,,,,,,,,,,10,6,1,2024-10-18_13h01.27.661,uWM_experiment,2022.2.3,59.98562745
,,,,,,,,,,,,,,,,,,,,1,0,1,0,3,0,3,0,,,,,,,,,,,,,,,,,,,,,,,,,,,,,,,,,,,,,,,,,,,,,,,,,,,,,,,,,,,,,,,,,,,,,,0.1,,,,,,,,,,,,,,,,,,,,,,,,,,,,right,1,40,30,70,2,1557.046581,1557.046581,1557.046581,None,None,4,0,0.3563629,,,,,,,,,,,,,,,,,,,10,6,1,2024-10-18_13h01.27.661,uWM_experiment,2022.2.3,59.98562745
,,,,,,,,,,,,,,,,,,,,1,0,1,0,4,0,4,0,,,,,,,,,,,,,,,,,,,,,,,,,,,,,,,,,,,,,,,,,,,,,,,,,,,,,,,,,,,,,,,,,,,,,,0.005,,,,,,,,,,,,,,,,,,,,,,,,,,,,left,1,160,-30,130,1,1562.813451,1562.813451,1562.813451,None,None,1,1,0.325398,,,,,,,,,,,,,,,,,,,10,6,1,2024-10-18_13h01.27.661,uWM_experiment,2022.2.3,59.98562745
,,,,,,,,,,,,,,,,,,,,1,0,1,0,5,0,5,0,,,,,,,,,,,,,,,,,,,,,,,,,,,,,,,,,,,,,,,,,,,,,,,,,,,,,,,,,,,,,,,,,,,,,,0.015,,,,,,,,,,,,,,,,,,,,,,,,,,,,right,1,160,30,190,1,1568.963715,1568.963715,1568.963715,None,None,1,1,0.2870931,,,,,,,,,,,,,,,,,,,10,6,1,2024-10-18_13h01.27.661,uWM_experiment,2022.2.3,59.98562745
,,,,,,,,,,,,,,,,,,,,1,0,1,0,6,0,6,0,,,,,,,,,,,,,,,,,,,,,,,,,,,,,,,,,,,,,,,,,,,,,,,,,,,,,,,,,,,,,,,,,,,,,,0.025,,,,,,,,,,,,,,,,,,,,,,,,,,,,left,1,160,-30,130,1,1574.480576,1574.480576,1574.480576,None,None,1,1,0.3062755,,,,,,,,,,,,,,,,,,,10,6,1,2024-10-18_13h01.27.661,uWM_experiment,2022.2.3,59.98562745
,,,,,,,,,,,,,,,,,,,,1,0,1,0,7,0,7,0,,,,,,,,,,,,,,,,,,,,,,,,,,,,,,,,,,,,,,,,,,,,,,,,,,,,,,,,,,,,,,,,,,,,,,0.035,,,,,,,,,,,,,,,,,,,,,,,,,,,,right,1,160,30,190,1,1580.347511,1580.347511,1580.347511,None,None,1,1,0.3191948,,,,,,,,,,,,,,,,,,,10,6,1,2024-10-18_13h01.27.661,uWM_experiment,2022.2.3,59.98562745
,,,,,,,,,,,,,,,,,,,,1,0,1,0,8,0,8,0,,,,,,,,,,,,,,,,,,,,,,,,,,,,,,,,,,,,,,,,,,,,,,,,,,,,,,,,,,,,,,,,,,,,,,0.045,,,,,,,,,,,,,,,,,,,,,,,,,,,,right,0,70,-30,40,1,1586.047715,1586.047715,1586.047715,None,None,2,0,0.419032,,,,,,,,,,,,,,,,,,,10,6,1,2024-10-18_13h01.27.661,uWM_experiment,2022.2.3,59.98562745
,,,,,,,,,,,,,,,,,,,,1,0,1,0,9,0,9,0,,,,,,,,,,,,,,,,,,,,,,,,,,,,,,,,,,,,,,,,,,,,,,,,,,,,,,,,,,,,,,,,,,,,,,0.035,,,,,,,,,,,,,,,,,,,,,,,,,,,,right,0,70,-30,40,1,1592.847994,1592.847994,1592.847994,None,None,2,0,0.3067279,,,,,,,,,,,,,,,,,,,10,6,1,2024-10-18_13h01.27.661,uWM_experiment,2022.2.3,59.98562745
,,,,,,,,,,,,,,,,,,,,1,0,1,0,10,0,10,0,,,,,,,,,,,,,,,,,,,,,,,,,,,,,,,,,,,,,,,,,,,,,,,,,,,,,,,,,,,,,,,,,,,,,,0.025,,,,,,,,,,,,,,,,,,,,,,,,,,,,left,0,70,30,100,1,1598.581558,1598.581558,1598.581558,None,None,1,1,0.2611247,,,,,,,,,,,,,,,,,,,10,6,1,2024-10-18_13h01.27.661,uWM_experiment,2022.2.3,59.98562745
,,,,,,,,,,,,,,,,,,,,1,0,1,0,11,0,11,0,,,,,,,,,,,,,,,,,,,,,,,,,,,,,,,,,,,,,,,,,,,,,,,,,,,,,,,,,,,,,,,,,,,,,,0,,,,,,,,,,,,,,,,,,,,,,,,,,,,left,1,160,-30,130,0,1604.481793,1604.481793,1604.481793,None,None,1,1,0.2729725,,,,,,,,,,,,,,,,,,,10,6,1,2024-10-18_13h01.27.661,uWM_experiment,2022.2.3,59.98562745
,,,,,,,,,,,,,,,,,,,,1,0,1,0,12,0,12,0,,,,,,,,,,,,,,,,,,,,,,,,,,,,,,,,,,,,,,,,,,,,,,,,,,,,,,,,,,,,,,,,,,,,,,0.035,,,,,,,,,,,,,,,,,,,,,,,,,,,,left,0,100,30,130,1,1610.28204,1610.28204,1610.28204,None,None,1,1,0.2726496,,,,,,,,,,,,,,,,,,,10,6,1,2024-10-18_13h01.27.661,uWM_experiment,2022.2.3,59.98562745
,,,,,,,,,,,,,,,,,,,,1,0,1,0,13,0,13,0,,,,,,,,,,,,,,,,,,,,,,,,,,,,,,,,,,,,,,,,,,,,,,,,,,,,,,,,,,,,,,,,,,,,,,0,,,,,,,,,,,,,,,,,,,,,,,,,,,,left,1,160,-30,130,0,1616.098908,1616.098908,1616.098908,None,None,1,1,0.4637399,,,,,,,,,,,,,,,,,,,10,6,1,2024-10-18_13h01.27.661,uWM_experiment,2022.2.3,59.98562745
,,,,,,,,,,,,,,,,,,,,1,0,1,0,14,0,14,0,,,,,,,,,,,,,,,,,,,,,,,,,,,,,,,,,,,,,,,,,,,,,,,,,,,,,,,,,,,,,,,,,,,,,,0,,,,,,,,,,,,,,,,,,,,,,,,,,,,left,1,130,-30,100,0,1622.215859,1622.215859,1622.215859,None,None,1,1,0.3148278,,,,,,,,,,,,,,,,,,,10,6,1,2024-10-18_13h01.27.661,uWM_experiment,2022.2.3,59.98562745
,,,,,,,,,,,,,,,,,,,,1,0,1,0,15,0,15,0,,,,,,,,,,,,,,,,,,,,,,,,,,,,,,,,,,,,,,,,,,,,,,,,,,,,,,,,,,,,,,,,,,,,,,0.045,,,,,,,,,,,,,,,,,,,,,,,,,,,,left,0,130,30,160,1,1628.366086,1628.366086,1628.366086,None,None,1,1,0.2684695,,,,,,,,,,,,,,,,,,,10,6,1,2024-10-18_13h01.27.661,uWM_experiment,2022.2.3,59.98562745
,,,,,,,,,,,,,,,,,,,,1,0,1,0,16,0,16,0,,,,,,,,,,,,,,,,,,,,,,,,,,,,,,,,,,,,,,,,,,,,,,,,,,,,,,,,,,,,,,,,,,,,,,0,,,,,,,,,,,,,,,,,,,,,,,,,,,,left,0,70,30,100,0,1634.433008,1634.433008,1634.433008,None,None,2,0,0.945603,,,,,,,,,,,,,,,,,,,10,6,1,2024-10-18_13h01.27.661,uWM_experiment,2022.2.3,59.98562745
,,,,,,,,,,,,,,,,,,,,1,0,1,0,17,0,17,0,,,,,,,,,,,,,,,,,,,,,,,,,,,,,,,,,,,,,,,,,,,,,,,,,,,,,,,,,,,,,,,,,,,,,,0.055,,,,,,,,,,,,,,,,,,,,,,,,,,,,left,1,70,-30,40,1,1640.649914,1640.649914,1640.649914,None,None,1,1,0.4807098,,,,,,,,,,,,,,,,,,,10,6,1,2024-10-18_13h01.27.661,uWM_experiment,2022.2.3,59.98562745
,,,,,,,,,,,,,,,,,,,,1,0,1,0,18,0,18,0,,,,,,,,,,,,,,,,,,,,,,,,,,,,,,,,,,,,,,,,,,,,,,,,,,,,,,,,,,,,,,,,,,,,,,0,,,,,,,,,,,,,,,,,,,,,,,,,,,,right,1,10,30,40,0,1647.533542,1647.533542,1647.533542,None,None,1,1,0.6130807,,,,,,,,,,,,,,,,,,,10,6,1,2024-10-18_13h01.27.661,uWM_experiment,2022.2.3,59.98562745
,,,,,,,,,,,,,,,,,,,,1,0,1,0,19,0,19,0,,,,,,,,,,,,,,,,,,,,,,,,,,,,,,,,,,,,,,,,,,,,,,,,,,,,,,,,,,,,,,,,,,,,,,0.065,,,,,,,,,,,,,,,,,,,,,,,,,,,,left,1,10,-30,-20,1,1653.967134,1653.967134,1653.967134,None,None,1,1,0.4274337,,,,,,,,,,,,,,,,,,,10,6,1,2024-10-18_13h01.27.661,uWM_experiment,2022.2.3,59.98562745
,,,,,,,,,,,,,,,,,,,,1,0,1,0,20,0,20,0,,,,,,,,,,,,,,,,,,,,,,,,,,,,,,,,,,,,,,,,,,,,,,,,,,,,,,,,,,,,,,,,,,,,,,0,,,,,,,,,,,,,,,,,,,,,,,,,,,,left,1,130,-30,100,0,1660.08402,1660.08402,1660.08402,None,None,1,1,1.3264564,,,,,,,,,,,,,,,,,,,10,6,1,2024-10-18_13h01.27.661,uWM_experiment,2022.2.3,59.98562745
,,,,,,,,,,,,,,,,,,,,1,0,1,0,21,0,21,0,,,,,,,,,,,,,,,,,,,,,,,,,,,,,,,,,,,,,,,,,,,,,,,,,,,,,,,,,,,,,,,,,,,,,,0.075,,,,,,,,,,,,,,,,,,,,,,,,,,,,left,1,160,-30,130,1,1667.084301,1667.084301,1667.084301,None,None,1,1,0.702052,,,,,,,,,,,,,,,,,,,10,6,1,2024-10-18_13h01.27.661,uWM_experiment,2022.2.3,59.98562745
,,,,,,,,,,,,,,,,,,,,1,0,1,0,22,0,22,0,,,,,,,,,,,,,,,,,,,,,,,,,,,,,,,,,,,,,,,,,,,,,,,,,,,,,,,,,,,,,,,,,,,,,,0.085,,,,,,,,,,,,,,,,,,,,,,,,,,,,right,1,160,30,190,1,1673.601219,1673.601219,1673.601219,None,None,1,1,0.3452518,,,,,,,,,,,,,,,,,,,10,6,1,2024-10-18_13h01.27.661,uWM_experiment,2022.2.3,59.98562745
,,,,,,,,,,,,,,,,,,,,1,0,1,0,23,0,23,0,,,,,,,,,,,,,,,,,,,,,,,,,,,,,,,,,,,,,,,,,,,,,,,,,,,,,,,,,,,,,,,,,,,,,,0.095,,,,,,,,,,,,,,,,,,,,,,,,,,,,right,1,40,30,70,1,1679.468132,1679.468132,1679.468132,None,None,2,0,0.3341653,,,,,,,,,,,,,,,,,,,10,6,1,2024-10-18_13h01.27.661,uWM_experiment,2022.2.3,59.98562745
,,,,,,,,,,,,,,,,,,,,1,0,1,0,,,,,0,0,0,0,,,,,,,,,,,,,,,,,,,,,,,,,,,,,,,,,,,,,,,,,,,,,,,,,,,,,,,,,,,,,,,,,,,,,,,,,,,,,,,,,,,,,,,,,,,,,,,,,,,,,,,,,,,,1679.834804,1679.834804,space,9.2235733,None,None,,,,,,,,,,,,,10,6,1,2024-10-18_13h01.27.661,uWM_experiment,2022.2.3,59.98562745
,,,,,,,,,,,,,,,,,,,,1,0,1,0,,,,,1,0,1,0,,,,,,,,,,,,,,,,,,,,,,,,,,,,,,,,,,,,,,,,,,,,,,,,,,,,,,,,,,,,,,,,,,,,,,,,,,,,,,,,,,,,,,,,,,,,,,,,,,,,,,,,,,,,,,,,,,,,,,,,,,,,,,10,6,1,2024-10-18_13h01.27.661,uWM_experiment,2022.2.3,59.98562745
,,,,,,,,,,,,,,,,,,,,1,0,1,0,,,,,2,0,2,0,,,,,,,,,,,,,,,,,,,,,,,,,,,,,,,,,,,,,,,,,,,,,,,,,,,,,,,,,,,,,,,,,,,,,,,,,,,,,,,,,,,,,,,,,,,,,,,,,,,,,,,,,,,,,,,,,,,,,,,,,,,,,,10,6,1,2024-10-18_13h01.27.661,uWM_experiment,2022.2.3,59.98562745
,,,,,,,,,,,,,,,,,,,,2,0,2,0,0,0,0,0,,,,,,,,,,,,,,,,,,,,,,,,,,,,,,,,,,,,,,,,,,,,,,,,,,,,,,,,,,,,,,,,,,,,,,0,,,,,,,,,,,,,,,,,,,,1689.085187,1689.785206,1690.085222,1690.785247,1691.085261,1691.785289,1691.785289,1692.101981,right,0,100,-30,70,0,1696.568821,1696.568821,1696.568821,None,None,2,0,0.6013882,,,,,,,None,,,,,,,,,,,,10,6,1,2024-10-18_13h01.27.661,uWM_experiment,2022.2.3,59.98562745
,,,,,,,,,,,,,,,,,,,,2,0,2,0,1,0,1,0,,,,,,,,,,,,,,,,,,,,,,,,,,,,,,,,,,,,,,,,,,,,,,,,,,,,,,,,,,,,,,,,,,,,,,0.085,,,,,,,,,,,,,,,,,,,,,,,,,,,,left,0,70,30,100,1,1702.98575,1702.98575,1702.98575,None,None,1,1,1.0724926,,,,,,,,,,,,,,,,,,,10,6,1,2024-10-18_13h01.27.661,uWM_experiment,2022.2.3,59.98562745
,,,,,,,,,,,,,,,,,,,,2,0,2,0,2,0,2,0,,,,,,,,,,,,,,,,,,,,,,,,,,,,,,,,,,,,,,,,,,,,,,,,,,,,,,,,,,,,,,,,,,,,,,0.1,,,,,,,,,,,,,,,,,,,,,,,,,,,,right,1,40,30,70,2,1709.902683,1709.902683,1709.902683,None,None,4,0,0.6915134,,,,,,,,,,,,,,,,,,,10,6,1,2024-10-18_13h01.27.661,uWM_experiment,2022.2.3,59.98562745
,,,,,,,,,,,,,,,,,,,,2,0,2,0,3,0,3,0,,,,,,,,,,,,,,,,,,,,,,,,,,,,,,,,,,,,,,,,,,,,,,,,,,,,,,,,,,,,,,,,,,,,,,0,,,,,,,,,,,,,,,,,,,,,,,,,,,,left,0,70,30,100,0,1715.919598,1715.919598,1715.919598,None,None,1,1,0.3465632,,,,,,,,,,,,,,,,,,,10,6,1,2024-10-18_13h01.27.661,uWM_experiment,2022.2.3,59.98562745
,,,,,,,,,,,,,,,,,,,,2,0,2,0,4,0,4,0,,,,,,,,,,,,,,,,,,,,,,,,,,,,,,,,,,,,,,,,,,,,,,,,,,,,,,,,,,,,,,,,,,,,,,0.095,,,,,,,,,,,,,,,,,,,,,,,,,,,,right,0,70,-30,40,1,1723.669913,1723.669913,1723.669913,None,None,3,0,0.9163094,,,,,,,,,,,,,,,,,,,10,6,1,2024-10-18_13h01.27.661,uWM_experiment,2022.2.3,59.98562745
,,,,,,,,,,,,,,,,,,,,2,0,2,0,5,0,5,0,,,,,,,,,,,,,,,,,,,,,,,,,,,,,,,,,,,,,,,,,,,,,,,,,,,,,,,,,,,,,,,,,,,,,,0.085,,,,,,,,,,,,,,,,,,,,,,,,,,,,left,1,10,-30,-20,1,1730.336845,1730.336845,1730.336845,None,None,2,0,0.4333333,,,,,,,,,,,,,,,,,,,10,6,1,2024-10-18_13h01.27.661,uWM_experiment,2022.2.3,59.98562745
,,,,,,,,,,,,,,,,,,,,2,0,2,0,6,0,6,0,,,,,,,,,,,,,,,,,,,,,,,,,,,,,,,,,,,,,,,,,,,,,,,,,,,,,,,,,,,,,,,,,,,,,,0,,,,,,,,,,,,,,,,,,,,,,,,,,,,left,1,160,-30,130,0,1736.487113,1736.487113,1736.487113,None,None,1,1,0.4111838,,,,,,,,,,,,,,,,,,,10,6,1,2024-10-18_13h01.27.661,uWM_experiment,2022.2.3,59.98562745
,,,,,,,,,,,,,,,,,,,,2,0,2,0,7,0,7,0,,,,,,,,,,,,,,,,,,,,,,,,,,,,,,,,,,,,,,,,,,,,,,,,,,,,,,,,,,,,,,,,,,,,,,0.075,,,,,,,,,,,,,,,,,,,,,,,,,,,,right,1,130,30,160,1,1742.704003,1742.704003,1742.704003,None,None,2,0,0.5700236,,,,,,,,,,,,,,,,,,,10,6,1,2024-10-18_13h01.27.661,uWM_experiment,2022.2.3,59.98562745
,,,,,,,,,,,,,,,,,,,,2,0,2,0,8,0,8,0,,,,,,,,,,,,,,,,,,,,,,,,,,,,,,,,,,,,,,,,,,,,,,,,,,,,,,,,,,,,,,,,,,,,,,0.065,,,,,,,,,,,,,,,,,,,,,,,,,,,,right,0,70,-30,40,1,1749.454298,1749.454298,1749.454298,None,None,2,0,0.9398382,,,,,,,,,,,,,,,,,,,10,6,1,2024-10-18_13h01.27.661,uWM_experiment,2022.2.3,59.98562745
,,,,,,,,,,,,,,,,,,,,2,0,2,0,9,0,9,0,,,,,,,,,,,,,,,,,,,,,,,,,,,,,,,,,,,,,,,,,,,,,,,,,,,,,,,,,,,,,,,,,,,,,,0.055,,,,,,,,,,,,,,,,,,,,,,,,,,,,left,1,70,-30,40,1,1755.754524,1755.754524,1755.754524,None,None,1,1,0.3034293,,,,,,,,,,,,,,,,,,,10,6,1,2024-10-18_13h01.27.661,uWM_experiment,2022.2.3,59.98562745
,,,,,,,,,,,,,,,,,,,,2,0,2,0,10,0,10,0,,,,,,,,,,,,,,,,,,,,,,,,,,,,,,,,,,,,,,,,,,,,,,,,,,,,,,,,,,,,,,,,,,,,,,0,,,,,,,,,,,,,,,,,,,,,,,,,,,,left,0,160,30,190,0,1761.254776,1761.254776,1761.254776,None,None,1,1,0.4272928,,,,,,,,,,,,,,,,,,,10,6,1,2024-10-18_13h01.27.661,uWM_experiment,2022.2.3,59.98562745
,,,,,,,,,,,,,,,,,,,,2,0,2,0,11,0,11,0,,,,,,,,,,,,,,,,,,,,,,,,,,,,,,,,,,,,,,,,,,,,,,,,,,,,,,,,,,,,,,,,,,,,,,0.065,,,,,,,,,,,,,,,,,,,,,,,,,,,,right,0,70,-30,40,1,1767.505025,1767.505025,1767.505025,None,None,3,0,0.320864,,,,,,,,,,,,,,,,,,,10,6,1,2024-10-18_13h01.27.661,uWM_experiment,2022.2.3,59.98562745
,,,,,,,,,,,,,,,,,,,,2,0,2,0,12,0,12,0,,,,,,,,,,,,,,,,,,,,,,,,,,,,,,,,,,,,,,,,,,,,,,,,,,,,,,,,,,,,,,,,,,,,,,0.055,,,,,,,,,,,,,,,,,,,,,,,,,,,,left,1,40,-30,10,1,1774.071919,1774.071919,1774.071919,None,None,2,0,0.8179634,,,,,,,,,,,,,,,,,,,10,6,1,2024-10-18_13h01.27.661,uWM_experiment,2022.2.3,59.98562745
,,,,,,,,,,,,,,,,,,,,2,0,2,0,13,0,13,0,,,,,,,,,,,,,,,,,,,,,,,,,,,,,,,,,,,,,,,,,,,,,,,,,,,,,,,,,,,,,,,,,,,,,,0.045,,,,,,,,,,,,,,,,,,,,,,,,,,,,right,0,70,-30,40,1,1780.672228,1780.672228,1780.672228,None,None,1,1,0.2976799,,,,,,,,,,,,,,,,,,,10,6,1,2024-10-18_13h01.27.661,uWM_experiment,2022.2.3,59.98562745
,,,,,,,,,,,,,,,,,,,,2,0,2,0,14,0,14,0,,,,,,,,,,,,,,,,,,,,,,,,,,,,,,,,,,,,,,,,,,,,,,,,,,,,,,,,,,,,,,,,,,,,,,0,,,,,,,,,,,,,,,,,,,,,,,,,,,,left,1,160,-30,130,0,1786.705777,1786.705777,1786.705777,None,None,2,0,0.8162154,,,,,,,,,,,,,,,,,,,10,6,1,2024-10-18_13h01.27.661,uWM_experiment,2022.2.3,59.98562745
,,,,,,,,,,,,,,,,,,,,2,0,2,0,15,0,15,0,,,,,,,,,,,,,,,,,,,,,,,,,,,,,,,,,,,,,,,,,,,,,,,,,,,,,,,,,,,,,,,,,,,,,,0.055,,,,,,,,,,,,,,,,,,,,,,,,,,,,right,0,70,-30,40,1,1793.139363,1793.139363,1793.139363,None,None,2,0,0.2624878,,,,,,,,,,,,,,,,,,,10,6,1,2024-10-18_13h01.27.661,uWM_experiment,2022.2.3,59.98562745
,,,,,,,,,,,,,,,,,,,,2,0,2,0,16,0,16,0,,,,,,,,,,,,,,,,,,,,,,,,,,,,,,,,,,,,,,,,,,,,,,,,,,,,,,,,,,,,,,,,,,,,,,0.045,,,,,,,,,,,,,,,,,,,,,,,,,,,,left,1,10,-30,-20,1,1798.672943,1798.672943,1798.672943,None,None,1,1,2.6329994,,,,,,,,,,,,,,,,,,,10,6,1,2024-10-18_13h01.27.661,uWM_experiment,2022.2.3,59.98562745
,,,,,,,,,,,,,,,,,,,,2,0,2,0,17,0,17,0,,,,,,,,,,,,,,,,,,,,,,,,,,,,,,,,,,,,,,,,,,,,,,,,,,,,,,,,,,,,,,,,,,,,,,0.055,,,,,,,,,,,,,,,,,,,,,,,,,,,,left,1,10,-30,-20,1,1808.356645,1808.356645,1808.356645,None,None,2,0,1.7491215,,,,,,,,,,,,,,,,,,,10,6,1,2024-10-18_13h01.27.661,uWM_experiment,2022.2.3,59.98562745
,,,,,,,,,,,,,,,,,,,,2,0,2,0,18,0,18,0,,,,,,,,,,,,,,,,,,,,,,,,,,,,,,,,,,,,,,,,,,,,,,,,,,,,,,,,,,,,,,,,,,,,,,0,,,,,,,,,,,,,,,,,,,,,,,,,,,,right,0,40,-30,10,0,1815.34026,1815.34026,1815.34026,None,None,1,1,0.5174214,,,,,,,,,,,,,,,,,,,10,6,1,2024-10-18_13h01.27.661,uWM_experiment,2022.2.3,59.98562745
,,,,,,,,,,,,,,,,,,,,2,0,2,0,19,0,19,0,,,,,,,,,,,,,,,,,,,,,,,,,,,,,,,,,,,,,,,,,,,,,,,,,,,,,,,,,,,,,,,,,,,,,,0,,,,,,,,,,,,,,,,,,,,,,,,,,,,right,1,40,30,70,0,1821.640504,1821.640504,1821.640504,None,None,2,0,0.6011789,,,,,,,,,,,,,,,,,,,10,6,1,2024-10-18_13h01.27.661,uWM_experiment,2022.2.3,59.98562745
,,,,,,,,,,,,,,,,,,,,2,0,2,0,20,0,20,0,,,,,,,,,,,,,,,,,,,,,,,,,,,,,,,,,,,,,,,,,,,,,,,,,,,,,,,,,,,,,,,,,,,,,,0.1,,,,,,,,,,,,,,,,,,,,,,,,,,,,left,0,70,30,100,2,1829.674177,1829.674177,1829.674177,None,None,4,0,0.511596,,,,,,,,,,,,,,,,,,,10,6,1,2024-10-18_13h01.27.661,uWM_experiment,2022.2.3,59.98562745
,,,,,,,,,,,,,,,,,,,,2,0,2,0,21,0,21,0,,,,,,,,,,,,,,,,,,,,,,,,,,,,,,,,,,,,,,,,,,,,,,,,,,,,,,,,,,,,,,,,,,,,,,0.1,,,,,,,,,,,,,,,,,,,,,,,,,,,,right,1,10,30,40,2,1836.124445,1836.124445,1836.124445,None,None,4,0,0.6133434,,,,,,,,,,,,,,,,,,,10,6,1,2024-10-18_13h01.27.661,uWM_experiment,2022.2.3,59.98562745
,,,,,,,,,,,,,,,,,,,,2,0,2,0,22,0,22,0,,,,,,,,,,,,,,,,,,,,,,,,,,,,,,,,,,,,,,,,,,,,,,,,,,,,,,,,,,,,,,,,,,,,,,0.045,,,,,,,,,,,,,,,,,,,,,,,,,,,,left,1,10,-30,-20,1,1842.658028,1842.658028,1842.658028,None,None,3,0,0.3836455,,,,,,,,,,,,,,,,,,,10,6,1,2024-10-18_13h01.27.661,uWM_experiment,2022.2.3,59.98562745
,,,,,,,,,,,,,,,,,,,,2,0,2,0,23,0,23,0,,,,,,,,,,,,,,,,,,,,,,,,,,,,,,,,,,,,,,,,,,,,,,,,,,,,,,,,,,,,,,,,,,,,,,0.035,,,,,,,,,,,,,,,,,,,,,,,,,,,,left,0,40,30,70,1,1848.308261,1848.308261,1848.308261,None,None,1,1,0.5814345,,,,,,,,,,,,,,,,,,,10,6,1,2024-10-18_13h01.27.661,uWM_experiment,2022.2.3,59.98562745
,,,,,,,,,,,,,,,,,,,,2,0,2,0,,,,,0,0,0,0,,,,,,,,,,,,,,,,,,,,,,,,,,,,,,,,,,,,,,,,,,,,,,,,,,,,,,,,,,,,,,,,,,,,,,,,,,,,,,,,,,,,,,,,,,,,,,,,,,,,,,,,,,,,1848.908244,1848.908244,space,4.2934258,space,None,,1853.225106,1853.225106,4.1124894,,,,,,,,,10,6,1,2024-10-18_13h01.27.661,uWM_experiment,2022.2.3,59.98562745
,,,,,,,,,,,,,,,,,,,,2,0,2,0,,,,,1,0,1,0,,,,,,,,,,,,,,,,,,,,,,,,,,,,,,,,,,,,,,,,,,,,,,,,,,,,,,,,,,,,,,,,,,,,,,,,,,,,,,,,,,,,,,,,,,,,,,,,,,,,,,,,,,,,,,,,,,,,,,,,,,,,,,10,6,1,2024-10-18_13h01.27.661,uWM_experiment,2022.2.3,59.98562745
,,,,,,,,,,,,,,,,,,,,2,0,2,0,,,,,2,0,2,0,,,,,,,,,,,,,,,,,,,,,,,,,,,,,,,,,,,,,,,,,,,,,,,,,,,,,,,,,,,,,,,,,,,,,,,,,,,,,,,,,,,,,,,,,,,,,,,,,,,,,,,,,,,,,,,,,,,,,,,,,,,,,,10,6,1,2024-10-18_13h01.27.661,uWM_experiment,2022.2.3,59.98562745
,,,,,,,,,,,,,,,,,,,,3,0,3,0,0,0,0,0,,,,,,,,,,,,,,,,,,,,,,,,,,,,,,,,,,,,,,,,,,,,,,,,,,,,,,,,,,,,,,,,,,,,,,0,,,,,,,,,,,,,,,,,,,,1857.358601,1858.058632,1858.358639,1859.058672,1859.358682,1860.058708,1860.058708,1860.375397,right,0,100,-30,70,0,1864.975601,1864.975601,1864.975601,None,None,1,1,0.4099193,,,,,,,None,,,,,,,,,,,,10,6,1,2024-10-18_13h01.27.661,uWM_experiment,2022.2.3,59.98562745
,,,,,,,,,,,,,,,,,,,,3,0,3,0,1,0,1,0,,,,,,,,,,,,,,,,,,,,,,,,,,,,,,,,,,,,,,,,,,,,,,,,,,,,,,,,,,,,,,,,,,,,,,0.045,,,,,,,,,,,,,,,,,,,,,,,,,,,,left,1,40,-30,10,1,1871.075824,1871.075824,1871.075824,None,None,2,0,0.325715,,,,,,,,,,,,,,,,,,,10,6,1,2024-10-18_13h01.27.661,uWM_experiment,2022.2.3,59.98562745
,,,,,,,,,,,,,,,,,,,,3,0,3,0,2,0,2,0,,,,,,,,,,,,,,,,,,,,,,,,,,,,,,,,,,,,,,,,,,,,,,,,,,,,,,,,,,,,,,,,,,,,,,0,,,,,,,,,,,,,,,,,,,,,,,,,,,,right,0,100,-30,70,0,1877.009442,1877.009442,1877.009442,None,None,2,0,0.5121277,,,,,,,,,,,,,,,,,,,10,6,1,2024-10-18_13h01.27.661,uWM_experiment,2022.2.3,59.98562745
,,,,,,,,,,,,,,,,,,,,3,0,3,0,3,0,3,0,,,,,,,,,,,,,,,,,,,,,,,,,,,,,,,,,,,,,,,,,,,,,,,,,,,,,,,,,,,,,,,,,,,,,,0,,,,,,,,,,,,,,,,,,,,,,,,,,,,left,0,70,30,100,0,1883.359669,1883.359669,1883.359669,None,None,3,0,0.6498302,,,,,,,,,,,,,,,,,,,10,6,1,2024-10-18_13h01.27.661,uWM_experiment,2022.2.3,59.98562745
,,,,,,,,,,,,,,,,,,,,3,0,3,0,4,0,4,0,,,,,,,,,,,,,,,,,,,,,,,,,,,,,,,,,,,,,,,,,,,,,,,,,,,,,,,,,,,,,,,,,,,,,,0.035,,,,,,,,,,,,,,,,,,,,,,,,,,,,left,1,10,-30,-20,1,1889.809905,1889.809905,1889.809905,None,None,2,0,0.5837149,,,,,,,,,,,,,,,,,,,10,6,1,2024-10-18_13h01.27.661,uWM_experiment,2022.2.3,59.98562745
,,,,,,,,,,,,,,,,,,,,3,0,3,0,5,0,5,0,,,,,,,,,,,,,,,,,,,,,,,,,,,,,,,,,,,,,,,,,,,,,,,,,,,,,,,,,,,,,,,,,,,,,,0,,,,,,,,,,,,,,,,,,,,,,,,,,,,left,0,160,30,190,0,1896.243523,1896.243523,1896.243523,None,None,1,1,0.3258704,,,,,,,,,,,,,,,,,,,10,6,1,2024-10-18_13h01.27.661,uWM_experiment,2022.2.3,59.98562745
,,,,,,,,,,,,,,,,,,,,3,0,3,0,6,0,6,0,,,,,,,,,,,,,,,,,,,,,,,,,,,,,,,,,,,,,,,,,,,,,,,,,,,,,,,,,,,,,,,,,,,,,,0.025,,,,,,,,,,,,,,,,,,,,,,,,,,,,right,1,130,30,160,1,1901.777083,1901.777083,1901.777083,None,None,1,1,0.4482949,,,,,,,,,,,,,,,,,,,10,6,1,2024-10-18_13h01.27.661,uWM_experiment,2022.2.3,59.98562745
,,,,,,,,,,,,,,,,,,,,3,0,3,0,7,0,7,0,,,,,,,,,,,,,,,,,,,,,,,,,,,,,,,,,,,,,,,,,,,,,,,,,,,,,,,,,,,,,,,,,,,,,,0.035,,,,,,,,,,,,,,,,,,,,,,,,,,,,left,1,10,-30,-20,1,1907.760698,1907.760698,1907.760698,None,None,3,0,0.5845661,,,,,,,,,,,,,,,,,,,10,6,1,2024-10-18_13h01.27.661,uWM_experiment,2022.2.3,59.98562745
,,,,,,,,,,,,,,,,,,,,3,0,3,0,8,0,8,0,,,,,,,,,,,,,,,,,,,,,,,,,,,,,,,,,,,,,,,,,,,,,,,,,,,,,,,,,,,,,,,,,,,,,,0,,,,,,,,,,,,,,,,,,,,,,,,,,,,left,0,100,30,130,0,1914.027572,1914.027572,1914.027572,None,None,3,0,0.5577484,,,,,,,,,,,,,,,,,,,10,6,1,2024-10-18_13h01.27.661,uWM_experiment,2022.2.3,59.98562745
,,,,,,,,,,,,,,,,,,,,3,0,3,0,9,0,9,0,,,,,,,,,,,,,,,,,,,,,,,,,,,,,,,,,,,,,,,,,,,,,,,,,,,,,,,,,,,,,,,,,,,,,,0,,,,,,,,,,,,,,,,,,,,,,,,,,,,right,0,100,-30,70,0,1920.161136,1920.161136,1920.161136,None,None,3,0,0.5040698,,,,,,,,,,,,,,,,,,,10,6,1,2024-10-18_13h01.27.661,uWM_experiment,2022.2.3,59.98562745
,,,,,,,,,,,,,,,,,,,,3,0,3,0,10,0,10,0,,,,,,,,,,,,,,,,,,,,,,,,,,,,,,,,,,,,,,,,,,,,,,,,,,,,,,,,,,,,,,,,,,,,,,0,,,,,,,,,,,,,,,,,,,,,,,,,,,,right,0,70,-30,40,0,1926.228036,1926.228036,1926.228036,None,None,3,0,0.5092193,,,,,,,,,,,,,,,,,,,10,6,1,2024-10-18_13h01.27.661,uWM_experiment,2022.2.3,59.98562745
,,,,,,,,,,,,,,,,,,,,3,0,3,0,11,0,11,0,,,,,,,,,,,,,,,,,,,,,,,,,,,,,,,,,,,,,,,,,,,,,,,,,,,,,,,,,,,,,,,,,,,,,,0.025,,,,,,,,,,,,,,,,,,,,,,,,,,,,left,1,100,-30,70,1,1932.011624,1932.011624,1932.011624,None,None,1,1,1.2936597,,,,,,,,,,,,,,,,,,,10,6,1,2024-10-18_13h01.27.661,uWM_experiment,2022.2.3,59.98562745
,,,,,,,,,,,,,,,,,,,,3,0,3,0,12,0,12,0,,,,,,,,,,,,,,,,,,,,,,,,,,,,,,,,,,,,,,,,,,,,,,,,,,,,,,,,,,,,,,,,,,,,,,0.035,,,,,,,,,,,,,,,,,,,,,,,,,,,,right,1,40,30,70,1,1938.928562,1938.928562,1938.928562,None,None,3,0,0.968561,,,,,,,,,,,,,,,,,,,10,6,1,2024-10-18_13h01.27.661,uWM_experiment,2022.2.3,59.98562745
,,,,,,,,,,,,,,,,,,,,3,0,3,0,13,0,13,0,,,,,,,,,,,,,,,,,,,,,,,,,,,,,,,,,,,,,,,,,,,,,,,,,,,,,,,,,,,,,,,,,,,,,,0.025,,,,,,,,,,,,,,,,,,,,,,,,,,,,left,1,130,-30,100,1,1945.662181,1945.662181,1945.662181,None,None,2,0,0.4110278,,,,,,,,,,,,,,,,,,,10,6,1,2024-10-18_13h01.27.661,uWM_experiment,2022.2.3,59.98562745
,,,,,,,,,,,,,,,,,,,,3,0,3,0,14,0,14,0,,,,,,,,,,,,,,,,,,,,,,,,,,,,,,,,,,,,,,,,,,,,,,,,,,,,,,,,,,,,,,,,,,,,,,0.015,,,,,,,,,,,,,,,,,,,,,,,,,,,,left,0,130,30,160,1,1951.429069,1951.429069,1951.429069,None,None,1,1,0.5640916,,,,,,,,,,,,,,,,,,,10,6,1,2024-10-18_13h01.27.661,uWM_experiment,2022.2.3,59.98562745
,,,,,,,,,,,,,,,,,,,,3,0,3,0,15,0,15,0,,,,,,,,,,,,,,,,,,,,,,,,,,,,,,,,,,,,,,,,,,,,,,,,,,,,,,,,,,,,,,,,,,,,,,0.025,,,,,,,,,,,,,,,,,,,,,,,,,,,,right,1,130,30,160,1,1957.579306,1957.579306,1957.579306,None,None,1,1,0.8297706,,,,,,,,,,,,,,,,,,,10,6,1,2024-10-18_13h01.27.661,uWM_experiment,2022.2.3,59.98562745
,,,,,,,,,,,,,,,,,,,,3,0,3,0,16,0,16,0,,,,,,,,,,,,,,,,,,,,,,,,,,,,,,,,,,,,,,,,,,,,,,,,,,,,,,,,,,,,,,,,,,,,,,0,,,,,,,,,,,,,,,,,,,,,,,,,,,,right,1,40,30,70,0,1965.496304,1965.496304,1965.496304,None,None,2,0,0.6089122,,,,,,,,,,,,,,,,,,,10,6,1,2024-10-18_13h01.27.661,uWM_experiment,2022.2.3,59.98562745
,,,,,,,,,,,,,,,,,,,,3,0,3,0,17,0,17,0,,,,,,,,,,,,,,,,,,,,,,,,,,,,,,,,,,,,,,,,,,,,,,,,,,,,,,,,,,,,,,,,,,,,,,0.035,,,,,,,,,,,,,,,,,,,,,,,,,,,,left,0,70,30,100,1,1972.996596,1972.996596,1972.996596,None,None,2,0,0.4523594,,,,,,,,,,,,,,,,,,,10,6,1,2024-10-18_13h01.27.661,uWM_experiment,2022.2.3,59.98562745
,,,,,,,,,,,,,,,,,,,,3,0,3,0,18,0,18,0,,,,,,,,,,,,,,,,,,,,,,,,,,,,,,,,,,,,,,,,,,,,,,,,,,,,,,,,,,,,,,,,,,,,,,0.025,,,,,,,,,,,,,,,,,,,,,,,,,,,,left,1,40,-30,10,1,1979.046834,1979.046834,1979.046834,None,None,1,1,0.3380896,,,,,,,,,,,,,,,,,,,10,6,1,2024-10-18_13h01.27.661,uWM_experiment,2022.2.3,59.98562745
,,,,,,,,,,,,,,,,,,,,3,0,3,0,19,0,19,0,,,,,,,,,,,,,,,,,,,,,,,,,,,,,,,,,,,,,,,,,,,,,,,,,,,,,,,,,,,,,,,,,,,,,,0.035,,,,,,,,,,,,,,,,,,,,,,,,,,,,right,0,70,-30,40,1,1984.997076,1984.997076,1984.997076,None,None,2,0,0.4599741,,,,,,,,,,,,,,,,,,,10,6,1,2024-10-18_13h01.27.661,uWM_experiment,2022.2.3,59.98562745
,,,,,,,,,,,,,,,,,,,,3,0,3,0,20,0,20,0,,,,,,,,,,,,,,,,,,,,,,,,,,,,,,,,,,,,,,,,,,,,,,,,,,,,,,,,,,,,,,,,,,,,,,0.025,,,,,,,,,,,,,,,,,,,,,,,,,,,,left,0,160,30,190,1,1990.680656,1990.680656,1990.680656,None,None,1,1,1.0803363,,,,,,,,,,,,,,,,,,,10,6,1,2024-10-18_13h01.27.661,uWM_experiment,2022.2.3,59.98562745
,,,,,,,,,,,,,,,,,,,,3,0,3,0,21,0,21,0,,,,,,,,,,,,,,,,,,,,,,,,,,,,,,,,,,,,,,,,,,,,,,,,,,,,,,,,,,,,,,,,,,,,,,0.035,,,,,,,,,,,,,,,,,,,,,,,,,,,,left,0,100,30,130,1,1997.464271,1997.464271,1997.464271,None,None,1,1,0.5205719,,,,,,,,,,,,,,,,,,,10,6,1,2024-10-18_13h01.27.661,uWM_experiment,2022.2.3,59.98562745
,,,,,,,,,,,,,,,,,,,,3,0,3,0,22,0,22,0,,,,,,,,,,,,,,,,,,,,,,,,,,,,,,,,,,,,,,,,,,,,,,,,,,,,,,,,,,,,,,,,,,,,,,0.045,,,,,,,,,,,,,,,,,,,,,,,,,,,,left,1,10,-30,-20,1,2003.631177,2003.631177,2003.631177,None,None,3,0,0.9938436,,,,,,,,,,,,,,,,,,,10,6,1,2024-10-18_13h01.27.661,uWM_experiment,2022.2.3,59.98562745
,,,,,,,,,,,,,,,,,,,,3,0,3,0,23,0,23,0,,,,,,,,,,,,,,,,,,,,,,,,,,,,,,,,,,,,,,,,,,,,,,,,,,,,,,,,,,,,,,,,,,,,,,0,,,,,,,,,,,,,,,,,,,,,,,,,,,,left,0,40,30,70,0,2010.564781,2010.564781,2010.564781,None,None,2,0,0.4680036,,,,,,,,,,,,,,,,,,,10,6,1,2024-10-18_13h01.27.661,uWM_experiment,2022.2.3,59.98562745
,,,,,,,,,,,,,,,,,,,,3,0,3,0,,,,,0,0,0,0,,,,,,,,,,,,,,,,,,,,,,,,,,,,,,,,,,,,,,,,,,,,,,,,,,,,,,,,,,,,,,,,,,,,,,,,,,,,,,,,,,,,,,,,,,,,,,,,,,,,,,,,,,,,2011.064797,2011.064797,space,21.8000157,None,None,,,,,,,,,,,,,10,6,1,2024-10-18_13h01.27.661,uWM_experiment,2022.2.3,59.98562745
,,,,,,,,,,,,,,,,,,,,3,0,3,0,,,,,1,0,1,0,,,,,,,,,,,,,,,,,,,,,,,,,,,,,,,,,,,,,,,,,,,,,,,,,,,,,,,,,,,,,,,,,,,,,,,,,,,,,,,,,,,,,,,,,,,,,,,,,,,,,,,,,,,,,,,,,,,,,,,,,,,,,,10,6,1,2024-10-18_13h01.27.661,uWM_experiment,2022.2.3,59.98562745
,,,,,,,,,,,,,,,,,,,,3,0,3,0,,,,,2,0,2,0,,,,,,,,,,,,,,,,,,,,,,,,,,,,,,,,,,,,,,,,,,,,,,,,,,,,,,,,,,,,,,,,,,,,,,,,,,,,,,,,,,,,,,,,,,,,,,,,,,,,,,,,,,,,,,,,,,,,,,,,,,,,,,10,6,1,2024-10-18_13h01.27.661,uWM_experiment,2022.2.3,59.98562745
,,,,,,,,,,,,,,,,,,,,4,0,4,0,0,0,0,0,,,,,,,,,,,,,,,,,,,,,,,,,,,,,,,,,,,,,,,,,,,,,,,,,,,,,,,,,,,,,,,,,,,,,,0.035,,,,,,,,,,,,,,,,,,,,2032.882326,2033.58236,2033.882365,2034.582394,2034.882406,2035.582433,2035.582433,2035.89912,left,0,130,30,160,1,2040.365972,2040.365972,2040.365972,None,None,2,0,0.2507008,,,,,,,None,,,,,,,,,,,,10,6,1,2024-10-18_13h01.27.661,uWM_experiment,2022.2.3,59.98562745
,,,,,,,,,,,,,,,,,,,,4,0,4,0,1,0,1,0,,,,,,,,,,,,,,,,,,,,,,,,,,,,,,,,,,,,,,,,,,,,,,,,,,,,,,,,,,,,,,,,,,,,,,0,,,,,,,,,,,,,,,,,,,,,,,,,,,,right,1,10,30,40,0,2046.182887,2046.182887,2046.182887,None,None,2,0,0.3218905,,,,,,,,,,,,,,,,,,,10,6,1,2024-10-18_13h01.27.661,uWM_experiment,2022.2.3,59.98562745
,,,,,,,,,,,,,,,,,,,,4,0,4,0,2,0,2,0,,,,,,,,,,,,,,,,,,,,,,,,,,,,,,,,,,,,,,,,,,,,,,,,,,,,,,,,,,,,,,,,,,,,,,0.025,,,,,,,,,,,,,,,,,,,,,,,,,,,,left,0,130,30,160,1,2052.483142,2052.483142,2052.483142,None,None,2,0,0.2935415,,,,,,,,,,,,,,,,,,,10,6,1,2024-10-18_13h01.27.661,uWM_experiment,2022.2.3,59.98562745
,,,,,,,,,,,,,,,,,,,,4,0,4,0,3,0,3,0,,,,,,,,,,,,,,,,,,,,,,,,,,,,,,,,,,,,,,,,,,,,,,,,,,,,,,,,,,,,,,,,,,,,,,0.015,,,,,,,,,,,,,,,,,,,,,,,,,,,,left,0,70,30,100,1,2058.083341,2058.083341,2058.083341,None,None,1,1,0.3734058,,,,,,,,,,,,,,,,,,,10,6,1,2024-10-18_13h01.27.661,uWM_experiment,2022.2.3,59.98562745
,,,,,,,,,,,,,,,,,,,,4,0,4,0,4,0,4,0,,,,,,,,,,,,,,,,,,,,,,,,,,,,,,,,,,,,,,,,,,,,,,,,,,,,,,,,,,,,,,,,,,,,,,0.1,,,,,,,,,,,,,,,,,,,,,,,,,,,,right,0,70,-30,40,2,2066.800435,2066.800435,2066.800435,None,None,2,0,0.6162061,,,,,,,,,,,,,,,,,,,10,6,1,2024-10-18_13h01.27.661,uWM_experiment,2022.2.3,59.98562745
,,,,,,,,,,,,,,,,,,,,4,0,4,0,5,0,5,0,,,,,,,,,,,,,,,,,,,,,,,,,,,,,,,,,,,,,,,,,,,,,,,,,,,,,,,,,,,,,,,,,,,,,,0.025,,,,,,,,,,,,,,,,,,,,,,,,,,,,left,0,130,30,160,1,2073.200635,2073.200635,2073.200635,None,None,2,0,0.3759428,,,,,,,,,,,,,,,,,,,10,6,1,2024-10-18_13h01.27.661,uWM_experiment,2022.2.3,59.98562745
,,,,,,,,,,,,,,,,,,,,4,0,4,0,6,0,6,0,,,,,,,,,,,,,,,,,,,,,,,,,,,,,,,,,,,,,,,,,,,,,,,,,,,,,,,,,,,,,,,,,,,,,,0.015,,,,,,,,,,,,,,,,,,,,,,,,,,,,left,0,10,30,40,1,2079.61756,2079.61756,2079.61756,None,None,3,0,0.4790565,,,,,,,,,,,,,,,,,,,10,6,1,2024-10-18_13h01.27.661,uWM_experiment,2022.2.3,59.98562745
,,,,,,,,,,,,,,,,,,,,4,0,4,0,7,0,7,0,,,,,,,,,,,,,,,,,,,,,,,,,,,,,,,,,,,,,,,,,,,,,,,,,,,,,,,,,,,,,,,,,,,,,,0,,,,,,,,,,,,,,,,,,,,,,,,,,,,left,1,10,-30,-20,0,2085.751129,2085.751129,2085.751129,None,None,2,0,0.5453661,,,,,,,,,,,,,,,,,,,10,6,1,2024-10-18_13h01.27.661,uWM_experiment,2022.2.3,59.98562745
,,,,,,,,,,,,,,,,,,,,4,0,4,0,8,0,8,0,,,,,,,,,,,,,,,,,,,,,,,,,,,,,,,,,,,,,,,,,,,,,,,,,,,,,,,,,,,,,,,,,,,,,,0.005,,,,,,,,,,,,,,,,,,,,,,,,,,,,left,1,10,-30,-20,1,2091.918017,2091.918017,2091.918017,None,None,2,0,0.578552,,,,,,,,,,,,,,,,,,,10,6,1,2024-10-18_13h01.27.661,uWM_experiment,2022.2.3,59.98562745
,,,,,,,,,,,,,,,,,,,,4,0,4,0,9,0,9,0,,,,,,,,,,,,,,,,,,,,,,,,,,,,,,,,,,,,,,,,,,,,,,,,,,,,,,,,,,,,,,,,,,,,,,0,,,,,,,,,,,,,,,,,,,,,,,,,,,,left,1,160,-30,130,0,2098.034967,2098.034967,2098.034967,None,None,2,0,0.4854312,,,,,,,,,,,,,,,,,,,10,6,1,2024-10-18_13h01.27.661,uWM_experiment,2022.2.3,59.98562745
,,,,,,,,,,,,,,,,,,,,4,0,4,0,10,0,10,0,,,,,,,,,,,,,,,,,,,,,,,,,,,,,,,,,,,,,,,,,,,,,,,,,,,,,,,,,,,,,,,,,,,,,,0.005,,,,,,,,,,,,,,,,,,,,,,,,,,,,right,0,100,-30,70,1,2104.63523,2104.63523,2104.63523,None,None,3,0,0.5252629,,,,,,,,,,,,,,,,,,,10,6,1,2024-10-18_13h01.27.661,uWM_experiment,2022.2.3,59.98562745
,,,,,,,,,,,,,,,,,,,,4,0,4,0,11,0,11,0,,,,,,,,,,,,,,,,,,,,,,,,,,,,,,,,,,,,,,,,,,,,,,,,,,,,,,,,,,,,,,,,,,,,,,0.005,,,,,,,,,,,,,,,,,,,,,,,,,,,,right,1,10,30,40,1,2110.752125,2110.752125,2110.752125,None,None,3,0,1.2084119,,,,,,,,,,,,,,,,,,,10,6,1,2024-10-18_13h01.27.661,uWM_experiment,2022.2.3,59.98562745
,,,,,,,,,,,,,,,,,,,,4,0,4,0,12,0,12,0,,,,,,,,,,,,,,,,,,,,,,,,,,,,,,,,,,,,,,,,,,,,,,,,,,,,,,,,,,,,,,,,,,,,,,0.1,,,,,,,,,,,,,,,,,,,,,,,,,,,,right,1,160,30,190,2,2117.769085,2117.769085,2117.769085,None,None,4,0,0.8552568,,,,,,,,,,,,,,,,,,,10,6,1,2024-10-18_13h01.27.661,uWM_experiment,2022.2.3,59.98562745
,,,,,,,,,,,,,,,,,,,,4,0,4,0,13,0,13,0,,,,,,,,,,,,,,,,,,,,,,,,,,,,,,,,,,,,,,,,,,,,,,,,,,,,,,,,,,,,,,,,,,,,,,0,,,,,,,,,,,,,,,,,,,,,,,,,,,,left,0,130,30,160,0,2125.619381,2125.619381,2125.619381,None,None,2,0,0.4610385,,,,,,,,,,,,,,,,,,,10,6,1,2024-10-18_13h01.27.661,uWM_experiment,2022.2.3,59.98562745
,,,,,,,,,,,,,,,,,,,,4,0,4,0,14,0,14,0,,,,,,,,,,,,,,,,,,,,,,,,,,,,,,,,,,,,,,,,,,,,,,,,,,,,,,,,,,,,,,,,,,,,,,0.005,,,,,,,,,,,,,,,,,,,,,,,,,,,,left,0,100,30,130,1,2133.403048,2133.403048,2133.403048,None,None,2,0,0.2452749,,,,,,,,,,,,,,,,,,,10,6,1,2024-10-18_13h01.27.661,uWM_experiment,2022.2.3,59.98562745
,,,,,,,,,,,,,,,,,,,,4,0,4,0,15,0,15,0,,,,,,,,,,,,,,,,,,,,,,,,,,,,,,,,,,,,,,,,,,,,,,,,,,,,,,,,,,,,,,,,,,,,,,0.005,,,,,,,,,,,,,,,,,,,,,,,,,,,,left,0,70,30,100,1,2139.486644,2139.486644,2139.486644,None,None,1,1,0.3296508,,,,,,,,,,,,,,,,,,,10,6,1,2024-10-18_13h01.27.661,uWM_experiment,2022.2.3,59.98562745
,,,,,,,,,,,,,,,,,,,,4,0,4,0,16,0,16,0,,,,,,,,,,,,,,,,,,,,,,,,,,,,,,,,,,,,,,,,,,,,,,,,,,,,,,,,,,,,,,,,,,,,,,0.015,,,,,,,,,,,,,,,,,,,,,,,,,,,,right,1,160,30,190,1,2145.336867,2145.336867,2145.336867,None,None,1,1,0.311385,,,,,,,,,,,,,,,,,,,10,6,1,2024-10-18_13h01.27.661,uWM_experiment,2022.2.3,59.98562745
,,,,,,,,,,,,,,,,,,,,4,0,4,0,17,0,17,0,,,,,,,,,,,,,,,,,,,,,,,,,,,,,,,,,,,,,,,,,,,,,,,,,,,,,,,,,,,,,,,,,,,,,,0.025,,,,,,,,,,,,,,,,,,,,,,,,,,,,left,0,70,30,100,1,2151.303784,2151.303784,2151.303784,None,None,2,0,1.0164946,,,,,,,,,,,,,,,,,,,10,6,1,2024-10-18_13h01.27.661,uWM_experiment,2022.2.3,59.98562745
,,,,,,,,,,,,,,,,,,,,4,0,4,0,18,0,18,0,,,,,,,,,,,,,,,,,,,,,,,,,,,,,,,,,,,,,,,,,,,,,,,,,,,,,,,,,,,,,,,,,,,,,,0,,,,,,,,,,,,,,,,,,,,,,,,,,,,right,0,100,-30,70,0,2157.787349,2157.787349,2157.787349,None,None,1,1,0.3329068,,,,,,,,,,,,,,,,,,,10,6,1,2024-10-18_13h01.27.661,uWM_experiment,2022.2.3,59.98562745
,,,,,,,,,,,,,,,,,,,,4,0,4,0,19,0,19,0,,,,,,,,,,,,,,,,,,,,,,,,,,,,,,,,,,,,,,,,,,,,,,,,,,,,,,,,,,,,,,,,,,,,,,0,,,,,,,,,,,,,,,,,,,,,,,,,,,,right,1,40,30,70,0,2163.804279,2163.804279,2163.804279,None,None,2,0,0.3560173,,,,,,,,,,,,,,,,,,,10,6,1,2024-10-18_13h01.27.661,uWM_experiment,2022.2.3,59.98562745
,,,,,,,,,,,,,,,,,,,,4,0,4,0,20,0,20,0,,,,,,,,,,,,,,,,,,,,,,,,,,,,,,,,,,,,,,,,,,,,,,,,,,,,,,,,,,,,,,,,,,,,,,0,,,,,,,,,,,,,,,,,,,,,,,,,,,,left,0,130,30,160,0,2170.25452,2170.25452,2170.25452,None,None,2,0,0.313618,,,,,,,,,,,,,,,,,,,10,6,1,2024-10-18_13h01.27.661,uWM_experiment,2022.2.3,59.98562745
,,,,,,,,,,,,,,,,,,,,4,0,4,0,21,0,21,0,,,,,,,,,,,,,,,,,,,,,,,,,,,,,,,,,,,,,,,,,,,,,,,,,,,,,,,,,,,,,,,,,,,,,,0.015,,,,,,,,,,,,,,,,,,,,,,,,,,,,left,1,160,-30,130,1,2175.871435,2175.871435,2175.871435,None,None,1,1,0.3525925,,,,,,,,,,,,,,,,,,,10,6,1,2024-10-18_13h01.27.661,uWM_experiment,2022.2.3,59.98562745
,,,,,,,,,,,,,,,,,,,,4,0,4,0,22,0,22,0,,,,,,,,,,,,,,,,,,,,,,,,,,,,,,,,,,,,,,,,,,,,,,,,,,,,,,,,,,,,,,,,,,,,,,0,,,,,,,,,,,,,,,,,,,,,,,,,,,,left,1,40,-30,10,0,2182.355005,2182.355005,2182.355005,None,None,2,0,0.2291513,,,,,,,,,,,,,,,,,,,10,6,1,2024-10-18_13h01.27.661,uWM_experiment,2022.2.3,59.98562745
,,,,,,,,,,,,,,,,,,,,4,0,4,0,23,0,23,0,,,,,,,,,,,,,,,,,,,,,,,,,,,,,,,,,,,,,,,,,,,,,,,,,,,,,,,,,,,,,,,,,,,,,,0,,,,,,,,,,,,,,,,,,,,,,,,,,,,left,0,130,30,160,0,2188.021932,2188.021932,2188.021932,None,None,1,1,0.4102171,,,,,,,,,,,,,,,,,,,10,6,1,2024-10-18_13h01.27.661,uWM_experiment,2022.2.3,59.98562745
,,,,,,,,,,,,,,,,,,,,4,0,4,0,,,,,0,0,0,0,,,,,,,,,,,,,,,,,,,,,,,,,,,,,,,,,,,,,,,,,,,,,,,,,,,,,,,,,,,,,,,,,,,,,,,,,,,,,,,,,,,,,,,,,,,,,,,,,,,,,,,,,,,,2188.455242,2188.455242,space,17.6407599,None,None,,,,,,,,,,,,,10,6,1,2024-10-18_13h01.27.661,uWM_experiment,2022.2.3,59.98562745
,,,,,,,,,,,,,,,,,,,,4,0,4,0,,,,,1,0,1,0,,,,,,,,,,,,,,,,,,,,,,,,,,,,,,,,,,,,,,,,,,,,,,,,,,,,,,,,,,,,,,,,,,,,,,,,,,,,,,,,,,,,,,,,,,,,,,,,,,,,,,,,,,,,,,,,,,,,,,,,,,,,,,10,6,1,2024-10-18_13h01.27.661,uWM_experiment,2022.2.3,59.98562745
,,,,,,,,,,,,,,,,,,,,4,0,4,0,,,,,2,0,2,0,,,,,,,,,,,,,,,,,,,,,,,,,,,,,,,,,,,,,,,,,,,,,,,,,,,,,,,,,,,,,,,,,,,,,,,,,,,,,,,,,,,,,,,,,,,,,,,,,,,,,,,,,,,,,,,,,,,,,,,,,,,,,,10,6,1,2024-10-18_13h01.27.661,uWM_experiment,2022.2.3,59.98562745
,,,,,,,,,,,,,,,,,,,,5,0,5,0,0,0,0,0,,,,,,,,,,,,,,,,,,,,,,,,,,,,,,,,,,,,,,,,,,,,,,,,,,,,,,,,,,,,,,,,,,,,,,0.025,,,,,,,,,,,,,,,,,,,,2206.122637,2206.822659,2207.12267,2207.822691,2208.12271,2208.822741,2208.822741,2209.139427,left,0,130,30,160,1,2213.739614,2213.739614,2213.739614,None,None,2,0,0.8842739,,,,,,,None,,,,,,,,,,,,10,6,1,2024-10-18_13h01.27.661,uWM_experiment,2022.2.3,59.98562745
,,,,,,,,,,,,,,,,,,,,5,0,5,0,1,0,1,0,,,,,,,,,,,,,,,,,,,,,,,,,,,,,,,,,,,,,,,,,,,,,,,,,,,,,,,,,,,,,,,,,,,,,,0.015,,,,,,,,,,,,,,,,,,,,,,,,,,,,left,1,160,-30,130,1,2220.489876,2220.489876,2220.489876,None,None,3,0,0.5180039,,,,,,,,,,,,,,,,,,,10,6,1,2024-10-18_13h01.27.661,uWM_experiment,2022.2.3,59.98562745
,,,,,,,,,,,,,,,,,,,,5,0,5,0,2,0,2,0,,,,,,,,,,,,,,,,,,,,,,,,,,,,,,,,,,,,,,,,,,,,,,,,,,,,,,,,,,,,,,,,,,,,,,0.005,,,,,,,,,,,,,,,,,,,,,,,,,,,,left,0,70,30,100,1,2226.890139,2226.890139,2226.890139,None,None,3,0,0.3658402,,,,,,,,,,,,,,,,,,,10,6,1,2024-10-18_13h01.27.661,uWM_experiment,2022.2.3,59.98562745
,,,,,,,,,,,,,,,,,,,,5,0,5,0,3,0,3,0,,,,,,,,,,,,,,,,,,,,,,,,,,,,,,,,,,,,,,,,,,,,,,,,,,,,,,,,,,,,,,,,,,,,,,0.005,,,,,,,,,,,,,,,,,,,,,,,,,,,,left,1,10,-30,-20,1,2233.323723,2233.323723,2233.323723,None,None,3,0,0.3560971,,,,,,,,,,,,,,,,,,,10,6,1,2024-10-18_13h01.27.661,uWM_experiment,2022.2.3,59.98562745
,,,,,,,,,,,,,,,,,,,,5,0,5,0,4,0,4,0,,,,,,,,,,,,,,,,,,,,,,,,,,,,,,,,,,,,,,,,,,,,,,,,,,,,,,,,,,,,,,,,,,,,,,0.005,,,,,,,,,,,,,,,,,,,,,,,,,,,,right,1,40,30,70,1,2239.440659,2239.440659,2239.440659,None,None,1,1,0.3272157,,,,,,,,,,,,,,,,,,,10,6,1,2024-10-18_13h01.27.661,uWM_experiment,2022.2.3,59.98562745
,,,,,,,,,,,,,,,,,,,,5,0,5,0,5,0,5,0,,,,,,,,,,,,,,,,,,,,,,,,,,,,,,,,,,,,,,,,,,,,,,,,,,,,,,,,,,,,,,,,,,,,,,0.015,,,,,,,,,,,,,,,,,,,,,,,,,,,,right,1,40,30,70,1,2245.557579,2245.557579,2245.557579,None,None,2,0,0.3541721,,,,,,,,,,,,,,,,,,,10,6,1,2024-10-18_13h01.27.661,uWM_experiment,2022.2.3,59.98562745
,,,,,,,,,,,,,,,,,,,,5,0,5,0,6,0,6,0,,,,,,,,,,,,,,,,,,,,,,,,,,,,,,,,,,,,,,,,,,,,,,,,,,,,,,,,,,,,,,,,,,,,,,0.005,,,,,,,,,,,,,,,,,,,,,,,,,,,,left,0,100,30,130,1,2251.391194,2251.391194,2251.391194,None,None,1,1,0.2724921,,,,,,,,,,,,,,,,,,,10,6,1,2024-10-18_13h01.27.661,uWM_experiment,2022.2.3,59.98562745
,,,,,,,,,,,,,,,,,,,,5,0,5,0,7,0,7,0,,,,,,,,,,,,,,,,,,,,,,,,,,,,,,,,,,,,,,,,,,,,,,,,,,,,,,,,,,,,,,,,,,,,,,0.015,,,,,,,,,,,,,,,,,,,,,,,,,,,,right,0,70,-30,40,1,2258.091376,2258.091376,2258.091376,None,None,2,0,0.3723528,,,,,,,,,,,,,,,,,,,10,6,1,2024-10-18_13h01.27.661,uWM_experiment,2022.2.3,59.98562745
,,,,,,,,,,,,,,,,,,,,5,0,5,0,8,0,8,0,,,,,,,,,,,,,,,,,,,,,,,,,,,,,,,,,,,,,,,,,,,,,,,,,,,,,,,,,,,,,,,,,,,,,,0.005,,,,,,,,,,,,,,,,,,,,,,,,,,,,right,1,10,30,40,1,2265.575045,2265.575045,2265.575045,None,None,2,0,0.3126999,,,,,,,,,,,,,,,,,,,10,6,1,2024-10-18_13h01.27.661,uWM_experiment,2022.2.3,59.98562745
,,,,,,,,,,,,,,,,,,,,5,0,5,0,9,0,9,0,,,,,,,,,,,,,,,,,,,,,,,,,,,,,,,,,,,,,,,,,,,,,,,,,,,,,,,,,,,,,,,,,,,,,,0.005,,,,,,,,,,,,,,,,,,,,,,,,,,,,right,0,70,-30,40,1,2272.225286,2272.225286,2272.225286,None,None,2,0,0.1983162,,,,,,,,,,,,,,,,,,,10,6,1,2024-10-18_13h01.27.661,uWM_experiment,2022.2.3,59.98562745
,,,,,,,,,,,,,,,,,,,,5,0,5,0,10,0,10,0,,,,,,,,,,,,,,,,,,,,,,,,,,,,,,,,,,,,,,,,,,,,,,,,,,,,,,,,,,,,,,,,,,,,,,0,,,,,,,,,,,,,,,,,,,,,,,,,,,,right,0,100,-30,70,0,2278.825556,2278.825556,2278.825556,None,None,3,0,0.3020363,,,,,,,,,,,,,,,,,,,10,6,1,2024-10-18_13h01.27.661,uWM_experiment,2022.2.3,59.98562745
,,,,,,,,,,,,,,,,,,,,5,0,5,0,11,0,11,0,,,,,,,,,,,,,,,,,,,,,,,,,,,,,,,,,,,,,,,,,,,,,,,,,,,,,,,,,,,,,,,,,,,,,,0.005,,,,,,,,,,,,,,,,,,,,,,,,,,,,left,1,130,-30,100,1,2284.675797,2284.675797,2284.675797,None,None,1,1,0.3398204,,,,,,,,,,,,,,,,,,,10,6,1,2024-10-18_13h01.27.661,uWM_experiment,2022.2.3,59.98562745
,,,,,,,,,,,,,,,,,,,,5,0,5,0,12,0,12,0,,,,,,,,,,,,,,,,,,,,,,,,,,,,,,,,,,,,,,,,,,,,,,,,,,,,,,,,,,,,,,,,,,,,,,0.015,,,,,,,,,,,,,,,,,,,,,,,,,,,,left,0,40,30,70,1,2292.792815,2292.792815,2292.792815,None,None,1,1,0.3587934,,,,,,,,,,,,,,,,,,,10,6,1,2024-10-18_13h01.27.661,uWM_experiment,2022.2.3,59.98562745
,,,,,,,,,,,,,,,,,,,,5,0,5,0,13,0,13,0,,,,,,,,,,,,,,,,,,,,,,,,,,,,,,,,,,,,,,,,,,,,,,,,,,,,,,,,,,,,,,,,,,,,,,0.025,,,,,,,,,,,,,,,,,,,,,,,,,,,,left,1,10,-30,-20,1,2298.743041,2298.743041,2298.743041,None,None,1,1,0.4006405,,,,,,,,,,,,,,,,,,,10,6,1,2024-10-18_13h01.27.661,uWM_experiment,2022.2.3,59.98562745
,,,,,,,,,,,,,,,,,,,,5,0,5,0,14,0,14,0,,,,,,,,,,,,,,,,,,,,,,,,,,,,,,,,,,,,,,,,,,,,,,,,,,,,,,,,,,,,,,,,,,,,,,0.035,,,,,,,,,,,,,,,,,,,,,,,,,,,,right,1,40,30,70,1,2305.593309,2305.593309,2305.593309,None,None,3,0,0.2541813,,,,,,,,,,,,,,,,,,,10,6,1,2024-10-18_13h01.27.661,uWM_experiment,2022.2.3,59.98562745
,,,,,,,,,,,,,,,,,,,,5,0,5,0,15,0,15,0,,,,,,,,,,,,,,,,,,,,,,,,,,,,,,,,,,,,,,,,,,,,,,,,,,,,,,,,,,,,,,,,,,,,,,0,,,,,,,,,,,,,,,,,,,,,,,,,,,,left,1,160,-30,130,0,2311.476898,2311.476898,2311.476898,None,None,2,0,0.2987305,,,,,,,,,,,,,,,,,,,10,6,1,2024-10-18_13h01.27.661,uWM_experiment,2022.2.3,59.98562745
,,,,,,,,,,,,,,,,,,,,5,0,5,0,16,0,16,0,,,,,,,,,,,,,,,,,,,,,,,,,,,,,,,,,,,,,,,,,,,,,,,,,,,,,,,,,,,,,,,,,,,,,,0.025,,,,,,,,,,,,,,,,,,,,,,,,,,,,left,0,70,30,100,1,2317.960494,2317.960494,2317.960494,None,None,2,0,0.286931,,,,,,,,,,,,,,,,,,,10,6,1,2024-10-18_13h01.27.661,uWM_experiment,2022.2.3,59.98562745
,,,,,,,,,,,,,,,,,,,,5,0,5,0,17,0,17,0,,,,,,,,,,,,,,,,,,,,,,,,,,,,,,,,,,,,,,,,,,,,,,,,,,,,,,,,,,,,,,,,,,,,,,0.015,,,,,,,,,,,,,,,,,,,,,,,,,,,,left,1,130,-30,100,1,2324.610739,2324.610739,2324.610739,None,None,2,0,0.196815,,,,,,,,,,,,,,,,,,,10,6,1,2024-10-18_13h01.27.661,uWM_experiment,2022.2.3,59.98562745
,,,,,,,,,,,,,,,,,,,,5,0,5,0,18,0,18,0,,,,,,,,,,,,,,,,,,,,,,,,,,,,,,,,,,,,,,,,,,,,,,,,,,,,,,,,,,,,,,,,,,,,,,0.005,,,,,,,,,,,,,,,,,,,,,,,,,,,,right,1,130,30,160,1,2330.794324,2330.794324,2330.794324,None,None,2,0,0.773093,,,,,,,,,,,,,,,,,,,10,6,1,2024-10-18_13h01.27.661,uWM_experiment,2022.2.3,59.98562745
,,,,,,,,,,,,,,,,,,,,5,0,5,0,19,0,19,0,,,,,,,,,,,,,,,,,,,,,,,,,,,,,,,,,,,,,,,,,,,,,,,,,,,,,,,,,,,,,,,,,,,,,,0.005,,,,,,,,,,,,,,,,,,,,,,,,,,,,right,0,10,-30,-20,1,2337.827926,2337.827926,2337.827926,None,None,1,1,0.3075106,,,,,,,,,,,,,,,,,,,10,6,1,2024-10-18_13h01.27.661,uWM_experiment,2022.2.3,59.98562745
,,,,,,,,,,,,,,,,,,,,5,0,5,0,20,0,20,0,,,,,,,,,,,,,,,,,,,,,,,,,,,,,,,,,,,,,,,,,,,,,,,,,,,,,,,,,,,,,,,,,,,,,,0.015,,,,,,,,,,,,,,,,,,,,,,,,,,,,right,1,40,30,70,1,2343.761514,2343.761514,2343.761514,None,None,2,0,0.2697806,,,,,,,,,,,,,,,,,,,10,6,1,2024-10-18_13h01.27.661,uWM_experiment,2022.2.3,59.98562745
,,,,,,,,,,,,,,,,,,,,5,0,5,0,21,0,21,0,,,,,,,,,,,,,,,,,,,,,,,,,,,,,,,,,,,,,,,,,,,,,,,,,,,,,,,,,,,,,,,,,,,,,,0.005,,,,,,,,,,,,,,,,,,,,,,,,,,,,left,0,130,30,160,1,2349.845107,2349.845107,2349.845107,None,None,1,1,0.6422582,,,,,,,,,,,,,,,,,,,10,6,1,2024-10-18_13h01.27.661,uWM_experiment,2022.2.3,59.98562745
,,,,,,,,,,,,,,,,,,,,5,0,5,0,22,0,22,0,,,,,,,,,,,,,,,,,,,,,,,,,,,,,,,,,,,,,,,,,,,,,,,,,,,,,,,,,,,,,,,,,,,,,,0.015,,,,,,,,,,,,,,,,,,,,,,,,,,,,left,0,10,30,40,1,2355.945325,2355.945325,2355.945325,None,None,1,1,0.253937,,,,,,,,,,,,,,,,,,,10,6,1,2024-10-18_13h01.27.661,uWM_experiment,2022.2.3,59.98562745
,,,,,,,,,,,,,,,,,,,,5,0,5,0,23,0,23,0,,,,,,,,,,,,,,,,,,,,,,,,,,,,,,,,,,,,,,,,,,,,,,,,,,,,,,,,,,,,,,,,,,,,,,0.1,,,,,,,,,,,,,,,,,,,,,,,,,,,,left,1,40,-30,10,2,2362.012264,2362.012264,2362.012264,None,None,4,0,0.9231075,,,,,,,,,,,,,,,,,,,10,6,1,2024-10-18_13h01.27.661,uWM_experiment,2022.2.3,59.98562745
,,,,,,,,,,,,,,,,,,,,5,0,5,0,,,,,0,0,0,0,,,,,,,,,,,,,,,,,,,,,,,,,,,,,,,,,,,,,,,,,,,,,,,,,,,,,,,,,,,,,,,,,,,,,,,,,,,,,,,,,,,,,,,,,,,,,,,,,,,,,,,,,,,,2362.962266,2362.962266,space,3.0130961,space,None,,2365.995731,2365.995731,1.3795919,,,,,,,,,10,6,1,2024-10-18_13h01.27.661,uWM_experiment,2022.2.3,59.98562745
,,,,,,,,,,,,,,,,,,,,5,0,5,0,,,,,1,0,1,0,,,,,,,,,,,,,,,,,,,,,,,,,,,,,,,,,,,,,,,,,,,,,,,,,,,,,,,,,,,,,,,,,,,,,,,,,,,,,,,,,,,,,,,,,,,,,,,,,,,,,,,,,,,,,,,,,,,,,,,,,,,,,,10,6,1,2024-10-18_13h01.27.661,uWM_experiment,2022.2.3,59.98562745
,,,,,,,,,,,,,,,,,,,,5,0,5,0,,,,,2,0,2,0,,,,,,,,,,,,,,,,,,,,,,,,,,,,,,,,,,,,,,,,,,,,,,,,,,,,,,,,,,,,,,,,,,,,,,,,,,,,,,,,,,,,,,,,,,,,,,,,,,,,,,,,,,,,,,,,,,,,,,,,,,,,,,10,6,1,2024-10-18_13h01.27.661,uWM_experiment,2022.2.3,59.98562745
,,,,,,,,,,,,,,,,,,,,6,0,6,0,0,0,0,0,,,,,,,,,,,,,,,,,,,,,,,,,,,,,,,,,,,,,,,,,,,,,,,,,,,,,,,,,,,,,,,,,,,,,,0.025,,,,,,,,,,,,,,,,,,,,2367.395787,2368.095819,2368.395828,2369.095892,2369.395868,2370.095895,2370.095895,2370.412578,left,1,40,-30,10,1,2374.962771,2374.962771,2374.962771,None,None,2,0,0.356428,,,,,,,None,,,,,,,,,,,,10,6,1,2024-10-18_13h01.27.661,uWM_experiment,2022.2.3,59.98562745
,,,,,,,,,,,,,,,,,,,,6,0,6,0,1,0,1,0,,,,,,,,,,,,,,,,,,,,,,,,,,,,,,,,,,,,,,,,,,,,,,,,,,,,,,,,,,,,,,,,,,,,,,0.015,,,,,,,,,,,,,,,,,,,,,,,,,,,,left,1,40,-30,10,1,2380.829686,2380.829686,2380.829686,None,None,2,0,0.4654589,,,,,,,,,,,,,,,,,,,10,6,1,2024-10-18_13h01.27.661,uWM_experiment,2022.2.3,59.98562745
,,,,,,,,,,,,,,,,,,,,6,0,6,0,2,0,2,0,,,,,,,,,,,,,,,,,,,,,,,,,,,,,,,,,,,,,,,,,,,,,,,,,,,,,,,,,,,,,,,,,,,,,,0.005,,,,,,,,,,,,,,,,,,,,,,,,,,,,left,0,100,30,130,1,2386.846557,2386.846557,2386.846557,None,None,1,1,0.3286951,,,,,,,,,,,,,,,,,,,10,6,1,2024-10-18_13h01.27.661,uWM_experiment,2022.2.3,59.98562745
,,,,,,,,,,,,,,,,,,,,6,0,6,0,3,0,3,0,,,,,,,,,,,,,,,,,,,,,,,,,,,,,,,,,,,,,,,,,,,,,,,,,,,,,,,,,,,,,,,,,,,,,,0.015,,,,,,,,,,,,,,,,,,,,,,,,,,,,right,0,100,-30,70,1,2393.413527,2393.413527,2393.413527,None,None,1,1,0.5375442,,,,,,,,,,,,,,,,,,,10,6,1,2024-10-18_13h01.27.661,uWM_experiment,2022.2.3,59.98562745
,,,,,,,,,,,,,,,,,,,,6,0,6,0,4,0,4,0,,,,,,,,,,,,,,,,,,,,,,,,,,,,,,,,,,,,,,,,,,,,,,,,,,,,,,,,,,,,,,,,,,,,,,0.025,,,,,,,,,,,,,,,,,,,,,,,,,,,,left,0,100,30,130,1,2399.447103,2399.447103,2399.447103,None,None,2,0,0.5839436,,,,,,,,,,,,,,,,,,,10,6,1,2024-10-18_13h01.27.661,uWM_experiment,2022.2.3,59.98562745
,,,,,,,,,,,,,,,,,,,,6,0,6,0,5,0,5,0,,,,,,,,,,,,,,,,,,,,,,,,,,,,,,,,,,,,,,,,,,,,,,,,,,,,,,,,,,,,,,,,,,,,,,0.015,,,,,,,,,,,,,,,,,,,,,,,,,,,,left,1,10,-30,-20,1,2405.697355,2405.697355,2405.697355,None,None,2,0,0.9897544,,,,,,,,,,,,,,,,,,,10,6,1,2024-10-18_13h01.27.661,uWM_experiment,2022.2.3,59.98562745
,,,,,,,,,,,,,,,,,,,,6,0,6,0,6,0,6,0,,,,,,,,,,,,,,,,,,,,,,,,,,,,,,,,,,,,,,,,,,,,,,,,,,,,,,,,,,,,,,,,,,,,,,0.005,,,,,,,,,,,,,,,,,,,,,,,,,,,,right,1,40,30,70,1,2413.130964,2413.130964,2413.130964,None,None,2,0,0.3720235,,,,,,,,,,,,,,,,,,,10,6,1,2024-10-18_13h01.27.661,uWM_experiment,2022.2.3,59.98562745
,,,,,,,,,,,,,,,,,,,,6,0,6,0,7,0,7,0,,,,,,,,,,,,,,,,,,,,,,,,,,,,,,,,,,,,,,,,,,,,,,,,,,,,,,,,,,,,,,,,,,,,,,0.005,,,,,,,,,,,,,,,,,,,,,,,,,,,,left,1,130,-30,100,1,2419.28121,2419.28121,2419.28121,None,None,3,0,0.6138994,,,,,,,,,,,,,,,,,,,10,6,1,2024-10-18_13h01.27.661,uWM_experiment,2022.2.3,59.98562745
,,,,,,,,,,,,,,,,,,,,6,0,6,0,8,0,8,0,,,,,,,,,,,,,,,,,,,,,,,,,,,,,,,,,,,,,,,,,,,,,,,,,,,,,,,,,,,,,,,,,,,,,,0.1,,,,,,,,,,,,,,,,,,,,,,,,,,,,right,1,130,30,160,2,2426.148162,2426.148162,2426.148162,None,None,4,0,0.4187768,,,,,,,,,,,,,,,,,,,10,6,1,2024-10-18_13h01.27.661,uWM_experiment,2022.2.3,59.98562745
,,,,,,,,,,,,,,,,,,,,6,0,6,0,9,0,9,0,,,,,,,,,,,,,,,,,,,,,,,,,,,,,,,,,,,,,,,,,,,,,,,,,,,,,,,,,,,,,,,,,,,,,,0.005,,,,,,,,,,,,,,,,,,,,,,,,,,,,left,0,10,30,40,1,2433.031802,2433.031802,2433.031802,None,None,3,0,0.4550925,,,,,,,,,,,,,,,,,,,10,6,1,2024-10-18_13h01.27.661,uWM_experiment,2022.2.3,59.98562745
,,,,,,,,,,,,,,,,,,,,6,0,6,0,10,0,10,0,,,,,,,,,,,,,,,,,,,,,,,,,,,,,,,,,,,,,,,,,,,,,,,,,,,,,,,,,,,,,,,,,,,,,,0,,,,,,,,,,,,,,,,,,,,,,,,,,,,left,0,160,30,190,0,2439.548719,2439.548719,2439.548719,None,None,1,1,0.3861291,,,,,,,,,,,,,,,,,,,10,6,1,2024-10-18_13h01.27.661,uWM_experiment,2022.2.3,59.98562745
,,,,,,,,,,,,,,,,,,,,6,0,6,0,11,0,11,0,,,,,,,,,,,,,,,,,,,,,,,,,,,,,,,,,,,,,,,,,,,,,,,,,,,,,,,,,,,,,,,,,,,,,,0,,,,,,,,,,,,,,,,,,,,,,,,,,,,right,1,40,30,70,0,2445.998976,2445.998976,2445.998976,None,None,2,0,0.7759054,,,,,,,,,,,,,,,,,,,10,6,1,2024-10-18_13h01.27.661,uWM_experiment,2022.2.3,59.98562745
,,,,,,,,,,,,,,,,,,,,6,0,6,0,12,0,12,0,,,,,,,,,,,,,,,,,,,,,,,,,,,,,,,,,,,,,,,,,,,,,,,,,,,,,,,,,,,,,,,,,,,,,,0.005,,,,,,,,,,,,,,,,,,,,,,,,,,,,right,0,100,-30,70,1,2452.499196,2452.499196,2452.499196,None,None,3,0,0.4596805,,,,,,,,,,,,,,,,,,,10,6,1,2024-10-18_13h01.27.661,uWM_experiment,2022.2.3,59.98562745
,,,,,,,,,,,,,,,,,,,,6,0,6,0,13,0,13,0,,,,,,,,,,,,,,,,,,,,,,,,,,,,,,,,,,,,,,,,,,,,,,,,,,,,,,,,,,,,,,,,,,,,,,0.005,,,,,,,,,,,,,,,,,,,,,,,,,,,,left,0,70,30,100,1,2458.432778,2458.432778,2458.432778,None,None,2,0,0.9421173,,,,,,,,,,,,,,,,,,,10,6,1,2024-10-18_13h01.27.661,uWM_experiment,2022.2.3,59.98562745
,,,,,,,,,,,,,,,,,,,,6,0,6,0,14,0,14,0,,,,,,,,,,,,,,,,,,,,,,,,,,,,,,,,,,,,,,,,,,,,,,,,,,,,,,,,,,,,,,,,,,,,,,0,,,,,,,,,,,,,,,,,,,,,,,,,,,,left,1,40,-30,10,0,2464.849731,2464.849731,2464.849731,None,None,3,0,1.2131886,,,,,,,,,,,,,,,,,,,10,6,1,2024-10-18_13h01.27.661,uWM_experiment,2022.2.3,59.98562745
,,,,,,,,,,,,,,,,,,,,6,0,6,0,15,0,15,0,,,,,,,,,,,,,,,,,,,,,,,,,,,,,,,,,,,,,,,,,,,,,,,,,,,,,,,,,,,,,,,,,,,,,,0.005,,,,,,,,,,,,,,,,,,,,,,,,,,,,right,1,40,30,70,1,2472.933351,2472.933351,2472.933351,None,None,2,0,0.2814628,,,,,,,,,,,,,,,,,,,10,6,1,2024-10-18_13h01.27.661,uWM_experiment,2022.2.3,59.98562745
,,,,,,,,,,,,,,,,,,,,6,0,6,0,16,0,16,0,,,,,,,,,,,,,,,,,,,,,,,,,,,,,,,,,,,,,,,,,,,,,,,,,,,,,,,,,,,,,,,,,,,,,,0.005,,,,,,,,,,,,,,,,,,,,,,,,,,,,right,1,10,30,40,1,2478.783619,2478.783619,2478.783619,None,None,2,0,0.4952234,,,,,,,,,,,,,,,,,,,10,6,1,2024-10-18_13h01.27.661,uWM_experiment,2022.2.3,59.98562745
,,,,,,,,,,,,,,,,,,,,6,0,6,0,17,0,17,0,,,,,,,,,,,,,,,,,,,,,,,,,,,,,,,,,,,,,,,,,,,,,,,,,,,,,,,,,,,,,,,,,,,,,,0.005,,,,,,,,,,,,,,,,,,,,,,,,,,,,left,1,130,-30,100,1,2484.883853,2484.883853,2484.883853,None,None,2,0,0.5868097,,,,,,,,,,,,,,,,,,,10,6,1,2024-10-18_13h01.27.661,uWM_experiment,2022.2.3,59.98562745
,,,,,,,,,,,,,,,,,,,,6,0,6,0,18,0,18,0,,,,,,,,,,,,,,,,,,,,,,,,,,,,,,,,,,,,,,,,,,,,,,,,,,,,,,,,,,,,,,,,,,,,,,0.005,,,,,,,,,,,,,,,,,,,,,,,,,,,,left,0,100,30,130,1,2491.684138,2491.684138,2491.684138,None,None,2,0,0.3384733,,,,,,,,,,,,,,,,,,,10,6,1,2024-10-18_13h01.27.661,uWM_experiment,2022.2.3,59.98562745
,,,,,,,,,,,,,,,,,,,,6,0,6,0,19,0,19,0,,,,,,,,,,,,,,,,,,,,,,,,,,,,,,,,,,,,,,,,,,,,,,,,,,,,,,,,,,,,,,,,,,,,,,0.005,,,,,,,,,,,,,,,,,,,,,,,,,,,,left,1,130,-30,100,1,2497.60106,2497.60106,2497.60106,None,None,2,0,1.269531,,,,,,,,,,,,,,,,,,,10,6,1,2024-10-18_13h01.27.661,uWM_experiment,2022.2.3,59.98562745
,,,,,,,,,,,,,,,,,,,,6,0,6,0,20,0,20,0,,,,,,,,,,,,,,,,,,,,,,,,,,,,,,,,,,,,,,,,,,,,,,,,,,,,,,,,,,,,,,,,,,,,,,0,,,,,,,,,,,,,,,,,,,,,,,,,,,,left,0,10,30,40,0,2504.234606,2504.234606,2504.234606,None,None,2,0,0.6920405,,,,,,,,,,,,,,,,,,,10,6,1,2024-10-18_13h01.27.661,uWM_experiment,2022.2.3,59.98562745
,,,,,,,,,,,,,,,,,,,,6,0,6,0,21,0,21,0,,,,,,,,,,,,,,,,,,,,,,,,,,,,,,,,,,,,,,,,,,,,,,,,,,,,,,,,,,,,,,,,,,,,,,0,,,,,,,,,,,,,,,,,,,,,,,,,,,,left,0,70,30,100,0,2510.401534,2510.401534,2510.401534,None,None,2,0,0.2849951,,,,,,,,,,,,,,,,,,,10,6,1,2024-10-18_13h01.27.661,uWM_experiment,2022.2.3,59.98562745
,,,,,,,,,,,,,,,,,,,,6,0,6,0,22,0,22,0,,,,,,,,,,,,,,,,,,,,,,,,,,,,,,,,,,,,,,,,,,,,,,,,,,,,,,,,,,,,,,,,,,,,,,0.005,,,,,,,,,,,,,,,,,,,,,,,,,,,,right,1,160,30,190,1,2517.851829,2517.851829,2517.851829,None,None,2,0,0.4907886,,,,,,,,,,,,,,,,,,,10,6,1,2024-10-18_13h01.27.661,uWM_experiment,2022.2.3,59.98562745
,,,,,,,,,,,,,,,,,,,,6,0,6,0,23,0,23,0,,,,,,,,,,,,,,,,,,,,,,,,,,,,,,,,,,,,,,,,,,,,,,,,,,,,,,,,,,,,,,,,,,,,,,0.005,,,,,,,,,,,,,,,,,,,,,,,,,,,,right,0,70,-30,40,1,2524.068757,2524.068757,2524.068757,None,None,2,0,0.3697102,,,,,,,,,,,,,,,,,,,10,6,1,2024-10-18_13h01.27.661,uWM_experiment,2022.2.3,59.98562745
,,,,,,,,,,,,,,,,,,,,6,0,6,0,,,,,0,0,0,0,,,,,,,,,,,,,,,,,,,,,,,,,,,,,,,,,,,,,,,,,,,,,,,,,,,,,,,,,,,,,,,,,,,,,,,,,,,,,,,,,,,,,,,,,,,,,,,,,,,,,,,,,,,,2524.468763,2524.468763,space,2.7458462,None,space,,,,,2527.235533,2527.235533,0.6750405,,,,,,10,6,1,2024-10-18_13h01.27.661,uWM_experiment,2022.2.3,59.98562745
,,,,,,,,,,,,,,,,,,,,6,0,6,0,,,,,1,0,1,0,,,,,,,,,,,,,,,,,,,,,,,,,,,,,,,,,,,,,,,,,,,,,,,,,,,,,,,,,,,,,,,,,,,,,,,,,,,,,,,,,,,,,,,,,,,,,,,,,,,,,,,,,,,,,,,,,,,,,,,,,,,,,,10,6,1,2024-10-18_13h01.27.661,uWM_experiment,2022.2.3,59.98562745
,,,,,,,,,,,,,,,,,,,,6,0,6,0,,,,,2,0,2,0,,,,,,,,,,,,,,,,,,,,,,,,,,,,,,,,,,,,,,,,,,,,,,,,,,,,,,,,,,,,,,,,,,,,,,,,,,,,,,,,,,,,,,,,,,,,,,,,,,,,,,,,,,,,,,,,,,,,,,,,,,,,,,10,6,1,2024-10-18_13h01.27.661,uWM_experiment,2022.2.3,59.98562745
,,,,,,,,,,,,,,,,,,,,7,0,7,0,0,0,0,0,,,,,,,,,,,,,,,,,,,,,,,,,,,,,,,,,,,,,,,,,,,,,,,,,,,,,,,,,,,,,,,,,,,,,,0.005,,,,,,,,,,,,,,,,,,,,2558.636794,2559.336824,2559.620165,2560.320198,2560.620208,2561.320238,2561.320238,2561.636928,right,0,100,-30,70,1,2566.020421,2566.020421,2566.020421,None,None,1,1,0.626018,,,,,,,space,,,,,,,2549.569764,2549.569764,9.0446687,,,10,6,1,2024-10-18_13h01.27.661,uWM_experiment,2022.2.3,59.98562745
,,,,,,,,,,,,,,,,,,,,7,0,7,0,1,0,1,0,,,,,,,,,,,,,,,,,,,,,,,,,,,,,,,,,,,,,,,,,,,,,,,,,,,,,,,,,,,,,,,,,,,,,,0.015,,,,,,,,,,,,,,,,,,,,,,,,,,,,right,0,70,-30,40,1,2572.604052,2572.604052,2572.604052,None,None,1,1,0.5222891,,,,,,,,,,,,,,,,,,,10,6,1,2024-10-18_13h01.27.661,uWM_experiment,2022.2.3,59.98562745
,,,,,,,,,,,,,,,,,,,,7,0,7,0,2,0,2,0,,,,,,,,,,,,,,,,,,,,,,,,,,,,,,,,,,,,,,,,,,,,,,,,,,,,,,,,,,,,,,,,,,,,,,0.025,,,,,,,,,,,,,,,,,,,,,,,,,,,,left,0,70,30,100,1,2578.954272,2578.954272,2578.954272,None,None,2,0,0.2280614,,,,,,,,,,,,,,,,,,,10,6,1,2024-10-18_13h01.27.661,uWM_experiment,2022.2.3,59.98562745
,,,,,,,,,,,,,,,,,,,,7,0,7,0,3,0,3,0,,,,,,,,,,,,,,,,,,,,,,,,,,,,,,,,,,,,,,,,,,,,,,,,,,,,,,,,,,,,,,,,,,,,,,0,,,,,,,,,,,,,,,,,,,,,,,,,,,,right,0,70,-30,40,0,2584.921205,2584.921205,2584.921205,None,None,1,1,0.3730487,,,,,,,,,,,,,,,,,,,10,6,1,2024-10-18_13h01.27.661,uWM_experiment,2022.2.3,59.98562745
,,,,,,,,,,,,,,,,,,,,7,0,7,0,4,0,4,0,,,,,,,,,,,,,,,,,,,,,,,,,,,,,,,,,,,,,,,,,,,,,,,,,,,,,,,,,,,,,,,,,,,,,,0.015,,,,,,,,,,,,,,,,,,,,,,,,,,,,right,1,100,30,130,1,2590.988138,2590.988138,2590.988138,None,None,2,0,1.082103,,,,,,,,,,,,,,,,,,,10,6,1,2024-10-18_13h01.27.661,uWM_experiment,2022.2.3,59.98562745
,,,,,,,,,,,,,,,,,,,,7,0,7,0,5,0,5,0,,,,,,,,,,,,,,,,,,,,,,,,,,,,,,,,,,,,,,,,,,,,,,,,,,,,,,,,,,,,,,,,,,,,,,0.005,,,,,,,,,,,,,,,,,,,,,,,,,,,,left,1,160,-30,130,1,2598.105043,2598.105043,2598.105043,None,None,1,1,0.3971781,,,,,,,,,,,,,,,,,,,10,6,1,2024-10-18_13h01.27.661,uWM_experiment,2022.2.3,59.98562745
,,,,,,,,,,,,,,,,,,,,7,0,7,0,6,0,6,0,,,,,,,,,,,,,,,,,,,,,,,,,,,,,,,,,,,,,,,,,,,,,,,,,,,,,,,,,,,,,,,,,,,,,,0.015,,,,,,,,,,,,,,,,,,,,,,,,,,,,right,0,100,-30,70,1,2604.838671,2604.838671,2604.838671,None,None,1,1,0.4554601,,,,,,,,,,,,,,,,,,,10,6,1,2024-10-18_13h01.27.661,uWM_experiment,2022.2.3,59.98562745
,,,,,,,,,,,,,,,,,,,,7,0,7,0,7,0,7,0,,,,,,,,,,,,,,,,,,,,,,,,,,,,,,,,,,,,,,,,,,,,,,,,,,,,,,,,,,,,,,,,,,,,,,0.025,,,,,,,,,,,,,,,,,,,,,,,,,,,,left,0,160,30,190,1,2610.555549,2610.555549,2610.555549,None,None,1,1,0.3225632,,,,,,,,,,,,,,,,,,,10,6,1,2024-10-18_13h01.27.661,uWM_experiment,2022.2.3,59.98562745
,,,,,,,,,,,,,,,,,,,,7,0,7,0,8,0,8,0,,,,,,,,,,,,,,,,,,,,,,,,,,,,,,,,,,,,,,,,,,,,,,,,,,,,,,,,,,,,,,,,,,,,,,0.035,,,,,,,,,,,,,,,,,,,,,,,,,,,,left,1,130,-30,100,1,2616.405797,2616.405797,2616.405797,None,None,1,1,0.4964155,,,,,,,,,,,,,,,,,,,10,6,1,2024-10-18_13h01.27.661,uWM_experiment,2022.2.3,59.98562745
,,,,,,,,,,,,,,,,,,,,7,0,7,0,9,0,9,0,,,,,,,,,,,,,,,,,,,,,,,,,,,,,,,,,,,,,,,,,,,,,,,,,,,,,,,,,,,,,,,,,,,,,,0.045,,,,,,,,,,,,,,,,,,,,,,,,,,,,right,0,100,-30,70,1,2622.372692,2622.372692,2622.372692,None,None,2,0,0.8013734,,,,,,,,,,,,,,,,,,,10,6,1,2024-10-18_13h01.27.661,uWM_experiment,2022.2.3,59.98562745
,,,,,,,,,,,,,,,,,,,,7,0,7,0,10,0,10,0,,,,,,,,,,,,,,,,,,,,,,,,,,,,,,,,,,,,,,,,,,,,,,,,,,,,,,,,,,,,,,,,,,,,,,0.035,,,,,,,,,,,,,,,,,,,,,,,,,,,,left,1,10,-30,-20,1,2628.756271,2628.756271,2628.756271,None,None,1,1,0.2418802,,,,,,,,,,,,,,,,,,,10,6,1,2024-10-18_13h01.27.661,uWM_experiment,2022.2.3,59.98562745
,,,,,,,,,,,,,,,,,,,,7,0,7,0,11,0,11,0,,,,,,,,,,,,,,,,,,,,,,,,,,,,,,,,,,,,,,,,,,,,,,,,,,,,,,,,,,,,,,,,,,,,,,0,,,,,,,,,,,,,,,,,,,,,,,,,,,,left,1,130,-30,100,0,2635.906547,2635.906547,2635.906547,None,None,1,1,0.4837246,,,,,,,,,,,,,,,,,,,10,6,1,2024-10-18_13h01.27.661,uWM_experiment,2022.2.3,59.98562745
,,,,,,,,,,,,,,,,,,,,7,0,7,0,12,0,12,0,,,,,,,,,,,,,,,,,,,,,,,,,,,,,,,,,,,,,,,,,,,,,,,,,,,,,,,,,,,,,,,,,,,,,,0.1,,,,,,,,,,,,,,,,,,,,,,,,,,,,left,1,10,-30,-20,2,2643.623558,2643.623558,2643.623558,None,None,4,0,0.6704009,,,,,,,,,,,,,,,,,,,10,6,1,2024-10-18_13h01.27.661,uWM_experiment,2022.2.3,59.98562745
,,,,,,,,,,,,,,,,,,,,7,0,7,0,13,0,13,0,,,,,,,,,,,,,,,,,,,,,,,,,,,,,,,,,,,,,,,,,,,,,,,,,,,,,,,,,,,,,,,,,,,,,,0.045,,,,,,,,,,,,,,,,,,,,,,,,,,,,right,0,100,-30,70,1,2652.773901,2652.773901,2652.773901,None,None,2,0,0.3519879,,,,,,,,,,,,,,,,,,,10,6,1,2024-10-18_13h01.27.661,uWM_experiment,2022.2.3,59.98562745
,,,,,,,,,,,,,,,,,,,,7,0,7,0,14,0,14,0,,,,,,,,,,,,,,,,,,,,,,,,,,,,,,,,,,,,,,,,,,,,,,,,,,,,,,,,,,,,,,,,,,,,,,0.035,,,,,,,,,,,,,,,,,,,,,,,,,,,,right,0,40,-30,10,1,2660.690905,2660.690905,2660.690905,None,None,3,0,0.3069946,,,,,,,,,,,,,,,,,,,10,6,1,2024-10-18_13h01.27.661,uWM_experiment,2022.2.3,59.98562745
,,,,,,,,,,,,,,,,,,,,7,0,7,0,15,0,15,0,,,,,,,,,,,,,,,,,,,,,,,,,,,,,,,,,,,,,,,,,,,,,,,,,,,,,,,,,,,,,,,,,,,,,,0.025,,,,,,,,,,,,,,,,,,,,,,,,,,,,left,0,130,30,160,1,2666.691127,2666.691127,2666.691127,None,None,1,1,0.4108765,,,,,,,,,,,,,,,,,,,10,6,1,2024-10-18_13h01.27.661,uWM_experiment,2022.2.3,59.98562745
,,,,,,,,,,,,,,,,,,,,7,0,7,0,16,0,16,0,,,,,,,,,,,,,,,,,,,,,,,,,,,,,,,,,,,,,,,,,,,,,,,,,,,,,,,,,,,,,,,,,,,,,,0.035,,,,,,,,,,,,,,,,,,,,,,,,,,,,left,0,130,30,160,1,2672.674722,2672.674722,2672.674722,None,None,1,1,0.4432336,,,,,,,,,,,,,,,,,,,10,6,1,2024-10-18_13h01.27.661,uWM_experiment,2022.2.3,59.98562745
,,,,,,,,,,,,,,,,,,,,7,0,7,0,17,0,17,0,,,,,,,,,,,,,,,,,,,,,,,,,,,,,,,,,,,,,,,,,,,,,,,,,,,,,,,,,,,,,,,,,,,,,,0.1,,,,,,,,,,,,,,,,,,,,,,,,,,,,left,1,160,-30,130,2,2679.45832,2679.45832,2679.45832,None,None,4,0,0.4515352,,,,,,,,,,,,,,,,,,,10,6,1,2024-10-18_13h01.27.661,uWM_experiment,2022.2.3,59.98562745
,,,,,,,,,,,,,,,,,,,,7,0,7,0,18,0,18,0,,,,,,,,,,,,,,,,,,,,,,,,,,,,,,,,,,,,,,,,,,,,,,,,,,,,,,,,,,,,,,,,,,,,,,0.045,,,,,,,,,,,,,,,,,,,,,,,,,,,,right,0,40,-30,10,1,2685.475227,2685.475227,2685.475227,None,None,1,1,0.6345487,,,,,,,,,,,,,,,,,,,10,6,1,2024-10-18_13h01.27.661,uWM_experiment,2022.2.3,59.98562745
,,,,,,,,,,,,,,,,,,,,7,0,7,0,19,0,19,0,,,,,,,,,,,,,,,,,,,,,,,,,,,,,,,,,,,,,,,,,,,,,,,,,,,,,,,,,,,,,,,,,,,,,,0.055,,,,,,,,,,,,,,,,,,,,,,,,,,,,left,1,130,-30,100,1,2691.808817,2691.808817,2691.808817,None,None,1,1,0.8291664,,,,,,,,,,,,,,,,,,,10,6,1,2024-10-18_13h01.27.661,uWM_experiment,2022.2.3,59.98562745
,,,,,,,,,,,,,,,,,,,,7,0,7,0,20,0,20,0,,,,,,,,,,,,,,,,,,,,,,,,,,,,,,,,,,,,,,,,,,,,,,,,,,,,,,,,,,,,,,,,,,,,,,0.065,,,,,,,,,,,,,,,,,,,,,,,,,,,,right,1,160,30,190,1,2698.759083,2698.759083,2698.759083,None,None,2,0,0.5267714,,,,,,,,,,,,,,,,,,,10,6,1,2024-10-18_13h01.27.661,uWM_experiment,2022.2.3,59.98562745
,,,,,,,,,,,,,,,,,,,,7,0,7,0,21,0,21,0,,,,,,,,,,,,,,,,,,,,,,,,,,,,,,,,,,,,,,,,,,,,,,,,,,,,,,,,,,,,,,,,,,,,,,0,,,,,,,,,,,,,,,,,,,,,,,,,,,,left,0,130,30,160,0,2705.15933,2705.15933,2705.15933,None,None,1,1,0.6703168,,,,,,,,,,,,,,,,,,,10,6,1,2024-10-18_13h01.27.661,uWM_experiment,2022.2.3,59.98562745
,,,,,,,,,,,,,,,,,,,,7,0,7,0,22,0,22,0,,,,,,,,,,,,,,,,,,,,,,,,,,,,,,,,,,,,,,,,,,,,,,,,,,,,,,,,,,,,,,,,,,,,,,0.055,,,,,,,,,,,,,,,,,,,,,,,,,,,,right,1,40,30,70,1,2711.726288,2711.726288,2711.726288,None,None,3,0,0.6554002,,,,,,,,,,,,,,,,,,,10,6,1,2024-10-18_13h01.27.661,uWM_experiment,2022.2.3,59.98562745
,,,,,,,,,,,,,,,,,,,,7,0,7,0,23,0,23,0,,,,,,,,,,,,,,,,,,,,,,,,,,,,,,,,,,,,,,,,,,,,,,,,,,,,,,,,,,,,,,,,,,,,,,0,,,,,,,,,,,,,,,,,,,,,,,,,,,,left,1,10,-30,-20,0,2718.126537,2718.126537,2718.126537,None,None,1,1,0.4630463,,,,,,,,,,,,,,,,,,,10,6,1,2024-10-18_13h01.27.661,uWM_experiment,2022.2.3,59.98562745
,,,,,,,,,,,,,,,,,,,,7,0,7,0,,,,,0,0,0,0,,,,,,,,,,,,,,,,,,,,,,,,,,,,,,,,,,,,,,,,,,,,,,,,,,,,,,,,,,,,,,,,,,,,,,,,,,,,,,,,,,,,,,,,,,,,,,,,,,,,,,,,,,,,2718.609857,2718.609857,space,10.003833,None,None,,,,,,,,,,,,,10,6,1,2024-10-18_13h01.27.661,uWM_experiment,2022.2.3,59.98562745
,,,,,,,,,,,,,,,,,,,,7,0,7,0,,,,,1,0,1,0,,,,,,,,,,,,,,,,,,,,,,,,,,,,,,,,,,,,,,,,,,,,,,,,,,,,,,,,,,,,,,,,,,,,,,,,,,,,,,,,,,,,,,,,,,,,,,,,,,,,,,,,,,,,,,,,,,,,,,,,,,,,,,10,6,1,2024-10-18_13h01.27.661,uWM_experiment,2022.2.3,59.98562745
,,,,,,,,,,,,,,,,,,,,7,0,7,0,,,,,2,0,2,0,,,,,,,,,,,,,,,,,,,,,,,,,,,,,,,,,,,,,,,,,,,,,,,,,,,,,,,,,,,,,,,,,,,,,,,,,,,,,,,,,,,,,,,,,,,,,,,,,,,,,,,,,,,,,,,,,,,,,,,,,,,,,,10,6,1,2024-10-18_13h01.27.661,uWM_experiment,2022.2.3,59.98562745
,,,,,,,,,,,,,,,,,,,,8,0,8,0,0,0,0,0,,,,,,,,,,,,,,,,,,,,,,,,,,,,,,,,,,,,,,,,,,,,,,,,,,,,,,,,,,,,,,,,,,,,,,0,,,,,,,,,,,,,,,,,,,,2728.643601,2729.34363,2729.643637,2730.34367,2730.643676,2731.34371,2731.34371,2731.660393,left,1,130,-30,100,0,2736.077261,2736.077261,2736.077261,None,None,1,1,0.2964458,,,,,,,None,,,,,,,,,,,,10,6,1,2024-10-18_13h01.27.661,uWM_experiment,2022.2.3,59.98562745
,,,,,,,,,,,,,,,,,,,,8,0,8,0,1,0,1,0,,,,,,,,,,,,,,,,,,,,,,,,,,,,,,,,,,,,,,,,,,,,,,,,,,,,,,,,,,,,,,,,,,,,,,0.045,,,,,,,,,,,,,,,,,,,,,,,,,,,,left,0,100,30,130,1,2742.660833,2742.660833,2742.660833,None,None,1,1,0.5607508,,,,,,,,,,,,,,,,,,,10,6,1,2024-10-18_13h01.27.661,uWM_experiment,2022.2.3,59.98562745
,,,,,,,,,,,,,,,,,,,,8,0,8,0,2,0,2,0,,,,,,,,,,,,,,,,,,,,,,,,,,,,,,,,,,,,,,,,,,,,,,,,,,,,,,,,,,,,,,,,,,,,,,0.055,,,,,,,,,,,,,,,,,,,,,,,,,,,,right,1,100,30,130,1,2748.877781,2748.877781,2748.877781,None,None,2,0,0.6877104,,,,,,,,,,,,,,,,,,,10,6,1,2024-10-18_13h01.27.661,uWM_experiment,2022.2.3,59.98562745
,,,,,,,,,,,,,,,,,,,,8,0,8,0,3,0,3,0,,,,,,,,,,,,,,,,,,,,,,,,,,,,,,,,,,,,,,,,,,,,,,,,,,,,,,,,,,,,,,,,,,,,,,0.045,,,,,,,,,,,,,,,,,,,,,,,,,,,,right,0,100,-30,70,1,2755.411374,2755.411374,2755.411374,None,None,2,0,0.3621282,,,,,,,,,,,,,,,,,,,10,6,1,2024-10-18_13h01.27.661,uWM_experiment,2022.2.3,59.98562745
,,,,,,,,,,,,,,,,,,,,8,0,8,0,4,0,4,0,,,,,,,,,,,,,,,,,,,,,,,,,,,,,,,,,,,,,,,,,,,,,,,,,,,,,,,,,,,,,,,,,,,,,,0.035,,,,,,,,,,,,,,,,,,,,,,,,,,,,left,1,70,-30,40,1,2760.894893,2760.894893,2760.894893,None,None,2,0,4.286506,,,,,,,,,,,,,,,,,,,10,6,1,2024-10-18_13h01.27.661,uWM_experiment,2022.2.3,59.98562745
,,,,,,,,,,,,,,,,,,,,8,0,8,0,5,0,5,0,,,,,,,,,,,,,,,,,,,,,,,,,,,,,,,,,,,,,,,,,,,,,,,,,,,,,,,,,,,,,,,,,,,,,,0.025,,,,,,,,,,,,,,,,,,,,,,,,,,,,left,0,70,30,100,1,2771.712006,2771.712006,2771.712006,None,None,2,0,0.6294865,,,,,,,,,,,,,,,,,,,10,6,1,2024-10-18_13h01.27.661,uWM_experiment,2022.2.3,59.98562745
,,,,,,,,,,,,,,,,,,,,8,0,8,0,6,0,6,0,,,,,,,,,,,,,,,,,,,,,,,,,,,,,,,,,,,,,,,,,,,,,,,,,,,,,,,,,,,,,,,,,,,,,,0,,,,,,,,,,,,,,,,,,,,,,,,,,,,right,0,40,-30,10,0,2778.145564,2778.145564,2778.145564,None,None,1,1,0.4357619,,,,,,,,,,,,,,,,,,,10,6,1,2024-10-18_13h01.27.661,uWM_experiment,2022.2.3,59.98562745
,,,,,,,,,,,,,,,,,,,,8,0,8,0,7,0,7,0,,,,,,,,,,,,,,,,,,,,,,,,,,,,,,,,,,,,,,,,,,,,,,,,,,,,,,,,,,,,,,,,,,,,,,0.015,,,,,,,,,,,,,,,,,,,,,,,,,,,,left,1,130,-30,100,1,2784.879185,2784.879185,2784.879185,None,None,1,1,0.4782585,,,,,,,,,,,,,,,,,,,10,6,1,2024-10-18_13h01.27.661,uWM_experiment,2022.2.3,59.98562745
,,,,,,,,,,,,,,,,,,,,8,0,8,0,8,0,8,0,,,,,,,,,,,,,,,,,,,,,,,,,,,,,,,,,,,,,,,,,,,,,,,,,,,,,,,,,,,,,,,,,,,,,,0.025,,,,,,,,,,,,,,,,,,,,,,,,,,,,right,1,10,30,40,1,2791.612812,2791.612812,2791.612812,None,None,1,1,0.3204766,,,,,,,,,,,,,,,,,,,10,6,1,2024-10-18_13h01.27.661,uWM_experiment,2022.2.3,59.98562745
,,,,,,,,,,,,,,,,,,,,8,0,8,0,9,0,9,0,,,,,,,,,,,,,,,,,,,,,,,,,,,,,,,,,,,,,,,,,,,,,,,,,,,,,,,,,,,,,,,,,,,,,,0,,,,,,,,,,,,,,,,,,,,,,,,,,,,left,0,130,30,160,0,2798.396402,2798.396402,2798.396402,None,None,2,0,0.5688384,,,,,,,,,,,,,,,,,,,10,6,1,2024-10-18_13h01.27.661,uWM_experiment,2022.2.3,59.98562745
,,,,,,,,,,,,,,,,,,,,8,0,8,0,10,0,10,0,,,,,,,,,,,,,,,,,,,,,,,,,,,,,,,,,,,,,,,,,,,,,,,,,,,,,,,,,,,,,,,,,,,,,,0.035,,,,,,,,,,,,,,,,,,,,,,,,,,,,left,1,40,-30,10,1,2805.180006,2805.180006,2805.180006,None,None,2,0,0.3133258,,,,,,,,,,,,,,,,,,,10,6,1,2024-10-18_13h01.27.661,uWM_experiment,2022.2.3,59.98562745
,,,,,,,,,,,,,,,,,,,,8,0,8,0,11,0,11,0,,,,,,,,,,,,,,,,,,,,,,,,,,,,,,,,,,,,,,,,,,,,,,,,,,,,,,,,,,,,,,,,,,,,,,0.025,,,,,,,,,,,,,,,,,,,,,,,,,,,,left,0,10,30,40,1,2811.296929,2811.296929,2811.296929,None,None,1,1,0.3163149,,,,,,,,,,,,,,,,,,,10,6,1,2024-10-18_13h01.27.661,uWM_experiment,2022.2.3,59.98562745
,,,,,,,,,,,,,,,,,,,,8,0,8,0,12,0,12,0,,,,,,,,,,,,,,,,,,,,,,,,,,,,,,,,,,,,,,,,,,,,,,,,,,,,,,,,,,,,,,,,,,,,,,0,,,,,,,,,,,,,,,,,,,,,,,,,,,,left,1,130,-30,100,0,2818.03051,2818.03051,2818.03051,None,None,2,0,1.1987755,,,,,,,,,,,,,,,,,,,10,6,1,2024-10-18_13h01.27.661,uWM_experiment,2022.2.3,59.98562745
,,,,,,,,,,,,,,,,,,,,8,0,8,0,13,0,13,0,,,,,,,,,,,,,,,,,,,,,,,,,,,,,,,,,,,,,,,,,,,,,,,,,,,,,,,,,,,,,,,,,,,,,,0,,,,,,,,,,,,,,,,,,,,,,,,,,,,right,1,100,30,130,0,2825.180783,2825.180783,2825.180783,None,None,1,1,0.5043018,,,,,,,,,,,,,,,,,,,10,6,1,2024-10-18_13h01.27.661,uWM_experiment,2022.2.3,59.98562745
,,,,,,,,,,,,,,,,,,,,8,0,8,0,14,0,14,0,,,,,,,,,,,,,,,,,,,,,,,,,,,,,,,,,,,,,,,,,,,,,,,,,,,,,,,,,,,,,,,,,,,,,,0.035,,,,,,,,,,,,,,,,,,,,,,,,,,,,left,1,10,-30,-20,1,2832.6811,2832.6811,2832.6811,None,None,3,0,0.3160372,,,,,,,,,,,,,,,,,,,10,6,1,2024-10-18_13h01.27.661,uWM_experiment,2022.2.3,59.98562745
,,,,,,,,,,,,,,,,,,,,8,0,8,0,15,0,15,0,,,,,,,,,,,,,,,,,,,,,,,,,,,,,,,,,,,,,,,,,,,,,,,,,,,,,,,,,,,,,,,,,,,,,,0.025,,,,,,,,,,,,,,,,,,,,,,,,,,,,right,1,160,30,190,1,2839.198041,2839.198041,2839.198041,None,None,1,1,0.2550459,,,,,,,,,,,,,,,,,,,10,6,1,2024-10-18_13h01.27.661,uWM_experiment,2022.2.3,59.98562745
,,,,,,,,,,,,,,,,,,,,8,0,8,0,16,0,16,0,,,,,,,,,,,,,,,,,,,,,,,,,,,,,,,,,,,,,,,,,,,,,,,,,,,,,,,,,,,,,,,,,,,,,,0.035,,,,,,,,,,,,,,,,,,,,,,,,,,,,right,0,100,-30,70,1,2846.01496,2846.01496,2846.01496,None,None,1,1,0.2140732,,,,,,,,,,,,,,,,,,,10,6,1,2024-10-18_13h01.27.661,uWM_experiment,2022.2.3,59.98562745
,,,,,,,,,,,,,,,,,,,,8,0,8,0,17,0,17,0,,,,,,,,,,,,,,,,,,,,,,,,,,,,,,,,,,,,,,,,,,,,,,,,,,,,,,,,,,,,,,,,,,,,,,0.045,,,,,,,,,,,,,,,,,,,,,,,,,,,,left,0,70,30,100,1,2852.731916,2852.731916,2852.731916,None,None,2,0,0.4332878,,,,,,,,,,,,,,,,,,,10,6,1,2024-10-18_13h01.27.661,uWM_experiment,2022.2.3,59.98562745
,,,,,,,,,,,,,,,,,,,,8,0,8,0,18,0,18,0,,,,,,,,,,,,,,,,,,,,,,,,,,,,,,,,,,,,,,,,,,,,,,,,,,,,,,,,,,,,,,,,,,,,,,0,,,,,,,,,,,,,,,,,,,,,,,,,,,,left,0,100,30,130,0,2859.53218,2859.53218,2859.53218,None,None,1,1,0.2249098,,,,,,,,,,,,,,,,,,,10,6,1,2024-10-18_13h01.27.661,uWM_experiment,2022.2.3,59.98562745
,,,,,,,,,,,,,,,,,,,,8,0,8,0,19,0,19,0,,,,,,,,,,,,,,,,,,,,,,,,,,,,,,,,,,,,,,,,,,,,,,,,,,,,,,,,,,,,,,,,,,,,,,0,,,,,,,,,,,,,,,,,,,,,,,,,,,,right,1,160,30,190,0,2865.749085,2865.749085,2865.749085,None,None,1,1,0.3119215,,,,,,,,,,,,,,,,,,,10,6,1,2024-10-18_13h01.27.661,uWM_experiment,2022.2.3,59.98562745
,,,,,,,,,,,,,,,,,,,,8,0,8,0,20,0,20,0,,,,,,,,,,,,,,,,,,,,,,,,,,,,,,,,,,,,,,,,,,,,,,,,,,,,,,,,,,,,,,,,,,,,,,0,,,,,,,,,,,,,,,,,,,,,,,,,,,,right,0,100,-30,70,0,2872.23267,2872.23267,2872.23267,None,None,1,1,0.8522535,,,,,,,,,,,,,,,,,,,10,6,1,2024-10-18_13h01.27.661,uWM_experiment,2022.2.3,59.98562745
,,,,,,,,,,,,,,,,,,,,8,0,8,0,21,0,21,0,,,,,,,,,,,,,,,,,,,,,,,,,,,,,,,,,,,,,,,,,,,,,,,,,,,,,,,,,,,,,,,,,,,,,,0,,,,,,,,,,,,,,,,,,,,,,,,,,,,left,0,130,30,160,0,2879.749658,2879.749658,2879.749658,None,None,2,0,0.6552062,,,,,,,,,,,,,,,,,,,10,6,1,2024-10-18_13h01.27.661,uWM_experiment,2022.2.3,59.98562745
,,,,,,,,,,,,,,,,,,,,8,0,8,0,22,0,22,0,,,,,,,,,,,,,,,,,,,,,,,,,,,,,,,,,,,,,,,,,,,,,,,,,,,,,,,,,,,,,,,,,,,,,,0,,,,,,,,,,,,,,,,,,,,,,,,,,,,left,0,70,30,100,0,2885.983234,2885.983234,2885.983234,None,None,1,1,0.3897241,,,,,,,,,,,,,,,,,,,10,6,1,2024-10-18_13h01.27.661,uWM_experiment,2022.2.3,59.98562745
,,,,,,,,,,,,,,,,,,,,8,0,8,0,23,0,23,0,,,,,,,,,,,,,,,,,,,,,,,,,,,,,,,,,,,,,,,,,,,,,,,,,,,,,,,,,,,,,,,,,,,,,,0.035,,,,,,,,,,,,,,,,,,,,,,,,,,,,left,1,130,-30,100,1,2892.050155,2892.050155,2892.050155,None,None,1,1,1.0907287,,,,,,,,,,,,,,,,,,,10,6,1,2024-10-18_13h01.27.661,uWM_experiment,2022.2.3,59.98562745
,,,,,,,,,,,,,,,,,,,,8,0,8,0,,,,,0,0,0,0,,,,,,,,,,,,,,,,,,,,,,,,,,,,,,,,,,,,,,,,,,,,,,,,,,,,,,,,,,,,,,,,,,,,,,,,,,,,,,,,,,,,,,,,,,,,,,,,,,,,,,,,,,,,2893.166847,2893.166847,space,6.4620704,space,None,,2899.650427,2899.650427,1.7544797,,,,,,,,,10,6,1,2024-10-18_13h01.27.661,uWM_experiment,2022.2.3,59.98562745
,,,,,,,,,,,,,,,,,,,,8,0,8,0,,,,,1,0,1,0,,,,,,,,,,,,,,,,,,,,,,,,,,,,,,,,,,,,,,,,,,,,,,,,,,,,,,,,,,,,,,,,,,,,,,,,,,,,,,,,,,,,,,,,,,,,,,,,,,,,,,,,,,,,,,,,,,,,,,,,,,,,,,10,6,1,2024-10-18_13h01.27.661,uWM_experiment,2022.2.3,59.98562745
,,,,,,,,,,,,,,,,,,,,8,0,8,0,,,,,2,0,2,0,,,,,,,,,,,,,,,,,,,,,,,,,,,,,,,,,,,,,,,,,,,,,,,,,,,,,,,,,,,,,,,,,,,,,,,,,,,,,,,,,,,,,,,,,,,,,,,,,,,,,,,,,,,,,,,,,,,,,,,,,,,,,,10,6,1,2024-10-18_13h01.27.661,uWM_experiment,2022.2.3,59.98562745
,,,,,,,,,,,,,,,,,,,,9,0,9,0,0,0,0,0,,,,,,,,,,,,,,,,,,,,,,,,,,,,,,,,,,,,,,,,,,,,,,,,,,,,,,,,,,,,,,,,,,,,,,0.045,,,,,,,,,,,,,,,,,,,,2901.433848,2902.133862,2902.433864,2903.133922,2903.433913,2904.133939,2904.133939,2904.450623,left,0,100,30,130,1,2909.38416,2909.38416,2909.38416,None,None,1,1,0.3166637,,,,,,,None,,,,,,,,,,,,10,6,1,2024-10-18_13h01.27.661,uWM_experiment,2022.2.3,59.98562745
,,,,,,,,,,,,,,,,,,,,9,0,9,0,1,0,1,0,,,,,,,,,,,,,,,,,,,,,,,,,,,,,,,,,,,,,,,,,,,,,,,,,,,,,,,,,,,,,,,,,,,,,,0.055,,,,,,,,,,,,,,,,,,,,,,,,,,,,right,0,40,-30,10,1,2915.30108,2915.30108,2915.30108,None,None,1,1,0.3117784,,,,,,,,,,,,,,,,,,,10,6,1,2024-10-18_13h01.27.661,uWM_experiment,2022.2.3,59.98562745
,,,,,,,,,,,,,,,,,,,,9,0,9,0,2,0,2,0,,,,,,,,,,,,,,,,,,,,,,,,,,,,,,,,,,,,,,,,,,,,,,,,,,,,,,,,,,,,,,,,,,,,,,0,,,,,,,,,,,,,,,,,,,,,,,,,,,,left,0,40,30,70,0,2921.117999,2921.117999,2921.117999,None,None,1,1,0.4787471,,,,,,,,,,,,,,,,,,,10,6,1,2024-10-18_13h01.27.661,uWM_experiment,2022.2.3,59.98562745
,,,,,,,,,,,,,,,,,,,,9,0,9,0,3,0,3,0,,,,,,,,,,,,,,,,,,,,,,,,,,,,,,,,,,,,,,,,,,,,,,,,,,,,,,,,,,,,,,,,,,,,,,0.065,,,,,,,,,,,,,,,,,,,,,,,,,,,,right,0,70,-30,40,1,2927.051567,2927.051567,2927.051567,None,None,1,1,0.4652513,,,,,,,,,,,,,,,,,,,10,6,1,2024-10-18_13h01.27.661,uWM_experiment,2022.2.3,59.98562745
,,,,,,,,,,,,,,,,,,,,9,0,9,0,4,0,4,0,,,,,,,,,,,,,,,,,,,,,,,,,,,,,,,,,,,,,,,,,,,,,,,,,,,,,,,,,,,,,,,,,,,,,,0.075,,,,,,,,,,,,,,,,,,,,,,,,,,,,left,1,130,-30,100,1,2933.118444,2933.118444,2933.118444,None,None,1,1,0.4462723,,,,,,,,,,,,,,,,,,,10,6,1,2024-10-18_13h01.27.661,uWM_experiment,2022.2.3,59.98562745
,,,,,,,,,,,,,,,,,,,,9,0,9,0,5,0,5,0,,,,,,,,,,,,,,,,,,,,,,,,,,,,,,,,,,,,,,,,,,,,,,,,,,,,,,,,,,,,,,,,,,,,,,0,,,,,,,,,,,,,,,,,,,,,,,,,,,,left,0,70,30,100,0,2941.285414,2941.285414,2941.285414,None,None,1,1,0.6072748,,,,,,,,,,,,,,,,,,,10,6,1,2024-10-18_13h01.27.661,uWM_experiment,2022.2.3,59.98562745
,,,,,,,,,,,,,,,,,,,,9,0,9,0,6,0,6,0,,,,,,,,,,,,,,,,,,,,,,,,,,,,,,,,,,,,,,,,,,,,,,,,,,,,,,,,,,,,,,,,,,,,,,0.085,,,,,,,,,,,,,,,,,,,,,,,,,,,,left,1,40,-30,10,1,2949.919099,2949.919099,2949.919099,None,None,1,1,1.4456255,,,,,,,,,,,,,,,,,,,10,6,1,2024-10-18_13h01.27.661,uWM_experiment,2022.2.3,59.98562745
,,,,,,,,,,,,,,,,,,,,9,0,9,0,7,0,7,0,,,,,,,,,,,,,,,,,,,,,,,,,,,,,,,,,,,,,,,,,,,,,,,,,,,,,,,,,,,,,,,,,,,,,,0.1,,,,,,,,,,,,,,,,,,,,,,,,,,,,left,0,130,30,160,2,2957.486071,2957.486071,2957.486071,None,None,1,1,0.3826029,,,,,,,,,,,,,,,,,,,10,6,1,2024-10-18_13h01.27.661,uWM_experiment,2022.2.3,59.98562745
,,,,,,,,,,,,,,,,,,,,9,0,9,0,8,0,8,0,,,,,,,,,,,,,,,,,,,,,,,,,,,,,,,,,,,,,,,,,,,,,,,,,,,,,,,,,,,,,,,,,,,,,,0.1,,,,,,,,,,,,,,,,,,,,,,,,,,,,right,1,100,30,130,2,2963.586319,2963.586319,2963.586319,None,None,4,0,0.8182448,,,,,,,,,,,,,,,,,,,10,6,1,2024-10-18_13h01.27.661,uWM_experiment,2022.2.3,59.98562745
,,,,,,,,,,,,,,,,,,,,9,0,9,0,9,0,9,0,,,,,,,,,,,,,,,,,,,,,,,,,,,,,,,,,,,,,,,,,,,,,,,,,,,,,,,,,,,,,,,,,,,,,,0,,,,,,,,,,,,,,,,,,,,,,,,,,,,right,0,10,-30,-20,0,2969.919896,2969.919896,2969.919896,None,None,2,0,0.6046236,,,,,,,,,,,,,,,,,,,10,6,1,2024-10-18_13h01.27.661,uWM_experiment,2022.2.3,59.98562745
,,,,,,,,,,,,,,,,,,,,9,0,9,0,10,0,10,0,,,,,,,,,,,,,,,,,,,,,,,,,,,,,,,,,,,,,,,,,,,,,,,,,,,,,,,,,,,,,,,,,,,,,,0,,,,,,,,,,,,,,,,,,,,,,,,,,,,left,0,100,30,130,0,2977.936895,2977.936895,2977.936895,None,None,2,0,0.4915936,,,,,,,,,,,,,,,,,,,10,6,1,2024-10-18_13h01.27.661,uWM_experiment,2022.2.3,59.98562745
,,,,,,,,,,,,,,,,,,,,9,0,9,0,11,0,11,0,,,,,,,,,,,,,,,,,,,,,,,,,,,,,,,,,,,,,,,,,,,,,,,,,,,,,,,,,,,,,,,,,,,,,,0.095,,,,,,,,,,,,,,,,,,,,,,,,,,,,right,1,10,30,40,1,2984.353865,2984.353865,2984.353865,None,None,2,0,0.8426731,,,,,,,,,,,,,,,,,,,10,6,1,2024-10-18_13h01.27.661,uWM_experiment,2022.2.3,59.98562745
,,,,,,,,,,,,,,,,,,,,9,0,9,0,12,0,12,0,,,,,,,,,,,,,,,,,,,,,,,,,,,,,,,,,,,,,,,,,,,,,,,,,,,,,,,,,,,,,,,,,,,,,,0.085,,,,,,,,,,,,,,,,,,,,,,,,,,,,right,1,130,30,160,1,2991.27075,2991.27075,2991.27075,None,None,2,0,0.4937732,,,,,,,,,,,,,,,,,,,10,6,1,2024-10-18_13h01.27.661,uWM_experiment,2022.2.3,59.98562745
,,,,,,,,,,,,,,,,,,,,9,0,9,0,13,0,13,0,,,,,,,,,,,,,,,,,,,,,,,,,,,,,,,,,,,,,,,,,,,,,,,,,,,,,,,,,,,,,,,,,,,,,,0,,,,,,,,,,,,,,,,,,,,,,,,,,,,left,0,100,30,130,0,2997.72101,2997.72101,2997.72101,None,None,2,0,0.4994341,,,,,,,,,,,,,,,,,,,10,6,1,2024-10-18_13h01.27.661,uWM_experiment,2022.2.3,59.98562745
,,,,,,,,,,,,,,,,,,,,9,0,9,0,14,0,14,0,,,,,,,,,,,,,,,,,,,,,,,,,,,,,,,,,,,,,,,,,,,,,,,,,,,,,,,,,,,,,,,,,,,,,,0.075,,,,,,,,,,,,,,,,,,,,,,,,,,,,left,0,100,30,130,1,3003.887941,3003.887941,3003.887941,None,None,1,1,0.3965469,,,,,,,,,,,,,,,,,,,10,6,1,2024-10-18_13h01.27.661,uWM_experiment,2022.2.3,59.98562745
,,,,,,,,,,,,,,,,,,,,9,0,9,0,15,0,15,0,,,,,,,,,,,,,,,,,,,,,,,,,,,,,,,,,,,,,,,,,,,,,,,,,,,,,,,,,,,,,,,,,,,,,,0.085,,,,,,,,,,,,,,,,,,,,,,,,,,,,right,0,70,-30,40,1,3010.154857,3010.154857,3010.154857,None,None,1,1,0.5694431,,,,,,,,,,,,,,,,,,,10,6,1,2024-10-18_13h01.27.661,uWM_experiment,2022.2.3,59.98562745
,,,,,,,,,,,,,,,,,,,,9,0,9,0,16,0,16,0,,,,,,,,,,,,,,,,,,,,,,,,,,,,,,,,,,,,,,,,,,,,,,,,,,,,,,,,,,,,,,,,,,,,,,0.095,,,,,,,,,,,,,,,,,,,,,,,,,,,,right,0,70,-30,40,1,3016.388415,3016.388415,3016.388415,None,None,2,0,0.367834,,,,,,,,,,,,,,,,,,,10,6,1,2024-10-18_13h01.27.661,uWM_experiment,2022.2.3,59.98562745
,,,,,,,,,,,,,,,,,,,,9,0,9,0,17,0,17,0,,,,,,,,,,,,,,,,,,,,,,,,,,,,,,,,,,,,,,,,,,,,,,,,,,,,,,,,,,,,,,,,,,,,,,0.085,,,,,,,,,,,,,,,,,,,,,,,,,,,,left,0,100,30,130,1,3022.205316,3022.205316,3022.205316,None,None,1,1,0.3029776,,,,,,,,,,,,,,,,,,,10,6,1,2024-10-18_13h01.27.661,uWM_experiment,2022.2.3,59.98562745
,,,,,,,,,,,,,,,,,,,,9,0,9,0,18,0,18,0,,,,,,,,,,,,,,,,,,,,,,,,,,,,,,,,,,,,,,,,,,,,,,,,,,,,,,,,,,,,,,,,,,,,,,0,,,,,,,,,,,,,,,,,,,,,,,,,,,,right,0,40,-30,10,0,3028.238893,3028.238893,3028.238893,None,None,1,1,0.3253712,,,,,,,,,,,,,,,,,,,10,6,1,2024-10-18_13h01.27.661,uWM_experiment,2022.2.3,59.98562745
,,,,,,,,,,,,,,,,,,,,9,0,9,0,19,0,19,0,,,,,,,,,,,,,,,,,,,,,,,,,,,,,,,,,,,,,,,,,,,,,,,,,,,,,,,,,,,,,,,,,,,,,,0.095,,,,,,,,,,,,,,,,,,,,,,,,,,,,right,1,100,30,130,1,3034.239131,3034.239131,3034.239131,None,None,2,0,0.6132726,,,,,,,,,,,,,,,,,,,10,6,1,2024-10-18_13h01.27.661,uWM_experiment,2022.2.3,59.98562745
,,,,,,,,,,,,,,,,,,,,9,0,9,0,20,0,20,0,,,,,,,,,,,,,,,,,,,,,,,,,,,,,,,,,,,,,,,,,,,,,,,,,,,,,,,,,,,,,,,,,,,,,,0.085,,,,,,,,,,,,,,,,,,,,,,,,,,,,right,0,40,-30,10,1,3040.706073,3040.706073,3040.706073,None,None,3,0,0.3141102,,,,,,,,,,,,,,,,,,,10,6,1,2024-10-18_13h01.27.661,uWM_experiment,2022.2.3,59.98562745
,,,,,,,,,,,,,,,,,,,,9,0,9,0,21,0,21,0,,,,,,,,,,,,,,,,,,,,,,,,,,,,,,,,,,,,,,,,,,,,,,,,,,,,,,,,,,,,,,,,,,,,,,0.075,,,,,,,,,,,,,,,,,,,,,,,,,,,,right,0,100,-30,70,1,3046.822983,3046.822983,3046.822983,None,None,2,0,0.3732057,,,,,,,,,,,,,,,,,,,10,6,1,2024-10-18_13h01.27.661,uWM_experiment,2022.2.3,59.98562745
,,,,,,,,,,,,,,,,,,,,9,0,9,0,22,0,22,0,,,,,,,,,,,,,,,,,,,,,,,,,,,,,,,,,,,,,,,,,,,,,,,,,,,,,,,,,,,,,,,,,,,,,,0.065,,,,,,,,,,,,,,,,,,,,,,,,,,,,left,0,70,30,100,1,3052.706552,3052.706552,3052.706552,None,None,2,0,0.3616045,,,,,,,,,,,,,,,,,,,10,6,1,2024-10-18_13h01.27.661,uWM_experiment,2022.2.3,59.98562745
,,,,,,,,,,,,,,,,,,,,9,0,9,0,23,0,23,0,,,,,,,,,,,,,,,,,,,,,,,,,,,,,,,,,,,,,,,,,,,,,,,,,,,,,,,,,,,,,,,,,,,,,,0.055,,,,,,,,,,,,,,,,,,,,,,,,,,,,left,1,130,-30,100,1,3058.64012,3058.64012,3058.64012,None,None,2,0,0.8839366,,,,,,,,,,,,,,,,,,,10,6,1,2024-10-18_13h01.27.661,uWM_experiment,2022.2.3,59.98562745
,,,,,,,,,,,,,,,,,,,,9,0,9,0,,,,,0,0,0,0,,,,,,,,,,,,,,,,,,,,,,,,,,,,,,,,,,,,,,,,,,,,,,,,,,,,,,,,,,,,,,,,,,,,,,,,,,,,,,,,,,,,,,,,,,,,,,,,,,,,,,,,,,,,3059.556792,3059.556792,space,19.3912997,None,None,,,,,,,,,,,,,10,6,1,2024-10-18_13h01.27.661,uWM_experiment,2022.2.3,59.98562745
