PreTrainingPAS4_loop.thisRepN,PreTrainingPAS4_loop.thisTrialN,PreTrainingPAS4_loop.thisN,PreTrainingPAS4_loop.thisIndex,PreTrainingPAS1_loop.thisRepN,PreTrainingPAS1_loop.thisTrialN,PreTrainingPAS1_loop.thisN,PreTrainingPAS1_loop.thisIndex,RepeatCV_loop.thisRepN,RepeatCV_loop.thisTrialN,RepeatCV_loop.thisN,RepeatCV_loop.thisIndex,TrainingCV_loop.thisRepN,TrainingCV_loop.thisTrialN,TrainingCV_loop.thisN,TrainingCV_loop.thisIndex,TrainingCAL_loop.thisRepN,TrainingCAL_loop.thisTrialN,TrainingCAL_loop.thisN,TrainingCAL_loop.thisIndex,blocks_loop.thisRepN,blocks_loop.thisTrialN,blocks_loop.thisN,blocks_loop.thisIndex,trials_loop.thisRepN,trials_loop.thisTrialN,trials_loop.thisN,trials_loop.thisIndex,TrainingPAS1_loop.thisRepN,TrainingPAS1_loop.thisTrialN,TrainingPAS1_loop.thisN,TrainingPAS1_loop.thisIndex,spacebarWelcome0.started,spacebarWelcome0.keys,spacebarWelcome0.rt,spacebarWelcome1.started,gaborWelcome1.started,maskWelcome1.started,textMaskWelcome1.started,spacebarWelcome1.keys,spacebarWelcome1.rt,spacebarWelcome2.started,spacebarWelcome2.keys,spacebarWelcome2.rt,textInst_PreTrainingPAS4.started,spacebarPreTrainingPAS4.started,spacebarPreTrainingPAS4.keys,spacebarPreTrainingPAS4.rt,textPreTrainingPAS1.started,spacebarPreTrainingPAS1.started,spacebarPreTrainingPAS1.keys,spacebarPreTrainingPAS1.rt,textQUEST0.started,spacebarQUEST0.started,spacebarQUEST0.keys,spacebarQUEST0.rt,spacebar0.started,spacebar0.keys,spacebar0.rt,spacebar1.started,spacebar1.keys,spacebar1.rt,textInstructions2.started,spacebar2.started,Gabor1Inst2.started,Gabor2Inst2.started,Gabor3Inst2.started,Gabor4Inst2.started,spacebar2.keys,spacebar2.rt,textInstructionsPAS.started,spacebarInstPAS.started,spacebarInstPAS.keys,spacebarInstPAS.rt,textInstructions3.started,spacebar3.started,spacebar3.keys,spacebar3.rt,WMresp_CV,WMresp_CV_acc,oriMemo_CV,gyre_CV,oriTest_CV,feedbackText.started,sliderCV.started,PAStextCV.started,PASkeyCV.started,sliderCV.response,sliderCV.rt,PASkeyCV.keys,PASkeyCV.corr,PASkeyCV.rt,feedbackText.stopped,TextInstructionsCAL.started,spacebarCAL.started,spacebarCAL.keys,spacebarCAL.rt,contrast,WMresp_CAL,WMresp_CAL_acc,oriMemo_CAL,gyre_CAL,oriTest_CAL,cue_CAL,sliderCAL.started,PAStextCAL.started,PASkeyCAL.started,sliderCAL.response,sliderCAL.rt,PASkeyCAL.keys,PASkeyCAL.corr,PASkeyCAL.rt,propUnseen_CAL,textStart.started,spacebar4.started,spacebar4.keys,spacebar4.rt,three.started,three.stopped,two.started,two.stopped,one.started,one.stopped,blank_countdown.started,blank_countdown.stopped,WMresp,WMresp_acc,oriMemo,gyre,oriTest,cue,slider.started,textPAS_firstGabor.started,PASkey.started,slider.response,slider.rt,PASkey.keys,PASkey.corr,PASkey.rt,spacebarContinue.started,textBreak.started,spacebarContinue.keys,spacebarContinue.rt,spacebar_reminder.keys,spacebar_TrainingPAS1.keys,spacebar_endpractice.keys,spacebar_reminder.started,textReminder.started,spacebar_reminder.rt,textInst_TrainingPAS1.started,spacebar_TrainingPAS1.started,spacebar_TrainingPAS1.rt,textend_practicePAS1.started,spacebar_endpractice.started,spacebar_endpractice.rt,textThanks.started,buttonURL.started,buttonURL.numClicks,buttonURL.timesOn,buttonURL.timesOff,laboratory,participant,session,date,expName,psychopyVersion,frameRate
,,,,,,,,,,,,,,,,,,,,,,,,,,,,,,,,46.1425566,space,53.3248319,,,,,,,,,,,,,,,,,,,,,,,,,,,,,,,,,,,,,,,,,,,,,,,,,,,,,,,,,,,,,,,,,,,,,,,,,,,,,,,,,,,,,,,,,,,,,,,,,,,,,,,,,,,,,,,,,,,,,,,,,,,,,,10,6,2,2024-10-25_12h56.53.491,uWM_experiment,2022.2.3,59.98505172
,,,,,,,,,,,,,,,,,,,,,,,,,,,,,,,,,,,99.510994,99.510994,99.510994,99.510994,space,8.948271,,,,,,,,,,,,,,,,,,,,,,,,,,,,,,,,,,,,,,,,,,,,,,,,,,,,,,,,,,,,,,,,,,,,,,,,,,,,,,,,,,,,,,,,,,,,,,,,,,,,,,,,,,,,,,,,,,,,,,,,10,6,2,2024-10-25_12h56.53.491,uWM_experiment,2022.2.3,59.98505172
,,,,,,,,,,,,,,,,,,,,,,,,,,,,,,,,,,,,,,,,,108.4780083,space,10.8291732,,,,,,,,,,,,,,,,,,,,,,,,,,,,,,,,,,,,,,,,,,,,,,,,,,,,,,,,,,,,,,,,,,,,,,,,,,,,,,,,,,,,,,,,,,,,,,,,,,,,,,,,,,,,,,,,,,,,,10,6,2,2024-10-25_12h56.53.491,uWM_experiment,2022.2.3,59.98505172
,,,,,,,,,,,,,,,,,,,,,,,,,,,,,,,,,,,,,,,,,,,,119.3284213,119.3284213,space,11.4587899,,,,,,,,,,,,,,,,,,,,,,,,,,,,,,,,,,,,,,,,,,,,,,,,,,,,,,,,,,,,,,,,,,,,,,,,,,,,,,,,,,,,,,,,,,,,,,,,,,,,,,,,,,,,,,,,,10,6,2,2024-10-25_12h56.53.491,uWM_experiment,2022.2.3,59.98505172
0,0,0,0,,,,,,,,,,,,,,,,,,,,,,,,,,,,,,,,,,,,,,,,,,,,,,,,,,,,,,,,,,,,,,,,,,,,,,,,,,,,,,,,,,,,,,,,,,,,,,,,,,,,,,,,,,,,,,,,,,,,,,,,,,,,,,,,,,,,,,,,,,,,,,,,,,,,,,,,,,,,,10,6,2,2024-10-25_12h56.53.491,uWM_experiment,2022.2.3,59.98505172
1,0,1,0,,,,,,,,,,,,,,,,,,,,,,,,,,,,,,,,,,,,,,,,,,,,,,,,,,,,,,,,,,,,,,,,,,,,,,,,,,,,,,,,,,,,,,,,,,,,,,,,,,,,,,,,,,,,,,,,,,,,,,,,,,,,,,,,,,,,,,,,,,,,,,,,,,,,,,,,,,,,,10,6,2,2024-10-25_12h56.53.491,uWM_experiment,2022.2.3,59.98505172
2,0,2,0,,,,,,,,,,,,,,,,,,,,,,,,,,,,,,,,,,,,,,,,,,,,,,,,,,,,,,,,,,,,,,,,,,,,,,,,,,,,,,,,,,,,,,,,,,,,,,,,,,,,,,,,,,,,,,,,,,,,,,,,,,,,,,,,,,,,,,,,,,,,,,,,,,,,,,,,,,,,,10,6,2,2024-10-25_12h56.53.491,uWM_experiment,2022.2.3,59.98505172
,,,,,,,,,,,,,,,,,,,,,,,,,,,,,,,,,,,,,,,,,,,,,,,,151.5796997,151.5796997,space,4.6713527,,,,,,,,,,,,,,,,,,,,,,,,,,,,,,,,,,,,,,,,,,,,,,,,,,,,,,,,,,,,,,,,,,,,,,,,,,,,,,,,,,,,,,,,,,,,,,,,,,,,,,,,,,,,,10,6,2,2024-10-25_12h56.53.491,uWM_experiment,2022.2.3,59.98505172
,,,,0,0,0,0,,,,,,,,,,,,,,,,,,,,,,,,,,,,,,,,,,,,,,,,,,,,,,,,,,,,,,,,,,,,,,,,,,,,,,,,,,,,,,,,,,,,,,,,,,,,,,,,,,,,,,,,,,,,,,,,,,,,,,,,,,,,,,,,,,,,,,,,,,,,,,,,,,,,,,,,,10,6,2,2024-10-25_12h56.53.491,uWM_experiment,2022.2.3,59.98505172
,,,,1,0,1,0,,,,,,,,,,,,,,,,,,,,,,,,,,,,,,,,,,,,,,,,,,,,,,,,,,,,,,,,,,,,,,,,,,,,,,,,,,,,,,,,,,,,,,,,,,,,,,,,,,,,,,,,,,,,,,,,,,,,,,,,,,,,,,,,,,,,,,,,,,,,,,,,,,,,,,,,,10,6,2,2024-10-25_12h56.53.491,uWM_experiment,2022.2.3,59.98505172
,,,,2,0,2,0,,,,,,,,,,,,,,,,,,,,,,,,,,,,,,,,,,,,,,,,,,,,,,,,,,,,,,,,,,,,,,,,,,,,,,,,,,,,,,,,,,,,,,,,,,,,,,,,,,,,,,,,,,,,,,,,,,,,,,,,,,,,,,,,,,,,,,,,,,,,,,,,,,,,,,,,,10,6,2,2024-10-25_12h56.53.491,uWM_experiment,2022.2.3,59.98505172
,,,,,,,,,,,,,,,,,,,,,,,,,,,,,,,,,,,,,,,,,,,,,,,,,,,,165.9136021,165.9136021,space,4.4654163,,,,,,,,,,,,,,,,,,,,,,,,,,,,,,,,,,,,,,,,,,,,,,,,,,,,,,,,,,,,,,,,,,,,,,,,,,,,,,,,,,,,,,,,,,,,,,,,,,,,,,,,,10,6,2,2024-10-25_12h56.53.491,uWM_experiment,2022.2.3,59.98505172
,,,,,,,,,,,,,,,,,,,,,,,,,,,,,,,,,,,,,,,,,,,,,,,,,,,,,,,,361.6212084,space,2.5407131,,,,,,,,,,,,,,,,,,,,,,,,,,,,,,,,,,,,,,,,,,,,,,,,,,,,,,,,,,,,,,,,,,,,,,,,,,,,,,,,,,,,,,,,,,,,,,,,,,,,,,10,6,2,2024-10-25_12h56.53.491,uWM_experiment,2022.2.3,59.98505172
,,,,,,,,,,,,,,,,,,,,,,,,,,,,,,,,,,,,,,,,,,,,,,,,,,,,,,,,,,,364.1879762,space,3.141934,,,,,,,,,,,,,,,,,,,,,,,,,,,,,,,,,,,,,,,,,,,,,,,,,,,,,,,,,,,,,,,,,,,,,,,,,,,,,,,,,,,,,,,,,,,,,,,,,,,10,6,2,2024-10-25_12h56.53.491,uWM_experiment,2022.2.3,59.98505172
,,,,,,,,,,,,,,,,,,,,,,,,,,,,,,,,,,,,,,,,,,,,,,,,,,,,,,,,,,,,,,367.3547538,367.3547538,367.3547538,367.3547538,367.3547538,367.3547538,space,4.2951088,,,,,,,,,,,,,,,,,,,,,,,,,,,,,,,,,,,,,,,,,,,,,,,,,,,,,,,,,,,,,,,,,,,,,,,,,,,,,,,,,,,,,,,,,,,10,6,2,2024-10-25_12h56.53.491,uWM_experiment,2022.2.3,59.98505172
,,,,,,,,,,,,,,,,,,,,,,,,,,,,,,,,,,,,,,,,,,,,,,,,,,,,,,,,,,,,,,,,,,,,,,371.671596,371.671596,space,4.8021402,,,,,,,,,,,,,,,,,,,,,,,,,,,,,,,,,,,,,,,,,,,,,,,,,,,,,,,,,,,,,,,,,,,,,,,,,,,,,,,,,,,,,,,10,6,2,2024-10-25_12h56.53.491,uWM_experiment,2022.2.3,59.98505172
,,,,,,,,,,,,,,,,,,,,,,,,,,,,,,,,,,,,,,,,,,,,,,,,,,,,,,,,,,,,,,,,,,,,,,,,,,376.5051164,376.5051164,space,2.3047602,,,,,,,,,,,,,,,,,,,,,,,,,,,,,,,,,,,,,,,,,,,,,,,,,,,,,,,,,,,,,,,,,,,,,,,,,,,,,,,,,,,10,6,2,2024-10-25_12h56.53.491,uWM_experiment,2022.2.3,59.98505172
,,,,,,,,0,0,0,0,0,0,0,0,,,,,,,,,,,,,,,,,,,,,,,,,,,,,,,,,,,,,,,,,,,,,,,,,,,,,,,,,,,,,,,left,1,10,-30,-20,385.2221297,386.2221646,386.2221646,386.2221646,None,None,4,0,2.2514935,,,,,,,,,,,,,,,,,,,,,,,,,,,,,,,,,,,,,,,,,,,,,,,,,,,,,,,,,,,,,,,,,,,,,10,6,2,2024-10-25_12h56.53.491,uWM_experiment,2022.2.3,59.98505172
,,,,,,,,0,0,0,0,1,0,1,0,,,,,,,,,,,,,,,,,,,,,,,,,,,,,,,,,,,,,,,,,,,,,,,,,,,,,,,,,,,,,,,left,1,70,-30,40,394.5225124,395.5225461,395.5225461,395.5225461,None,None,4,0,1.2472177,395.5225461,,,,,,,,,,,,,,,,,,,,,,,,,,,,,,,,,,,,,,,,,,,,,,,,,,,,,,,,,,,,,,,,,,,,10,6,2,2024-10-25_12h56.53.491,uWM_experiment,2022.2.3,59.98505172
,,,,,,,,0,0,0,0,2,0,2,0,,,,,,,,,,,,,,,,,,,,,,,,,,,,,,,,,,,,,,,,,,,,,,,,,,,,,,,,,,,,,,,left,1,10,-30,-20,402.7228083,403.7228528,403.7228528,403.7228528,None,None,4,0,0.9268706,403.7228528,,,,,,,,,,,,,,,,,,,,,,,,,,,,,,,,,,,,,,,,,,,,,,,,,,,,,,,,,,,,,,,,,,,,10,6,2,2024-10-25_12h56.53.491,uWM_experiment,2022.2.3,59.98505172
,,,,,,,,0,0,0,0,3,0,3,0,,,,,,,,,,,,,,,,,,,,,,,,,,,,,,,,,,,,,,,,,,,,,,,,,,,,,,,,,,,,,,,right,1,100,30,130,410.5731241,411.5731709,411.5731709,411.5731709,None,None,4,0,0.4683476,411.5731709,,,,,,,,,,,,,,,,,,,,,,,,,,,,,,,,,,,,,,,,,,,,,,,,,,,,,,,,,,,,,,,,,,,,10,6,2,2024-10-25_12h56.53.491,uWM_experiment,2022.2.3,59.98505172
,,,,,,,,0,0,0,0,4,0,4,0,,,,,,,,,,,,,,,,,,,,,,,,,,,,,,,,,,,,,,,,,,,,,,,,,,,,,,,,,,,,,,,right,1,40,30,70,417.9734303,418.9734421,418.9734421,418.9734421,None,None,4,0,0.5800293,418.9734421,,,,,,,,,,,,,,,,,,,,,,,,,,,,,,,,,,,,,,,,,,,,,,,,,,,,,,,,,,,,,,,,,,,,10,6,2,2024-10-25_12h56.53.491,uWM_experiment,2022.2.3,59.98505172
,,,,,,,,0,0,0,0,5,0,5,0,,,,,,,,,,,,,,,,,,,,,,,,,,,,,,,,,,,,,,,,,,,,,,,,,,,,,,,,,,,,,,,right,1,130,30,160,425.6070618,426.6070753,426.6070753,426.6070753,None,None,4,0,0.6905271,426.6070753,,,,,,,,,,,,,,,,,,,,,,,,,,,,,,,,,,,,,,,,,,,,,,,,,,,,,,,,,,,,,,,,,,,,10,6,2,2024-10-25_12h56.53.491,uWM_experiment,2022.2.3,59.98505172
,,,,,,,,0,0,0,0,,,,,,,,,,,,,,,,,,,,,,,,,,,,,,,,,,,,,,,,,,,,,,,,,,,,,,,,,,,,,,,,,,,,,,,,,,,,,,,,,,,,,,,,,,,,,,,,,,,,,,,,,,,,,,,,,,,,,,,,,,,,,,,,,,,,,,,,,,,,,,,,,,,,,10,6,2,2024-10-25_12h56.53.491,uWM_experiment,2022.2.3,59.98505172
,,,,,,,,,,,,,,,,,,,,,,,,,,,,,,,,,,,,,,,,,,,,,,,,,,,,,,,,,,,,,,,,,,,,,,,,,,,,,,,,,,,,,,,,,,,,,433.0406583,433.0406583,space,2.4408779,,,,,,,,,,,,,,,,,,,,,,,,,,,,,,,,,,,,,,,,,,,,,,,,,,,,,,,,,,,,,,,,10,6,2,2024-10-25_12h56.53.491,uWM_experiment,2022.2.3,59.98505172
,,,,,,,,,,,,,,,,0,0,0,0,,,,,,,,,,,,,,,,,,,,,,,,,,,,,,,,,,,,,,,,,,,,,,,,,,,,,,,,,,,,,,,,,,,,,,,,,,,,,,0.055789252,right,0,100,-30,70,1,441.3076731,441.3076731,441.3076731,None,None,3,0,1.6857345,,,,,,,,,,,,,,,,,,,,,,,,,,,,,,,,,,,,,,,,,,,,,,,,,10,6,2,2024-10-25_12h56.53.491,uWM_experiment,2022.2.3,59.98505172
,,,,,,,,,,,,,,,,1,0,1,0,,,,,,,,,,,,,,,,,,,,,,,,,,,,,,,,,,,,,,,,,,,,,,,,,,,,,,,,,,,,,,,,,,,,,,,,,,,,,,0.045789252,right,1,160,30,190,1,448.7579679,448.7579679,448.7579679,None,None,2,0,1.427483,0,,,,,,,,,,,,,,,,,,,,,,,,,,,,,,,,,,,,,,,,,,,,,,,,10,6,2,2024-10-25_12h56.53.491,uWM_experiment,2022.2.3,59.98505172
,,,,,,,,,,,,,,,,2,0,2,0,,,,,,,,,,,,,,,,,,,,,,,,,,,,,,,,,,,,,,,,,,,,,,,,,,,,,,,,,,,,,,,,,,,,,,,,,,,,,,0.1,right,1,40,30,70,2,456.0749009,456.0749009,456.0749009,None,None,4,0,0.9264614,0,,,,,,,,,,,,,,,,,,,,,,,,,,,,,,,,,,,,,,,,,,,,,,,,10,6,2,2024-10-25_12h56.53.491,uWM_experiment,2022.2.3,59.98505172
,,,,,,,,,,,,,,,,3,0,3,0,,,,,,,,,,,,,,,,,,,,,,,,,,,,,,,,,,,,,,,,,,,,,,,,,,,,,,,,,,,,,,,,,,,,,,,,,,,,,,0.035789252,right,0,70,-30,40,1,463.9252254,463.9252254,463.9252254,None,None,3,0,1.0360257,0,,,,,,,,,,,,,,,,,,,,,,,,,,,,,,,,,,,,,,,,,,,,,,,,10,6,2,2024-10-25_12h56.53.491,uWM_experiment,2022.2.3,59.98505172
,,,,,,,,,,,,,,,,4,0,4,0,,,,,,,,,,,,,,,,,,,,,,,,,,,,,,,,,,,,,,,,,,,,,,,,,,,,,,,,,,,,,,,,,,,,,,,,,,,,,,0.1,left,1,10,-30,-20,2,470.9088233,470.9088233,470.9088233,None,None,4,0,1.2523665,0,,,,,,,,,,,,,,,,,,,,,,,,,,,,,,,,,,,,,,,,,,,,,,,,10,6,2,2024-10-25_12h56.53.491,uWM_experiment,2022.2.3,59.98505172
,,,,,,,,,,,,,,,,5,0,5,0,,,,,,,,,,,,,,,,,,,,,,,,,,,,,,,,,,,,,,,,,,,,,,,,,,,,,,,,,,,,,,,,,,,,,,,,,,,,,,0.1,right,1,130,30,160,2,477.9757694,477.9757694,477.9757694,None,None,4,0,0.849459,0,,,,,,,,,,,,,,,,,,,,,,,,,,,,,,,,,,,,,,,,,,,,,,,,10,6,2,2024-10-25_12h56.53.491,uWM_experiment,2022.2.3,59.98505172
,,,,,,,,,,,,,,,,,,,,,,,,,,,,,,,,,,,,,,,,,,,,,,,,,,,,,,,,,,,,,,,,,,,,,,,,,,,,,,,,,,,,,,,,,,,,,,,,,,,,,,,,,,,,,,,,,478.8424391,479.8424847,space,2.9188194,,,,,,,,,,,,,,,,,,,,,,,,,,,,,,,,,,,,,,,,,,,,10,6,2,2024-10-25_12h56.53.491,uWM_experiment,2022.2.3,59.98505172
,,,,,,,,,,,,,,,,,,,,0,0,0,0,0,0,0,0,,,,,,,,,,,,,,,,,,,,,,,,,,,,,,,,,,,,,,,,,,,,,,,,,,,,,,,,,,,,,,,,,,,,,,0.035789252,,,,,,,,,,,,,,,,,,,,482.792604,483.4926455,483.775978,484.4760012,484.776017,485.476043,485.476043,485.8260602,right,0,40,-30,10,1,490.7429452,490.7429452,490.7429452,None,None,2,0,1.2341477,,,,,,,,,,,,,,,,,,,,,,10,6,2,2024-10-25_12h56.53.491,uWM_experiment,2022.2.3,59.98505172
,,,,,,,,,,,,,,,,,,,,0,0,0,0,1,0,1,0,,,,,,,,,,,,,,,,,,,,,,,,,,,,,,,,,,,,,,,,,,,,,,,,,,,,,,,,,,,,,,,,,,,,,,0,,,,,,,,,,,,,,,,,,,,,,,,,,,,left,1,130,-30,100,0,497.6765339,497.6765339,497.6765339,None,None,2,0,1.1805841,,,,,,,,,,,,,,,,,,,,,,10,6,2,2024-10-25_12h56.53.491,uWM_experiment,2022.2.3,59.98505172
,,,,,,,,,,,,,,,,,,,,0,0,0,0,2,0,2,0,,,,,,,,,,,,,,,,,,,,,,,,,,,,,,,,,,,,,,,,,,,,,,,,,,,,,,,,,,,,,,,,,,,,,,0.025789252,,,,,,,,,,,,,,,,,,,,,,,,,,,,left,0,70,30,100,1,504.4101403,504.4101403,504.4101403,None,None,1,1,1.3110355,,,,,,,,,,,,,,,,,,,,,,10,6,2,2024-10-25_12h56.53.491,uWM_experiment,2022.2.3,59.98505172
,,,,,,,,,,,,,,,,,,,,0,0,0,0,3,0,3,0,,,,,,,,,,,,,,,,,,,,,,,,,,,,,,,,,,,,,,,,,,,,,,,,,,,,,,,,,,,,,,,,,,,,,,0.035789252,,,,,,,,,,,,,,,,,,,,,,,,,,,,right,1,40,30,70,1,511.460411,511.460411,511.460411,None,None,1,1,0.4287068,,,,,,,,,,,,,,,,,,,,,,10,6,2,2024-10-25_12h56.53.491,uWM_experiment,2022.2.3,59.98505172
,,,,,,,,,,,,,,,,,,,,0,0,0,0,4,0,4,0,,,,,,,,,,,,,,,,,,,,,,,,,,,,,,,,,,,,,,,,,,,,,,,,,,,,,,,,,,,,,,,,,,,,,,0,,,,,,,,,,,,,,,,,,,,,,,,,,,,left,1,130,-30,100,0,517.9440005,517.9440005,517.9440005,None,None,2,0,0.6251001,,,,,,,,,,,,,,,,,,,,,,10,6,2,2024-10-25_12h56.53.491,uWM_experiment,2022.2.3,59.98505172
,,,,,,,,,,,,,,,,,,,,0,0,0,0,5,0,5,0,,,,,,,,,,,,,,,,,,,,,,,,,,,,,,,,,,,,,,,,,,,,,,,,,,,,,,,,,,,,,,,,,,,,,,0.045789252,,,,,,,,,,,,,,,,,,,,,,,,,,,,right,0,40,-30,10,1,524.1608884,524.1608884,524.1608884,None,None,1,1,0.6641968,,,,,,,,,,,,,,,,,,,,,,10,6,2,2024-10-25_12h56.53.491,uWM_experiment,2022.2.3,59.98505172
,,,,,,,,,,,,,,,,,,,,0,0,0,0,6,0,6,0,,,,,,,,,,,,,,,,,,,,,,,,,,,,,,,,,,,,,,,,,,,,,,,,,,,,,,,,,,,,,,,,,,,,,,0.055789252,,,,,,,,,,,,,,,,,,,,,,,,,,,,left,1,40,-30,10,1,530.6778097,530.6778097,530.6778097,None,None,1,1,0.4510678,,,,,,,,,,,,,,,,,,,,,,10,6,2,2024-10-25_12h56.53.491,uWM_experiment,2022.2.3,59.98505172
,,,,,,,,,,,,,,,,,,,,0,0,0,0,7,0,7,0,,,,,,,,,,,,,,,,,,,,,,,,,,,,,,,,,,,,,,,,,,,,,,,,,,,,,,,,,,,,,,,,,,,,,,0,,,,,,,,,,,,,,,,,,,,,,,,,,,,right,1,10,30,40,0,537.7447528,537.7447528,537.7447528,None,None,1,1,1.3520958,,,,,,,,,,,,,,,,,,,,,,10,6,2,2024-10-25_12h56.53.491,uWM_experiment,2022.2.3,59.98505172
,,,,,,,,,,,,,,,,,,,,0,0,0,0,8,0,8,0,,,,,,,,,,,,,,,,,,,,,,,,,,,,,,,,,,,,,,,,,,,,,,,,,,,,,,,,,,,,,,,,,,,,,,0.065789252,,,,,,,,,,,,,,,,,,,,,,,,,,,,left,0,160,30,190,1,545.5617405,545.5617405,545.5617405,None,None,1,1,0.8310984,,,,,,,,,,,,,,,,,,,,,,10,6,2,2024-10-25_12h56.53.491,uWM_experiment,2022.2.3,59.98505172
,,,,,,,,,,,,,,,,,,,,0,0,0,0,9,0,9,0,,,,,,,,,,,,,,,,,,,,,,,,,,,,,,,,,,,,,,,,,,,,,,,,,,,,,,,,,,,,,,,,,,,,,,0,,,,,,,,,,,,,,,,,,,,,,,,,,,,right,1,40,30,70,0,552.9786811,552.9786811,552.9786811,None,None,1,1,0.8382279,,,,,,,,,,,,,,,,,,,,,,10,6,2,2024-10-25_12h56.53.491,uWM_experiment,2022.2.3,59.98505172
,,,,,,,,,,,,,,,,,,,,0,0,0,0,10,0,10,0,,,,,,,,,,,,,,,,,,,,,,,,,,,,,,,,,,,,,,,,,,,,,,,,,,,,,,,,,,,,,,,,,,,,,,0.075789252,,,,,,,,,,,,,,,,,,,,,,,,,,,,left,0,70,30,100,1,560.3289861,560.3289861,560.3289861,None,None,1,1,0.495889,,,,,,,,,,,,,,,,,,,,,,10,6,2,2024-10-25_12h56.53.491,uWM_experiment,2022.2.3,59.98505172
,,,,,,,,,,,,,,,,,,,,0,0,0,0,11,0,11,0,,,,,,,,,,,,,,,,,,,,,,,,,,,,,,,,,,,,,,,,,,,,,,,,,,,,,,,,,,,,,,,,,,,,,,0.085789252,,,,,,,,,,,,,,,,,,,,,,,,,,,,right,1,130,30,160,1,566.979235,566.979235,566.979235,None,None,2,0,0.9735799,,,,,,,,,,,,,,,,,,,,,,10,6,2,2024-10-25_12h56.53.491,uWM_experiment,2022.2.3,59.98505172
,,,,,,,,,,,,,,,,,,,,0,0,0,0,12,0,12,0,,,,,,,,,,,,,,,,,,,,,,,,,,,,,,,,,,,,,,,,,,,,,,,,,,,,,,,,,,,,,,,,,,,,,,0.075789252,,,,,,,,,,,,,,,,,,,,,,,,,,,,left,1,130,-30,100,1,573.8128491,573.8128491,573.8128491,None,None,1,1,1.003838,,,,,,,,,,,,,,,,,,,,,,10,6,2,2024-10-25_12h56.53.491,uWM_experiment,2022.2.3,59.98505172
,,,,,,,,,,,,,,,,,,,,0,0,0,0,13,0,13,0,,,,,,,,,,,,,,,,,,,,,,,,,,,,,,,,,,,,,,,,,,,,,,,,,,,,,,,,,,,,,,,,,,,,,,0.085789252,,,,,,,,,,,,,,,,,,,,,,,,,,,,left,1,40,-30,10,1,580.529757,580.529757,580.529757,None,None,2,0,0.7349627,,,,,,,,,,,,,,,,,,,,,,10,6,2,2024-10-25_12h56.53.491,uWM_experiment,2022.2.3,59.98505172
,,,,,,,,,,,,,,,,,,,,0,0,0,0,14,0,14,0,,,,,,,,,,,,,,,,,,,,,,,,,,,,,,,,,,,,,,,,,,,,,,,,,,,,,,,,,,,,,,,,,,,,,,0.075789252,,,,,,,,,,,,,,,,,,,,,,,,,,,,right,1,10,30,40,1,587.1967094,587.1967094,587.1967094,None,None,2,0,0.5560193,,,,,,,,,,,,,,,,,,,,,,10,6,2,2024-10-25_12h56.53.491,uWM_experiment,2022.2.3,59.98505172
,,,,,,,,,,,,,,,,,,,,0,0,0,0,15,0,15,0,,,,,,,,,,,,,,,,,,,,,,,,,,,,,,,,,,,,,,,,,,,,,,,,,,,,,,,,,,,,,,,,,,,,,,0,,,,,,,,,,,,,,,,,,,,,,,,,,,,left,0,130,30,160,0,593.1469426,593.1469426,593.1469426,None,None,1,1,0.3257957,,,,,,,,,,,,,,,,,,,,,,10,6,2,2024-10-25_12h56.53.491,uWM_experiment,2022.2.3,59.98505172
,,,,,,,,,,,,,,,,,,,,0,0,0,0,16,0,16,0,,,,,,,,,,,,,,,,,,,,,,,,,,,,,,,,,,,,,,,,,,,,,,,,,,,,,,,,,,,,,,,,,,,,,,0,,,,,,,,,,,,,,,,,,,,,,,,,,,,right,0,100,-30,70,0,599.2138508,599.2138508,599.2138508,None,None,1,1,0.6108187,,,,,,,,,,,,,,,,,,,,,,10,6,2,2024-10-25_12h56.53.491,uWM_experiment,2022.2.3,59.98505172
,,,,,,,,,,,,,,,,,,,,0,0,0,0,17,0,17,0,,,,,,,,,,,,,,,,,,,,,,,,,,,,,,,,,,,,,,,,,,,,,,,,,,,,,,,,,,,,,,,,,,,,,,0.1,,,,,,,,,,,,,,,,,,,,,,,,,,,,right,1,10,30,40,2,605.9140962,605.9140962,605.9140962,None,None,4,0,0.3585444,,,,,,,,,,,,,,,,,,,,,,10,6,2,2024-10-25_12h56.53.491,uWM_experiment,2022.2.3,59.98505172
,,,,,,,,,,,,,,,,,,,,0,0,0,0,18,0,18,0,,,,,,,,,,,,,,,,,,,,,,,,,,,,,,,,,,,,,,,,,,,,,,,,,,,,,,,,,,,,,,,,,,,,,,0.065789252,,,,,,,,,,,,,,,,,,,,,,,,,,,,left,0,100,30,130,1,611.997683,611.997683,611.997683,None,None,1,1,0.4108707,,,,,,,,,,,,,,,,,,,,,,10,6,2,2024-10-25_12h56.53.491,uWM_experiment,2022.2.3,59.98505172
,,,,,,,,,,,,,,,,,,,,0,0,0,0,19,0,19,0,,,,,,,,,,,,,,,,,,,,,,,,,,,,,,,,,,,,,,,,,,,,,,,,,,,,,,,,,,,,,,,,,,,,,,0.075789252,,,,,,,,,,,,,,,,,,,,,,,,,,,,left,1,70,-30,40,1,618.147888,618.147888,618.147888,None,None,4,0,0.588594,,,,,,,,,,,,,,,,,,,,,,10,6,2,2024-10-25_12h56.53.491,uWM_experiment,2022.2.3,59.98505172
,,,,,,,,,,,,,,,,,,,,0,0,0,0,20,0,20,0,,,,,,,,,,,,,,,,,,,,,,,,,,,,,,,,,,,,,,,,,,,,,,,,,,,,,,,,,,,,,,,,,,,,,,0,,,,,,,,,,,,,,,,,,,,,,,,,,,,left,0,100,30,130,0,624.1814909,624.1814909,624.1814909,None,None,1,1,0.3230027,,,,,,,,,,,,,,,,,,,,,,10,6,2,2024-10-25_12h56.53.491,uWM_experiment,2022.2.3,59.98505172
,,,,,,,,,,,,,,,,,,,,0,0,0,0,21,0,21,0,,,,,,,,,,,,,,,,,,,,,,,,,,,,,,,,,,,,,,,,,,,,,,,,,,,,,,,,,,,,,,,,,,,,,,0,,,,,,,,,,,,,,,,,,,,,,,,,,,,right,1,160,30,190,0,630.0317195,630.0317195,630.0317195,None,None,1,1,0.3846239,,,,,,,,,,,,,,,,,,,,,,10,6,2,2024-10-25_12h56.53.491,uWM_experiment,2022.2.3,59.98505172
,,,,,,,,,,,,,,,,,,,,0,0,0,0,22,0,22,0,,,,,,,,,,,,,,,,,,,,,,,,,,,,,,,,,,,,,,,,,,,,,,,,,,,,,,,,,,,,,,,,,,,,,,0.065789252,,,,,,,,,,,,,,,,,,,,,,,,,,,,left,1,10,-30,-20,1,636.0486087,636.0486087,636.0486087,None,None,4,0,0.5357093,,,,,,,,,,,,,,,,,,,,,,10,6,2,2024-10-25_12h56.53.491,uWM_experiment,2022.2.3,59.98505172
,,,,,,,,,,,,,,,,,,,,0,0,0,0,23,0,23,0,,,,,,,,,,,,,,,,,,,,,,,,,,,,,,,,,,,,,,,,,,,,,,,,,,,,,,,,,,,,,,,,,,,,,,0,,,,,,,,,,,,,,,,,,,,,,,,,,,,right,0,70,-30,40,0,643.0155483,643.0155483,643.0155483,None,None,1,1,1.0728749,,,,,,,,,,,,,,,,,,,,,,10,6,2,2024-10-25_12h56.53.491,uWM_experiment,2022.2.3,59.98505172
,,,,,,,,,,,,,,,,,,,,0,0,0,0,,,,,0,0,0,0,,,,,,,,,,,,,,,,,,,,,,,,,,,,,,,,,,,,,,,,,,,,,,,,,,,,,,,,,,,,,,,,,,,,,,,,,,,,,,,,,,,,,,,,,,,,,,,,,,,,,,,,,,,,644.1155772,644.1155772,space,4.5168951,None,None,,,,,,,,,,,,,,,,10,6,2,2024-10-25_12h56.53.491,uWM_experiment,2022.2.3,59.98505172
,,,,,,,,,,,,,,,,,,,,0,0,0,0,,,,,1,0,1,0,,,,,,,,,,,,,,,,,,,,,,,,,,,,,,,,,,,,,,,,,,,,,,,,,,,,,,,,,,,,,,,,,,,,,,,,,,,,,,,,,,,,,,,,,,,,,,,,,,,,,,,,,,,,,,,,,,,,,,,,,,,,,,,,,10,6,2,2024-10-25_12h56.53.491,uWM_experiment,2022.2.3,59.98505172
,,,,,,,,,,,,,,,,,,,,0,0,0,0,,,,,2,0,2,0,,,,,,,,,,,,,,,,,,,,,,,,,,,,,,,,,,,,,,,,,,,,,,,,,,,,,,,,,,,,,,,,,,,,,,,,,,,,,,,,,,,,,,,,,,,,,,,,,,,,,,,,,,,,,,,,,,,,,,,,,,,,,,,,,10,6,2,2024-10-25_12h56.53.491,uWM_experiment,2022.2.3,59.98505172
,,,,,,,,,,,,,,,,,,,,1,0,1,0,0,0,0,0,,,,,,,,,,,,,,,,,,,,,,,,,,,,,,,,,,,,,,,,,,,,,,,,,,,,,,,,,,,,,,,,,,,,,,0.055789252,,,,,,,,,,,,,,,,,,,,648.6657622,649.3657899,649.6658032,650.3658348,650.6658453,651.365869,651.365869,651.6825557,left,1,130,-30,100,1,656.2494111,656.2494111,656.2494111,None,None,1,1,0.2949454,,,,,,,None,,,,,,,,,,,,,,,10,6,2,2024-10-25_12h56.53.491,uWM_experiment,2022.2.3,59.98505172
,,,,,,,,,,,,,,,,,,,,1,0,1,0,1,0,1,0,,,,,,,,,,,,,,,,,,,,,,,,,,,,,,,,,,,,,,,,,,,,,,,,,,,,,,,,,,,,,,,,,,,,,,0.065789252,,,,,,,,,,,,,,,,,,,,,,,,,,,,right,0,70,-30,40,1,662.3496578,662.3496578,662.3496578,None,None,1,1,0.5146646,,,,,,,,,,,,,,,,,,,,,,10,6,2,2024-10-25_12h56.53.491,uWM_experiment,2022.2.3,59.98505172
,,,,,,,,,,,,,,,,,,,,1,0,1,0,2,0,2,0,,,,,,,,,,,,,,,,,,,,,,,,,,,,,,,,,,,,,,,,,,,,,,,,,,,,,,,,,,,,,,,,,,,,,,0.075789252,,,,,,,,,,,,,,,,,,,,,,,,,,,,right,1,130,30,160,1,668.5498689,668.5498689,668.5498689,None,None,3,0,0.7783275,,,,,,,,,,,,,,,,,,,,,,10,6,2,2024-10-25_12h56.53.491,uWM_experiment,2022.2.3,59.98505172
,,,,,,,,,,,,,,,,,,,,1,0,1,0,3,0,3,0,,,,,,,,,,,,,,,,,,,,,,,,,,,,,,,,,,,,,,,,,,,,,,,,,,,,,,,,,,,,,,,,,,,,,,0.1,,,,,,,,,,,,,,,,,,,,,,,,,,,,right,1,10,30,40,2,675.0501482,675.0501482,675.0501482,None,None,4,0,0.3900652,,,,,,,,,,,,,,,,,,,,,,10,6,2,2024-10-25_12h56.53.491,uWM_experiment,2022.2.3,59.98505172
,,,,,,,,,,,,,,,,,,,,1,0,1,0,4,0,4,0,,,,,,,,,,,,,,,,,,,,,,,,,,,,,,,,,,,,,,,,,,,,,,,,,,,,,,,,,,,,,,,,,,,,,,0.065789252,,,,,,,,,,,,,,,,,,,,,,,,,,,,left,1,10,-30,-20,1,681.2170586,681.2170586,681.2170586,None,None,3,0,0.9671335,,,,,,,,,,,,,,,,,,,,,,10,6,2,2024-10-25_12h56.53.491,uWM_experiment,2022.2.3,59.98505172
,,,,,,,,,,,,,,,,,,,,1,0,1,0,5,0,5,0,,,,,,,,,,,,,,,,,,,,,,,,,,,,,,,,,,,,,,,,,,,,,,,,,,,,,,,,,,,,,,,,,,,,,,0.055789252,,,,,,,,,,,,,,,,,,,,,,,,,,,,right,1,100,30,130,1,688.4673572,688.4673572,688.4673572,None,None,2,0,0.5727999,,,,,,,,,,,,,,,,,,,,,,10,6,2,2024-10-25_12h56.53.491,uWM_experiment,2022.2.3,59.98505172
,,,,,,,,,,,,,,,,,,,,1,0,1,0,6,0,6,0,,,,,,,,,,,,,,,,,,,,,,,,,,,,,,,,,,,,,,,,,,,,,,,,,,,,,,,,,,,,,,,,,,,,,,0.045789252,,,,,,,,,,,,,,,,,,,,,,,,,,,,right,0,100,-30,70,1,694.517594,694.517594,694.517594,None,None,1,1,0.282479,,,,,,,,,,,,,,,,,,,,,,10,6,2,2024-10-25_12h56.53.491,uWM_experiment,2022.2.3,59.98505172
,,,,,,,,,,,,,,,,,,,,1,0,1,0,7,0,7,0,,,,,,,,,,,,,,,,,,,,,,,,,,,,,,,,,,,,,,,,,,,,,,,,,,,,,,,,,,,,,,,,,,,,,,0.055789252,,,,,,,,,,,,,,,,,,,,,,,,,,,,right,0,70,-30,40,1,700.3678009,700.3678009,700.3678009,None,None,1,1,0.2962012,,,,,,,,,,,,,,,,,,,,,,10,6,2,2024-10-25_12h56.53.491,uWM_experiment,2022.2.3,59.98505172
,,,,,,,,,,,,,,,,,,,,1,0,1,0,8,0,8,0,,,,,,,,,,,,,,,,,,,,,,,,,,,,,,,,,,,,,,,,,,,,,,,,,,,,,,,,,,,,,,,,,,,,,,0,,,,,,,,,,,,,,,,,,,,,,,,,,,,right,0,40,-30,10,0,706.3180298,706.3180298,706.3180298,None,None,2,0,0.4019222,,,,,,,,,,,,,,,,,,,,,,10,6,2,2024-10-25_12h56.53.491,uWM_experiment,2022.2.3,59.98505172
,,,,,,,,,,,,,,,,,,,,1,0,1,0,9,0,9,0,,,,,,,,,,,,,,,,,,,,,,,,,,,,,,,,,,,,,,,,,,,,,,,,,,,,,,,,,,,,,,,,,,,,,,0.065789252,,,,,,,,,,,,,,,,,,,,,,,,,,,,right,0,70,-30,40,1,712.6016167,712.6016167,712.6016167,None,None,2,0,0.1663591,,,,,,,,,,,,,,,,,,,,,,10,6,2,2024-10-25_12h56.53.491,uWM_experiment,2022.2.3,59.98505172
,,,,,,,,,,,,,,,,,,,,1,0,1,0,10,0,10,0,,,,,,,,,,,,,,,,,,,,,,,,,,,,,,,,,,,,,,,,,,,,,,,,,,,,,,,,,,,,,,,,,,,,,,0,,,,,,,,,,,,,,,,,,,,,,,,,,,,right,0,70,-30,40,0,718.3351801,718.3351801,718.3351801,None,None,1,1,1.5847561,,,,,,,,,,,,,,,,,,,,,,10,6,2,2024-10-25_12h56.53.491,uWM_experiment,2022.2.3,59.98505172
,,,,,,,,,,,,,,,,,,,,1,0,1,0,11,0,11,0,,,,,,,,,,,,,,,,,,,,,,,,,,,,,,,,,,,,,,,,,,,,,,,,,,,,,,,,,,,,,,,,,,,,,,0.055789252,,,,,,,,,,,,,,,,,,,,,,,,,,,,left,0,100,30,130,1,725.6521044,725.6521044,725.6521044,None,None,1,1,1.2837882,,,,,,,,,,,,,,,,,,,,,,10,6,2,2024-10-25_12h56.53.491,uWM_experiment,2022.2.3,59.98505172
,,,,,,,,,,,,,,,,,,,,1,0,1,0,12,0,12,0,,,,,,,,,,,,,,,,,,,,,,,,,,,,,,,,,,,,,,,,,,,,,,,,,,,,,,,,,,,,,,,,,,,,,,0,,,,,,,,,,,,,,,,,,,,,,,,,,,,right,0,70,-30,40,0,732.4523956,732.4523956,732.4523956,None,None,1,1,0.4593941,,,,,,,,,,,,,,,,,,,,,,10,6,2,2024-10-25_12h56.53.491,uWM_experiment,2022.2.3,59.98505172
,,,,,,,,,,,,,,,,,,,,1,0,1,0,13,0,13,0,,,,,,,,,,,,,,,,,,,,,,,,,,,,,,,,,,,,,,,,,,,,,,,,,,,,,,,,,,,,,,,,,,,,,,0,,,,,,,,,,,,,,,,,,,,,,,,,,,,right,1,10,30,40,0,738.3692763,738.3692763,738.3692763,None,None,1,1,0.2864913,,,,,,,,,,,,,,,,,,,,,,10,6,2,2024-10-25_12h56.53.491,uWM_experiment,2022.2.3,59.98505172
,,,,,,,,,,,,,,,,,,,,1,0,1,0,14,0,14,0,,,,,,,,,,,,,,,,,,,,,,,,,,,,,,,,,,,,,,,,,,,,,,,,,,,,,,,,,,,,,,,,,,,,,,0.065789252,,,,,,,,,,,,,,,,,,,,,,,,,,,,left,0,100,30,130,1,744.4528521,744.4528521,744.4528521,None,None,1,1,0.1548801,,,,,,,,,,,,,,,,,,,,,,10,6,2,2024-10-25_12h56.53.491,uWM_experiment,2022.2.3,59.98505172
,,,,,,,,,,,,,,,,,,,,1,0,1,0,15,0,15,0,,,,,,,,,,,,,,,,,,,,,,,,,,,,,,,,,,,,,,,,,,,,,,,,,,,,,,,,,,,,,,,,,,,,,,0.075789252,,,,,,,,,,,,,,,,,,,,,,,,,,,,left,1,130,-30,100,1,750.3030843,750.3030843,750.3030843,None,None,2,0,0.608707,,,,,,,,,,,,,,,,,,,,,,10,6,2,2024-10-25_12h56.53.491,uWM_experiment,2022.2.3,59.98505172
,,,,,,,,,,,,,,,,,,,,1,0,1,0,16,0,16,0,,,,,,,,,,,,,,,,,,,,,,,,,,,,,,,,,,,,,,,,,,,,,,,,,,,,,,,,,,,,,,,,,,,,,,0.065789252,,,,,,,,,,,,,,,,,,,,,,,,,,,,left,1,40,-30,10,1,756.4366759,756.4366759,756.4366759,None,None,2,0,0.9151493,,,,,,,,,,,,,,,,,,,,,,10,6,2,2024-10-25_12h56.53.491,uWM_experiment,2022.2.3,59.98505172
,,,,,,,,,,,,,,,,,,,,1,0,1,0,17,0,17,0,,,,,,,,,,,,,,,,,,,,,,,,,,,,,,,,,,,,,,,,,,,,,,,,,,,,,,,,,,,,,,,,,,,,,,0.055789252,,,,,,,,,,,,,,,,,,,,,,,,,,,,left,1,10,-30,-20,1,762.9702651,762.9702651,762.9702651,None,None,1,1,0.9494501,,,,,,,,,,,,,,,,,,,,,,10,6,2,2024-10-25_12h56.53.491,uWM_experiment,2022.2.3,59.98505172
,,,,,,,,,,,,,,,,,,,,1,0,1,0,18,0,18,0,,,,,,,,,,,,,,,,,,,,,,,,,,,,,,,,,,,,,,,,,,,,,,,,,,,,,,,,,,,,,,,,,,,,,,0.065789252,,,,,,,,,,,,,,,,,,,,,,,,,,,,left,1,10,-30,-20,1,770.0372016,770.0372016,770.0372016,None,None,2,0,0.5863892,,,,,,,,,,,,,,,,,,,,,,10,6,2,2024-10-25_12h56.53.491,uWM_experiment,2022.2.3,59.98505172
,,,,,,,,,,,,,,,,,,,,1,0,1,0,19,0,19,0,,,,,,,,,,,,,,,,,,,,,,,,,,,,,,,,,,,,,,,,,,,,,,,,,,,,,,,,,,,,,,,,,,,,,,0.055789252,,,,,,,,,,,,,,,,,,,,,,,,,,,,left,1,160,-30,130,1,777.3541453,777.3541453,777.3541453,None,None,2,0,1.9575663,,,,,,,,,,,,,,,,,,,,,,10,6,2,2024-10-25_12h56.53.491,uWM_experiment,2022.2.3,59.98505172
,,,,,,,,,,,,,,,,,,,,1,0,1,0,20,0,20,0,,,,,,,,,,,,,,,,,,,,,,,,,,,,,,,,,,,,,,,,,,,,,,,,,,,,,,,,,,,,,,,,,,,,,,0.045789252,,,,,,,,,,,,,,,,,,,,,,,,,,,,left,0,100,30,130,1,784.7544516,784.7544516,784.7544516,None,None,1,1,0.1891783,,,,,,,,,,,,,,,,,,,,,,10,6,2,2024-10-25_12h56.53.491,uWM_experiment,2022.2.3,59.98505172
,,,,,,,,,,,,,,,,,,,,1,0,1,0,21,0,21,0,,,,,,,,,,,,,,,,,,,,,,,,,,,,,,,,,,,,,,,,,,,,,,,,,,,,,,,,,,,,,,,,,,,,,,0,,,,,,,,,,,,,,,,,,,,,,,,,,,,right,1,10,30,40,0,790.2546568,790.2546568,790.2546568,None,None,1,1,0.2729247,,,,,,,,,,,,,,,,,,,,,,10,6,2,2024-10-25_12h56.53.491,uWM_experiment,2022.2.3,59.98505172
,,,,,,,,,,,,,,,,,,,,1,0,1,0,22,0,22,0,,,,,,,,,,,,,,,,,,,,,,,,,,,,,,,,,,,,,,,,,,,,,,,,,,,,,,,,,,,,,,,,,,,,,,0.055789252,,,,,,,,,,,,,,,,,,,,,,,,,,,,left,0,100,30,130,1,795.9548928,795.9548928,795.9548928,None,None,1,1,0.2286221,,,,,,,,,,,,,,,,,,,,,,10,6,2,2024-10-25_12h56.53.491,uWM_experiment,2022.2.3,59.98505172
,,,,,,,,,,,,,,,,,,,,1,0,1,0,23,0,23,0,,,,,,,,,,,,,,,,,,,,,,,,,,,,,,,,,,,,,,,,,,,,,,,,,,,,,,,,,,,,,,,,,,,,,,0.065789252,,,,,,,,,,,,,,,,,,,,,,,,,,,,right,1,40,30,70,1,801.6551291,801.6551291,801.6551291,None,None,1,1,0.8803917,,,,,,,,,,,,,,,,,,,,,,10,6,2,2024-10-25_12h56.53.491,uWM_experiment,2022.2.3,59.98505172
,,,,,,,,,,,,,,,,,,,,1,0,1,0,,,,,0,0,0,0,,,,,,,,,,,,,,,,,,,,,,,,,,,,,,,,,,,,,,,,,,,,,,,,,,,,,,,,,,,,,,,,,,,,,,,,,,,,,,,,,,,,,,,,,,,,,,,,,,,,,,,,,,,,802.5551109,802.5551109,space,4.2763697,None,None,,,,,,,,,,,,,,,,10,6,2,2024-10-25_12h56.53.491,uWM_experiment,2022.2.3,59.98505172
,,,,,,,,,,,,,,,,,,,,1,0,1,0,,,,,1,0,1,0,,,,,,,,,,,,,,,,,,,,,,,,,,,,,,,,,,,,,,,,,,,,,,,,,,,,,,,,,,,,,,,,,,,,,,,,,,,,,,,,,,,,,,,,,,,,,,,,,,,,,,,,,,,,,,,,,,,,,,,,,,,,,,,,,10,6,2,2024-10-25_12h56.53.491,uWM_experiment,2022.2.3,59.98505172
,,,,,,,,,,,,,,,,,,,,1,0,1,0,,,,,2,0,2,0,,,,,,,,,,,,,,,,,,,,,,,,,,,,,,,,,,,,,,,,,,,,,,,,,,,,,,,,,,,,,,,,,,,,,,,,,,,,,,,,,,,,,,,,,,,,,,,,,,,,,,,,,,,,,,,,,,,,,,,,,,,,,,,,,10,6,2,2024-10-25_12h56.53.491,uWM_experiment,2022.2.3,59.98505172
,,,,,,,,,,,,,,,,,,,,2,0,2,0,0,0,0,0,,,,,,,,,,,,,,,,,,,,,,,,,,,,,,,,,,,,,,,,,,,,,,,,,,,,,,,,,,,,,,,,,,,,,,0,,,,,,,,,,,,,,,,,,,,806.8552973,807.5553216,807.8553322,808.5553607,808.8553954,809.5553998,809.5553998,809.8720868,right,0,100,-30,70,0,815.022287,815.022287,815.022287,None,None,1,1,1.3772068,,,,,,,None,,,,,,,,,,,,,,,10,6,2,2024-10-25_12h56.53.491,uWM_experiment,2022.2.3,59.98505172
,,,,,,,,,,,,,,,,,,,,2,0,2,0,1,0,1,0,,,,,,,,,,,,,,,,,,,,,,,,,,,,,,,,,,,,,,,,,,,,,,,,,,,,,,,,,,,,,,,,,,,,,,0.075789252,,,,,,,,,,,,,,,,,,,,,,,,,,,,left,0,160,30,190,1,822.1392473,822.1392473,822.1392473,None,None,1,1,0.5402126,,,,,,,,,,,,,,,,,,,,,,10,6,2,2024-10-25_12h56.53.491,uWM_experiment,2022.2.3,59.98505172
,,,,,,,,,,,,,,,,,,,,2,0,2,0,2,0,2,0,,,,,,,,,,,,,,,,,,,,,,,,,,,,,,,,,,,,,,,,,,,,,,,,,,,,,,,,,,,,,,,,,,,,,,0.085789252,,,,,,,,,,,,,,,,,,,,,,,,,,,,right,1,130,30,160,1,829.9895812,829.9895812,829.9895812,None,None,2,0,0.745864,,,,,,,,,,,,,,,,,,,,,,10,6,2,2024-10-25_12h56.53.491,uWM_experiment,2022.2.3,59.98505172
,,,,,,,,,,,,,,,,,,,,2,0,2,0,3,0,3,0,,,,,,,,,,,,,,,,,,,,,,,,,,,,,,,,,,,,,,,,,,,,,,,,,,,,,,,,,,,,,,,,,,,,,,0,,,,,,,,,,,,,,,,,,,,,,,,,,,,left,0,100,30,130,0,836.1064437,836.1064437,836.1064437,None,None,1,1,0.3007941,,,,,,,,,,,,,,,,,,,,,,10,6,2,2024-10-25_12h56.53.491,uWM_experiment,2022.2.3,59.98505172
,,,,,,,,,,,,,,,,,,,,2,0,2,0,4,0,4,0,,,,,,,,,,,,,,,,,,,,,,,,,,,,,,,,,,,,,,,,,,,,,,,,,,,,,,,,,,,,,,,,,,,,,,0,,,,,,,,,,,,,,,,,,,,,,,,,,,,left,0,100,30,130,0,842.4233757,842.4233757,842.4233757,None,None,2,0,0.8559623,,,,,,,,,,,,,,,,,,,,,,10,6,2,2024-10-25_12h56.53.491,uWM_experiment,2022.2.3,59.98505172
,,,,,,,,,,,,,,,,,,,,2,0,2,0,5,0,5,0,,,,,,,,,,,,,,,,,,,,,,,,,,,,,,,,,,,,,,,,,,,,,,,,,,,,,,,,,,,,,,,,,,,,,,0.1,,,,,,,,,,,,,,,,,,,,,,,,,,,,left,0,70,30,100,2,850.0070131,850.0070131,850.0070131,None,None,4,0,0.376194,,,,,,,,,,,,,,,,,,,,,,10,6,2,2024-10-25_12h56.53.491,uWM_experiment,2022.2.3,59.98505172
,,,,,,,,,,,,,,,,,,,,2,0,2,0,6,0,6,0,,,,,,,,,,,,,,,,,,,,,,,,,,,,,,,,,,,,,,,,,,,,,,,,,,,,,,,,,,,,,,,,,,,,,,0.075789252,,,,,,,,,,,,,,,,,,,,,,,,,,,,right,1,40,30,70,1,856.440578,856.440578,856.440578,None,None,4,0,0.6946407,,,,,,,,,,,,,,,,,,,,,,10,6,2,2024-10-25_12h56.53.491,uWM_experiment,2022.2.3,59.98505172
,,,,,,,,,,,,,,,,,,,,2,0,2,0,7,0,7,0,,,,,,,,,,,,,,,,,,,,,,,,,,,,,,,,,,,,,,,,,,,,,,,,,,,,,,,,,,,,,,,,,,,,,,0.065789252,,,,,,,,,,,,,,,,,,,,,,,,,,,,right,1,40,30,70,1,862.807514,862.807514,862.807514,None,None,3,0,0.5437228,,,,,,,,,,,,,,,,,,,,,,10,6,2,2024-10-25_12h56.53.491,uWM_experiment,2022.2.3,59.98505172
,,,,,,,,,,,,,,,,,,,,2,0,2,0,8,0,8,0,,,,,,,,,,,,,,,,,,,,,,,,,,,,,,,,,,,,,,,,,,,,,,,,,,,,,,,,,,,,,,,,,,,,,,0,,,,,,,,,,,,,,,,,,,,,,,,,,,,left,0,70,30,100,0,869.4244378,869.4244378,869.4244378,None,None,1,1,0.6148096,,,,,,,,,,,,,,,,,,,,,,10,6,2,2024-10-25_12h56.53.491,uWM_experiment,2022.2.3,59.98505172
,,,,,,,,,,,,,,,,,,,,2,0,2,0,9,0,9,0,,,,,,,,,,,,,,,,,,,,,,,,,,,,,,,,,,,,,,,,,,,,,,,,,,,,,,,,,,,,,,,,,,,,,,0.055789252,,,,,,,,,,,,,,,,,,,,,,,,,,,,right,1,10,30,40,1,875.5246528,875.5246528,875.5246528,None,None,1,1,0.2664709,,,,,,,,,,,,,,,,,,,,,,10,6,2,2024-10-25_12h56.53.491,uWM_experiment,2022.2.3,59.98505172
,,,,,,,,,,,,,,,,,,,,2,0,2,0,10,0,10,0,,,,,,,,,,,,,,,,,,,,,,,,,,,,,,,,,,,,,,,,,,,,,,,,,,,,,,,,,,,,,,,,,,,,,,0.065789252,,,,,,,,,,,,,,,,,,,,,,,,,,,,left,1,130,-30,100,1,881.6082478,881.6082478,881.6082478,None,None,1,1,1.5988095,,,,,,,,,,,,,,,,,,,,,,10,6,2,2024-10-25_12h56.53.491,uWM_experiment,2022.2.3,59.98505172
,,,,,,,,,,,,,,,,,,,,2,0,2,0,11,0,11,0,,,,,,,,,,,,,,,,,,,,,,,,,,,,,,,,,,,,,,,,,,,,,,,,,,,,,,,,,,,,,,,,,,,,,,0.075789252,,,,,,,,,,,,,,,,,,,,,,,,,,,,right,1,10,30,40,1,890.2752506,890.2752506,890.2752506,None,None,3,0,7.5078567,,,,,,,,,,,,,,,,,,,,,,10,6,2,2024-10-25_12h56.53.491,uWM_experiment,2022.2.3,59.98505172
,,,,,,,,,,,,,,,,,,,,2,0,2,0,12,0,12,0,,,,,,,,,,,,,,,,,,,,,,,,,,,,,,,,,,,,,,,,,,,,,,,,,,,,,,,,,,,,,,,,,,,,,,0.065789252,,,,,,,,,,,,,,,,,,,,,,,,,,,,right,1,40,30,70,1,903.5090805,903.5090805,903.5090805,None,None,1,1,0.353849,,,,,,,,,,,,,,,,,,,,,,10,6,2,2024-10-25_12h56.53.491,uWM_experiment,2022.2.3,59.98505172
,,,,,,,,,,,,,,,,,,,,2,0,2,0,13,0,13,0,,,,,,,,,,,,,,,,,,,,,,,,,,,,,,,,,,,,,,,,,,,,,,,,,,,,,,,,,,,,,,,,,,,,,,0,,,,,,,,,,,,,,,,,,,,,,,,,,,,left,0,160,30,190,0,910.5093844,910.5093844,910.5093844,None,None,1,1,0.4174807,,,,,,,,,,,,,,,,,,,,,,10,6,2,2024-10-25_12h56.53.491,uWM_experiment,2022.2.3,59.98505172
,,,,,,,,,,,,,,,,,,,,2,0,2,0,14,0,14,0,,,,,,,,,,,,,,,,,,,,,,,,,,,,,,,,,,,,,,,,,,,,,,,,,,,,,,,,,,,,,,,,,,,,,,0.075789252,,,,,,,,,,,,,,,,,,,,,,,,,,,,left,0,100,30,130,1,917.9596512,917.9596512,917.9596512,None,None,1,1,1.0792851,,,,,,,,,,,,,,,,,,,,,,10,6,2,2024-10-25_12h56.53.491,uWM_experiment,2022.2.3,59.98505172
,,,,,,,,,,,,,,,,,,,,2,0,2,0,15,0,15,0,,,,,,,,,,,,,,,,,,,,,,,,,,,,,,,,,,,,,,,,,,,,,,,,,,,,,,,,,,,,,,,,,,,,,,0.085789252,,,,,,,,,,,,,,,,,,,,,,,,,,,,left,1,10,-30,-20,1,925.0932672,925.0932672,925.0932672,None,None,2,0,0.6896087,,,,,,,,,,,,,,,,,,,,,,10,6,2,2024-10-25_12h56.53.491,uWM_experiment,2022.2.3,59.98505172
,,,,,,,,,,,,,,,,,,,,2,0,2,0,16,0,16,0,,,,,,,,,,,,,,,,,,,,,,,,,,,,,,,,,,,,,,,,,,,,,,,,,,,,,,,,,,,,,,,,,,,,,,0.075789252,,,,,,,,,,,,,,,,,,,,,,,,,,,,left,1,130,-30,100,1,931.8601996,931.8601996,931.8601996,None,None,2,0,2.1065801,,,,,,,,,,,,,,,,,,,,,,10,6,2,2024-10-25_12h56.53.491,uWM_experiment,2022.2.3,59.98505172
,,,,,,,,,,,,,,,,,,,,2,0,2,0,17,0,17,0,,,,,,,,,,,,,,,,,,,,,,,,,,,,,,,,,,,,,,,,,,,,,,,,,,,,,,,,,,,,,,,,,,,,,,0.065789252,,,,,,,,,,,,,,,,,,,,,,,,,,,,left,0,100,30,130,1,939.4105117,939.4105117,939.4105117,None,None,1,1,0.6282527,,,,,,,,,,,,,,,,,,,,,,10,6,2,2024-10-25_12h56.53.491,uWM_experiment,2022.2.3,59.98505172
,,,,,,,,,,,,,,,,,,,,2,0,2,0,18,0,18,0,,,,,,,,,,,,,,,,,,,,,,,,,,,,,,,,,,,,,,,,,,,,,,,,,,,,,,,,,,,,,,,,,,,,,,0.075789252,,,,,,,,,,,,,,,,,,,,,,,,,,,,left,1,160,-30,130,1,945.7440906,945.7440906,945.7440906,None,None,1,1,0.7985838,,,,,,,,,,,,,,,,,,,,,,10,6,2,2024-10-25_12h56.53.491,uWM_experiment,2022.2.3,59.98505172
,,,,,,,,,,,,,,,,,,,,2,0,2,0,19,0,19,0,,,,,,,,,,,,,,,,,,,,,,,,,,,,,,,,,,,,,,,,,,,,,,,,,,,,,,,,,,,,,,,,,,,,,,0.085789252,,,,,,,,,,,,,,,,,,,,,,,,,,,,left,1,130,-30,100,1,951.8776459,951.8776459,951.8776459,None,None,2,0,0.4331246,,,,,,,,,,,,,,,,,,,,,,10,6,2,2024-10-25_12h56.53.491,uWM_experiment,2022.2.3,59.98505172
,,,,,,,,,,,,,,,,,,,,2,0,2,0,20,0,20,0,,,,,,,,,,,,,,,,,,,,,,,,,,,,,,,,,,,,,,,,,,,,,,,,,,,,,,,,,,,,,,,,,,,,,,0.075789252,,,,,,,,,,,,,,,,,,,,,,,,,,,,right,1,10,30,40,1,958.761265,958.761265,958.761265,None,None,1,1,1.0774836,,,,,,,,,,,,,,,,,,,,,,10,6,2,2024-10-25_12h56.53.491,uWM_experiment,2022.2.3,59.98505172
,,,,,,,,,,,,,,,,,,,,2,0,2,0,21,0,21,0,,,,,,,,,,,,,,,,,,,,,,,,,,,,,,,,,,,,,,,,,,,,,,,,,,,,,,,,,,,,,,,,,,,,,,0,,,,,,,,,,,,,,,,,,,,,,,,,,,,left,1,10,-30,-20,0,967.994971,967.994971,967.994971,None,None,1,1,0.8597082,,,,,,,,,,,,,,,,,,,,,,10,6,2,2024-10-25_12h56.53.491,uWM_experiment,2022.2.3,59.98505172
,,,,,,,,,,,,,,,,,,,,2,0,2,0,22,0,22,0,,,,,,,,,,,,,,,,,,,,,,,,,,,,,,,,,,,,,,,,,,,,,,,,,,,,,,,,,,,,,,,,,,,,,,0.085789252,,,,,,,,,,,,,,,,,,,,,,,,,,,,right,1,10,30,40,1,975.1619013,975.1619013,975.1619013,None,None,4,0,0.7406647,,,,,,,,,,,,,,,,,,,,,,10,6,2,2024-10-25_12h56.53.491,uWM_experiment,2022.2.3,59.98505172
,,,,,,,,,,,,,,,,,,,,2,0,2,0,23,0,23,0,,,,,,,,,,,,,,,,,,,,,,,,,,,,,,,,,,,,,,,,,,,,,,,,,,,,,,,,,,,,,,,,,,,,,,0,,,,,,,,,,,,,,,,,,,,,,,,,,,,right,0,100,-30,70,0,981.2621539,981.2621539,981.2621539,None,None,1,1,0.4244489,,,,,,,,,,,,,,,,,,,,,,10,6,2,2024-10-25_12h56.53.491,uWM_experiment,2022.2.3,59.98505172
,,,,,,,,,,,,,,,,,,,,2,0,2,0,,,,,0,0,0,0,,,,,,,,,,,,,,,,,,,,,,,,,,,,,,,,,,,,,,,,,,,,,,,,,,,,,,,,,,,,,,,,,,,,,,,,,,,,,,,,,,,,,,,,,,,,,,,,,,,,,,,,,,,,981.712138,981.712138,space,25.238313,space,None,,1006.979822,1006.979822,5.5466051,,,,,,,,,,,,10,6,2,2024-10-25_12h56.53.491,uWM_experiment,2022.2.3,59.98505172
,,,,,,,,,,,,,,,,,,,,2,0,2,0,,,,,1,0,1,0,,,,,,,,,,,,,,,,,,,,,,,,,,,,,,,,,,,,,,,,,,,,,,,,,,,,,,,,,,,,,,,,,,,,,,,,,,,,,,,,,,,,,,,,,,,,,,,,,,,,,,,,,,,,,,,,,,,,,,,,,,,,,,,,,10,6,2,2024-10-25_12h56.53.491,uWM_experiment,2022.2.3,59.98505172
,,,,,,,,,,,,,,,,,,,,2,0,2,0,,,,,2,0,2,0,,,,,,,,,,,,,,,,,,,,,,,,,,,,,,,,,,,,,,,,,,,,,,,,,,,,,,,,,,,,,,,,,,,,,,,,,,,,,,,,,,,,,,,,,,,,,,,,,,,,,,,,,,,,,,,,,,,,,,,,,,,,,,,,,10,6,2,2024-10-25_12h56.53.491,uWM_experiment,2022.2.3,59.98505172
,,,,,,,,,,,,,,,,,,,,3,0,3,0,0,0,0,0,,,,,,,,,,,,,,,,,,,,,,,,,,,,,,,,,,,,,,,,,,,,,,,,,,,,,,,,,,,,,,,,,,,,,,0.075789252,,,,,,,,,,,,,,,,,,,,1012.546691,1013.246716,1013.546726,1014.246757,1014.546767,1015.246795,1015.246795,1015.563503,right,0,100,-30,70,1,1020.263666,1020.263666,1020.263666,None,None,1,1,0.4705875,,,,,,,None,,,,,,,,,,,,,,,10,6,2,2024-10-25_12h56.53.491,uWM_experiment,2022.2.3,59.98505172
,,,,,,,,,,,,,,,,,,,,3,0,3,0,1,0,1,0,,,,,,,,,,,,,,,,,,,,,,,,,,,,,,,,,,,,,,,,,,,,,,,,,,,,,,,,,,,,,,,,,,,,,,0.085789252,,,,,,,,,,,,,,,,,,,,,,,,,,,,left,0,100,30,130,1,1026.480567,1026.480567,1026.480567,None,None,1,1,0.3176926,,,,,,,,,,,,,,,,,,,,,,10,6,2,2024-10-25_12h56.53.491,uWM_experiment,2022.2.3,59.98505172
,,,,,,,,,,,,,,,,,,,,3,0,3,0,2,0,2,0,,,,,,,,,,,,,,,,,,,,,,,,,,,,,,,,,,,,,,,,,,,,,,,,,,,,,,,,,,,,,,,,,,,,,,0.095789252,,,,,,,,,,,,,,,,,,,,,,,,,,,,right,0,40,-30,10,1,1033.397516,1033.397516,1033.397516,None,None,1,1,0.288731,,,,,,,,,,,,,,,,,,,,,,10,6,2,2024-10-25_12h56.53.491,uWM_experiment,2022.2.3,59.98505172
,,,,,,,,,,,,,,,,,,,,3,0,3,0,3,0,3,0,,,,,,,,,,,,,,,,,,,,,,,,,,,,,,,,,,,,,,,,,,,,,,,,,,,,,,,,,,,,,,,,,,,,,,0.105789252,,,,,,,,,,,,,,,,,,,,,,,,,,,,right,1,160,30,190,1,1039.397756,1039.397756,1039.397756,None,None,1,1,0.2964993,,,,,,,,,,,,,,,,,,,,,,10,6,2,2024-10-25_12h56.53.491,uWM_experiment,2022.2.3,59.98505172
,,,,,,,,,,,,,,,,,,,,3,0,3,0,4,0,4,0,,,,,,,,,,,,,,,,,,,,,,,,,,,,,,,,,,,,,,,,,,,,,,,,,,,,,,,,,,,,,,,,,,,,,,0,,,,,,,,,,,,,,,,,,,,,,,,,,,,left,1,10,-30,-20,0,1046.248015,1046.248015,1046.248015,None,None,1,1,0.3742342,,,,,,,,,,,,,,,,,,,,,,10,6,2,2024-10-25_12h56.53.491,uWM_experiment,2022.2.3,59.98505172
,,,,,,,,,,,,,,,,,,,,3,0,3,0,5,0,5,0,,,,,,,,,,,,,,,,,,,,,,,,,,,,,,,,,,,,,,,,,,,,,,,,,,,,,,,,,,,,,,,,,,,,,,0,,,,,,,,,,,,,,,,,,,,,,,,,,,,right,1,10,30,40,0,1053.031619,1053.031619,1053.031619,None,None,2,0,0.4864521,,,,,,,,,,,,,,,,,,,,,,10,6,2,2024-10-25_12h56.53.491,uWM_experiment,2022.2.3,59.98505172
,,,,,,,,,,,,,,,,,,,,3,0,3,0,6,0,6,0,,,,,,,,,,,,,,,,,,,,,,,,,,,,,,,,,,,,,,,,,,,,,,,,,,,,,,,,,,,,,,,,,,,,,,0,,,,,,,,,,,,,,,,,,,,,,,,,,,,left,0,70,30,100,0,1059.848565,1059.848565,1059.848565,None,None,1,1,0.5736048,,,,,,,,,,,,,,,,,,,,,,10,6,2,2024-10-25_12h56.53.491,uWM_experiment,2022.2.3,59.98505172
,,,,,,,,,,,,,,,,,,,,3,0,3,0,7,0,7,0,,,,,,,,,,,,,,,,,,,,,,,,,,,,,,,,,,,,,,,,,,,,,,,,,,,,,,,,,,,,,,,,,,,,,,0.1,,,,,,,,,,,,,,,,,,,,,,,,,,,,left,1,70,-30,40,2,1066.848838,1066.848838,1066.848838,None,None,4,0,0.5252896,,,,,,,,,,,,,,,,,,,,,,10,6,2,2024-10-25_12h56.53.491,uWM_experiment,2022.2.3,59.98505172
,,,,,,,,,,,,,,,,,,,,3,0,3,0,8,0,8,0,,,,,,,,,,,,,,,,,,,,,,,,,,,,,,,,,,,,,,,,,,,,,,,,,,,,,,,,,,,,,,,,,,,,,,0,,,,,,,,,,,,,,,,,,,,,,,,,,,,left,0,100,30,130,0,1073.232417,1073.232417,1073.232417,None,None,1,1,0.4535341,,,,,,,,,,,,,,,,,,,,,,10,6,2,2024-10-25_12h56.53.491,uWM_experiment,2022.2.3,59.98505172
,,,,,,,,,,,,,,,,,,,,3,0,3,0,9,0,9,0,,,,,,,,,,,,,,,,,,,,,,,,,,,,,,,,,,,,,,,,,,,,,,,,,,,,,,,,,,,,,,,,,,,,,,0,,,,,,,,,,,,,,,,,,,,,,,,,,,,left,0,70,30,100,0,1080.749374,1080.749374,1080.749374,None,None,1,1,0.4805875,,,,,,,,,,,,,,,,,,,,,,10,6,2,2024-10-25_12h56.53.491,uWM_experiment,2022.2.3,59.98505172
,,,,,,,,,,,,,,,,,,,,3,0,3,0,10,0,10,0,,,,,,,,,,,,,,,,,,,,,,,,,,,,,,,,,,,,,,,,,,,,,,,,,,,,,,,,,,,,,,,,,,,,,,0.115789252,,,,,,,,,,,,,,,,,,,,,,,,,,,,right,1,10,30,40,1,1087.59963,1087.59963,1087.59963,None,None,3,0,0.3502804,,,,,,,,,,,,,,,,,,,,,,10,6,2,2024-10-25_12h56.53.491,uWM_experiment,2022.2.3,59.98505172
,,,,,,,,,,,,,,,,,,,,3,0,3,0,11,0,11,0,,,,,,,,,,,,,,,,,,,,,,,,,,,,,,,,,,,,,,,,,,,,,,,,,,,,,,,,,,,,,,,,,,,,,,0,,,,,,,,,,,,,,,,,,,,,,,,,,,,left,0,130,30,160,0,1093.766565,1093.766565,1093.766565,None,None,1,1,0.3032542,,,,,,,,,,,,,,,,,,,,,,10,6,2,2024-10-25_12h56.53.491,uWM_experiment,2022.2.3,59.98505172
,,,,,,,,,,,,,,,,,,,,3,0,3,0,12,0,12,0,,,,,,,,,,,,,,,,,,,,,,,,,,,,,,,,,,,,,,,,,,,,,,,,,,,,,,,,,,,,,,,,,,,,,,0.105789252,,,,,,,,,,,,,,,,,,,,,,,,,,,,left,1,160,-30,130,1,1100.583463,1100.583463,1100.583463,None,None,1,1,0.4465495,,,,,,,,,,,,,,,,,,,,,,10,6,2,2024-10-25_12h56.53.491,uWM_experiment,2022.2.3,59.98505172
,,,,,,,,,,,,,,,,,,,,3,0,3,0,13,0,13,0,,,,,,,,,,,,,,,,,,,,,,,,,,,,,,,,,,,,,,,,,,,,,,,,,,,,,,,,,,,,,,,,,,,,,,0.115789252,,,,,,,,,,,,,,,,,,,,,,,,,,,,left,1,160,-30,130,1,1107.317057,1107.317057,1107.317057,None,None,1,1,0.2087847,,,,,,,,,,,,,,,,,,,,,,10,6,2,2024-10-25_12h56.53.491,uWM_experiment,2022.2.3,59.98505172
,,,,,,,,,,,,,,,,,,,,3,0,3,0,14,0,14,0,,,,,,,,,,,,,,,,,,,,,,,,,,,,,,,,,,,,,,,,,,,,,,,,,,,,,,,,,,,,,,,,,,,,,,0.125789252,,,,,,,,,,,,,,,,,,,,,,,,,,,,right,1,40,30,70,1,1114.300692,1114.300692,1114.300692,None,None,2,0,0.3530258,,,,,,,,,,,,,,,,,,,,,,10,6,2,2024-10-25_12h56.53.491,uWM_experiment,2022.2.3,59.98505172
,,,,,,,,,,,,,,,,,,,,3,0,3,0,15,0,15,0,,,,,,,,,,,,,,,,,,,,,,,,,,,,,,,,,,,,,,,,,,,,,,,,,,,,,,,,,,,,,,,,,,,,,,0.115789252,,,,,,,,,,,,,,,,,,,,,,,,,,,,left,1,40,-30,10,1,1120.284275,1120.284275,1120.284275,None,None,2,0,0.457563,,,,,,,,,,,,,,,,,,,,,,10,6,2,2024-10-25_12h56.53.491,uWM_experiment,2022.2.3,59.98505172
,,,,,,,,,,,,,,,,,,,,3,0,3,0,16,0,16,0,,,,,,,,,,,,,,,,,,,,,,,,,,,,,,,,,,,,,,,,,,,,,,,,,,,,,,,,,,,,,,,,,,,,,,0.105789252,,,,,,,,,,,,,,,,,,,,,,,,,,,,left,0,70,30,100,1,1127.301198,1127.301198,1127.301198,None,None,2,0,0.3524734,,,,,,,,,,,,,,,,,,,,,,10,6,2,2024-10-25_12h56.53.491,uWM_experiment,2022.2.3,59.98505172
,,,,,,,,,,,,,,,,,,,,3,0,3,0,17,0,17,0,,,,,,,,,,,,,,,,,,,,,,,,,,,,,,,,,,,,,,,,,,,,,,,,,,,,,,,,,,,,,,,,,,,,,,0.095789252,,,,,,,,,,,,,,,,,,,,,,,,,,,,right,0,100,-30,70,1,1133.234766,1133.234766,1133.234766,None,None,1,1,0.2509432,,,,,,,,,,,,,,,,,,,,,,10,6,2,2024-10-25_12h56.53.491,uWM_experiment,2022.2.3,59.98505172
,,,,,,,,,,,,,,,,,,,,3,0,3,0,18,0,18,0,,,,,,,,,,,,,,,,,,,,,,,,,,,,,,,,,,,,,,,,,,,,,,,,,,,,,,,,,,,,,,,,,,,,,,0.105789252,,,,,,,,,,,,,,,,,,,,,,,,,,,,left,1,70,-30,40,1,1139.01837,1139.01837,1139.01837,None,None,2,0,0.4113554,,,,,,,,,,,,,,,,,,,,,,10,6,2,2024-10-25_12h56.53.491,uWM_experiment,2022.2.3,59.98505172
,,,,,,,,,,,,,,,,,,,,3,0,3,0,19,0,19,0,,,,,,,,,,,,,,,,,,,,,,,,,,,,,,,,,,,,,,,,,,,,,,,,,,,,,,,,,,,,,,,,,,,,,,0.095789252,,,,,,,,,,,,,,,,,,,,,,,,,,,,left,0,130,30,160,1,1144.935233,1144.935233,1144.935233,None,None,1,1,0.3584696,,,,,,,,,,,,,,,,,,,,,,10,6,2,2024-10-25_12h56.53.491,uWM_experiment,2022.2.3,59.98505172
,,,,,,,,,,,,,,,,,,,,3,0,3,0,20,0,20,0,,,,,,,,,,,,,,,,,,,,,,,,,,,,,,,,,,,,,,,,,,,,,,,,,,,,,,,,,,,,,,,,,,,,,,0,,,,,,,,,,,,,,,,,,,,,,,,,,,,right,1,40,30,70,0,1151.385472,1151.385472,1151.385472,None,None,1,1,0.7641983,,,,,,,,,,,,,,,,,,,,,,10,6,2,2024-10-25_12h56.53.491,uWM_experiment,2022.2.3,59.98505172
,,,,,,,,,,,,,,,,,,,,3,0,3,0,21,0,21,0,,,,,,,,,,,,,,,,,,,,,,,,,,,,,,,,,,,,,,,,,,,,,,,,,,,,,,,,,,,,,,,,,,,,,,0.105789252,,,,,,,,,,,,,,,,,,,,,,,,,,,,right,1,160,30,190,1,1158.602458,1158.602458,1158.602458,None,None,2,0,0.915155,,,,,,,,,,,,,,,,,,,,,,10,6,2,2024-10-25_12h56.53.491,uWM_experiment,2022.2.3,59.98505172
,,,,,,,,,,,,,,,,,,,,3,0,3,0,22,0,22,0,,,,,,,,,,,,,,,,,,,,,,,,,,,,,,,,,,,,,,,,,,,,,,,,,,,,,,,,,,,,,,,,,,,,,,0.095789252,,,,,,,,,,,,,,,,,,,,,,,,,,,,left,1,10,-30,-20,1,1165.202707,1165.202707,1165.202707,None,None,1,1,0.3308604,,,,,,,,,,,,,,,,,,,,,,10,6,2,2024-10-25_12h56.53.491,uWM_experiment,2022.2.3,59.98505172
,,,,,,,,,,,,,,,,,,,,3,0,3,0,23,0,23,0,,,,,,,,,,,,,,,,,,,,,,,,,,,,,,,,,,,,,,,,,,,,,,,,,,,,,,,,,,,,,,,,,,,,,,0.105789252,,,,,,,,,,,,,,,,,,,,,,,,,,,,left,1,100,-30,70,1,1171.186272,1171.186272,1171.186272,None,None,1,1,0.8031807,,,,,,,,,,,,,,,,,,,,,,10,6,2,2024-10-25_12h56.53.491,uWM_experiment,2022.2.3,59.98505172
,,,,,,,,,,,,,,,,,,,,3,0,3,0,,,,,0,0,0,0,,,,,,,,,,,,,,,,,,,,,,,,,,,,,,,,,,,,,,,,,,,,,,,,,,,,,,,,,,,,,,,,,,,,,,,,,,,,,,,,,,,,,,,,,,,,,,,,,,,,,,,,,,,,1172.019616,1172.019616,space,20.737852,None,None,,,,,,,,,,,,,,,,10,6,2,2024-10-25_12h56.53.491,uWM_experiment,2022.2.3,59.98505172
,,,,,,,,,,,,,,,,,,,,3,0,3,0,,,,,1,0,1,0,,,,,,,,,,,,,,,,,,,,,,,,,,,,,,,,,,,,,,,,,,,,,,,,,,,,,,,,,,,,,,,,,,,,,,,,,,,,,,,,,,,,,,,,,,,,,,,,,,,,,,,,,,,,,,,,,,,,,,,,,,,,,,,,,10,6,2,2024-10-25_12h56.53.491,uWM_experiment,2022.2.3,59.98505172
,,,,,,,,,,,,,,,,,,,,3,0,3,0,,,,,2,0,2,0,,,,,,,,,,,,,,,,,,,,,,,,,,,,,,,,,,,,,,,,,,,,,,,,,,,,,,,,,,,,,,,,,,,,,,,,,,,,,,,,,,,,,,,,,,,,,,,,,,,,,,,,,,,,,,,,,,,,,,,,,,,,,,,,,10,6,2,2024-10-25_12h56.53.491,uWM_experiment,2022.2.3,59.98505172
,,,,,,,,,,,,,,,,,,,,4,0,4,0,0,0,0,0,,,,,,,,,,,,,,,,,,,,,,,,,,,,,,,,,,,,,,,,,,,,,,,,,,,,,,,,,,,,,,,,,,,,,,0.1,,,,,,,,,,,,,,,,,,,,1192.787094,1193.487132,1193.787148,1194.487167,1194.787169,1195.487212,1195.487212,1195.803899,right,1,10,30,40,2,1200.73742,1200.73742,1200.73742,None,None,4,0,0.2838244,,,,,,,None,,,,,,,,,,,,,,,10,6,2,2024-10-25_12h56.53.491,uWM_experiment,2022.2.3,59.98505172
,,,,,,,,,,,,,,,,,,,,4,0,4,0,1,0,1,0,,,,,,,,,,,,,,,,,,,,,,,,,,,,,,,,,,,,,,,,,,,,,,,,,,,,,,,,,,,,,,,,,,,,,,0.115789252,,,,,,,,,,,,,,,,,,,,,,,,,,,,right,1,40,30,70,1,1206.870997,1206.870997,1206.870997,None,None,3,0,0.8062766,,,,,,,,,,,,,,,,,,,,,,10,6,2,2024-10-25_12h56.53.491,uWM_experiment,2022.2.3,59.98505172
,,,,,,,,,,,,,,,,,,,,4,0,4,0,2,0,2,0,,,,,,,,,,,,,,,,,,,,,,,,,,,,,,,,,,,,,,,,,,,,,,,,,,,,,,,,,,,,,,,,,,,,,,0.1,,,,,,,,,,,,,,,,,,,,,,,,,,,,left,1,10,-30,-20,2,1213.687909,1213.687909,1213.687909,None,None,4,0,0.3653785,,,,,,,,,,,,,,,,,,,,,,10,6,2,2024-10-25_12h56.53.491,uWM_experiment,2022.2.3,59.98505172
,,,,,,,,,,,,,,,,,,,,4,0,4,0,3,0,3,0,,,,,,,,,,,,,,,,,,,,,,,,,,,,,,,,,,,,,,,,,,,,,,,,,,,,,,,,,,,,,,,,,,,,,,0.105789252,,,,,,,,,,,,,,,,,,,,,,,,,,,,left,1,160,-30,130,1,1219.888171,1219.888171,1219.888171,None,None,2,0,0.8529749,,,,,,,,,,,,,,,,,,,,,,10,6,2,2024-10-25_12h56.53.491,uWM_experiment,2022.2.3,59.98505172
,,,,,,,,,,,,,,,,,,,,4,0,4,0,4,0,4,0,,,,,,,,,,,,,,,,,,,,,,,,,,,,,,,,,,,,,,,,,,,,,,,,,,,,,,,,,,,,,,,,,,,,,,0.1,,,,,,,,,,,,,,,,,,,,,,,,,,,,right,1,10,30,40,2,1226.505084,1226.505084,1226.505084,None,None,4,0,0.3880124,,,,,,,,,,,,,,,,,,,,,,10,6,2,2024-10-25_12h56.53.491,uWM_experiment,2022.2.3,59.98505172
,,,,,,,,,,,,,,,,,,,,4,0,4,0,5,0,5,0,,,,,,,,,,,,,,,,,,,,,,,,,,,,,,,,,,,,,,,,,,,,,,,,,,,,,,,,,,,,,,,,,,,,,,0.095789252,,,,,,,,,,,,,,,,,,,,,,,,,,,,right,1,160,30,190,1,1234.838736,1234.838736,1234.838736,None,None,3,0,0.7104595,,,,,,,,,,,,,,,,,,,,,,10,6,2,2024-10-25_12h56.53.491,uWM_experiment,2022.2.3,59.98505172
,,,,,,,,,,,,,,,,,,,,4,0,4,0,6,0,6,0,,,,,,,,,,,,,,,,,,,,,,,,,,,,,,,,,,,,,,,,,,,,,,,,,,,,,,,,,,,,,,,,,,,,,,0.085789252,,,,,,,,,,,,,,,,,,,,,,,,,,,,right,1,130,30,160,1,1241.722367,1241.722367,1241.722367,None,None,2,0,0.2747934,,,,,,,,,,,,,,,,,,,,,,10,6,2,2024-10-25_12h56.53.491,uWM_experiment,2022.2.3,59.98505172
,,,,,,,,,,,,,,,,,,,,4,0,4,0,7,0,7,0,,,,,,,,,,,,,,,,,,,,,,,,,,,,,,,,,,,,,,,,,,,,,,,,,,,,,,,,,,,,,,,,,,,,,,0,,,,,,,,,,,,,,,,,,,,,,,,,,,,left,1,10,-30,-20,0,1249.822673,1249.822673,1249.822673,None,None,2,0,0.8863909,,,,,,,,,,,,,,,,,,,,,,10,6,2,2024-10-25_12h56.53.491,uWM_experiment,2022.2.3,59.98505172
,,,,,,,,,,,,,,,,,,,,4,0,4,0,8,0,8,0,,,,,,,,,,,,,,,,,,,,,,,,,,,,,,,,,,,,,,,,,,,,,,,,,,,,,,,,,,,,,,,,,,,,,,0,,,,,,,,,,,,,,,,,,,,,,,,,,,,right,1,40,30,70,0,1257.322953,1257.322953,1257.322953,None,None,1,1,0.4580662,,,,,,,,,,,,,,,,,,,,,,10,6,2,2024-10-25_12h56.53.491,uWM_experiment,2022.2.3,59.98505172
,,,,,,,,,,,,,,,,,,,,4,0,4,0,9,0,9,0,,,,,,,,,,,,,,,,,,,,,,,,,,,,,,,,,,,,,,,,,,,,,,,,,,,,,,,,,,,,,,,,,,,,,,0.075789252,,,,,,,,,,,,,,,,,,,,,,,,,,,,right,1,40,30,70,1,1263.906549,1263.906549,1263.906549,None,None,1,1,0.2584627,,,,,,,,,,,,,,,,,,,,,,10,6,2,2024-10-25_12h56.53.491,uWM_experiment,2022.2.3,59.98505172
,,,,,,,,,,,,,,,,,,,,4,0,4,0,10,0,10,0,,,,,,,,,,,,,,,,,,,,,,,,,,,,,,,,,,,,,,,,,,,,,,,,,,,,,,,,,,,,,,,,,,,,,,0.085789252,,,,,,,,,,,,,,,,,,,,,,,,,,,,left,1,10,-30,-20,1,1270.956847,1270.956847,1270.956847,None,None,1,1,0.2160404,,,,,,,,,,,,,,,,,,,,,,10,6,2,2024-10-25_12h56.53.491,uWM_experiment,2022.2.3,59.98505172
,,,,,,,,,,,,,,,,,,,,4,0,4,0,11,0,11,0,,,,,,,,,,,,,,,,,,,,,,,,,,,,,,,,,,,,,,,,,,,,,,,,,,,,,,,,,,,,,,,,,,,,,,0.095789252,,,,,,,,,,,,,,,,,,,,,,,,,,,,left,0,130,30,160,1,1278.123786,1278.123786,1278.123786,None,None,1,1,0.2731714,,,,,,,,,,,,,,,,,,,,,,10,6,2,2024-10-25_12h56.53.491,uWM_experiment,2022.2.3,59.98505172
,,,,,,,,,,,,,,,,,,,,4,0,4,0,12,0,12,0,,,,,,,,,,,,,,,,,,,,,,,,,,,,,,,,,,,,,,,,,,,,,,,,,,,,,,,,,,,,,,,,,,,,,,0.105789252,,,,,,,,,,,,,,,,,,,,,,,,,,,,left,1,10,-30,-20,1,1285.824067,1285.824067,1285.824067,None,None,1,1,0.2927971,,,,,,,,,,,,,,,,,,,,,,10,6,2,2024-10-25_12h56.53.491,uWM_experiment,2022.2.3,59.98505172
,,,,,,,,,,,,,,,,,,,,4,0,4,0,13,0,13,0,,,,,,,,,,,,,,,,,,,,,,,,,,,,,,,,,,,,,,,,,,,,,,,,,,,,,,,,,,,,,,,,,,,,,,0,,,,,,,,,,,,,,,,,,,,,,,,,,,,left,0,100,30,130,0,1295.157774,1295.157774,1295.157774,None,None,1,1,1.111064,,,,,,,,,,,,,,,,,,,,,,10,6,2,2024-10-25_12h56.53.491,uWM_experiment,2022.2.3,59.98505172
,,,,,,,,,,,,,,,,,,,,4,0,4,0,14,0,14,0,,,,,,,,,,,,,,,,,,,,,,,,,,,,,,,,,,,,,,,,,,,,,,,,,,,,,,,,,,,,,,,,,,,,,,0,,,,,,,,,,,,,,,,,,,,,,,,,,,,left,0,100,30,130,0,1302.308073,1302.308073,1302.308073,None,None,1,1,0.4088214,,,,,,,,,,,,,,,,,,,,,,10,6,2,2024-10-25_12h56.53.491,uWM_experiment,2022.2.3,59.98505172
,,,,,,,,,,,,,,,,,,,,4,0,4,0,15,0,15,0,,,,,,,,,,,,,,,,,,,,,,,,,,,,,,,,,,,,,,,,,,,,,,,,,,,,,,,,,,,,,,,,,,,,,,0.115789252,,,,,,,,,,,,,,,,,,,,,,,,,,,,right,0,70,-30,40,1,1310.875065,1310.875065,1310.875065,None,None,1,1,0.7056595,,,,,,,,,,,,,,,,,,,,,,10,6,2,2024-10-25_12h56.53.491,uWM_experiment,2022.2.3,59.98505172
,,,,,,,,,,,,,,,,,,,,4,0,4,0,16,0,16,0,,,,,,,,,,,,,,,,,,,,,,,,,,,,,,,,,,,,,,,,,,,,,,,,,,,,,,,,,,,,,,,,,,,,,,0.125789252,,,,,,,,,,,,,,,,,,,,,,,,,,,,right,1,160,30,190,1,1321.908823,1321.908823,1321.908823,None,None,1,1,0.7759284,,,,,,,,,,,,,,,,,,,,,,10,6,2,2024-10-25_12h56.53.491,uWM_experiment,2022.2.3,59.98505172
,,,,,,,,,,,,,,,,,,,,4,0,4,0,17,0,17,0,,,,,,,,,,,,,,,,,,,,,,,,,,,,,,,,,,,,,,,,,,,,,,,,,,,,,,,,,,,,,,,,,,,,,,0.135789252,,,,,,,,,,,,,,,,,,,,,,,,,,,,right,1,130,30,160,1,1328.459072,1328.459072,1328.459072,None,None,2,0,0.3135431,,,,,,,,,,,,,,,,,,,,,,10,6,2,2024-10-25_12h56.53.491,uWM_experiment,2022.2.3,59.98505172
,,,,,,,,,,,,,,,,,,,,4,0,4,0,18,0,18,0,,,,,,,,,,,,,,,,,,,,,,,,,,,,,,,,,,,,,,,,,,,,,,,,,,,,,,,,,,,,,,,,,,,,,,0.1,,,,,,,,,,,,,,,,,,,,,,,,,,,,left,1,130,-30,100,2,1335.559366,1335.559366,1335.559366,None,None,4,0,0.3812329,,,,,,,,,,,,,,,,,,,,,,10,6,2,2024-10-25_12h56.53.491,uWM_experiment,2022.2.3,59.98505172
,,,,,,,,,,,,,,,,,,,,4,0,4,0,19,0,19,0,,,,,,,,,,,,,,,,,,,,,,,,,,,,,,,,,,,,,,,,,,,,,,,,,,,,,,,,,,,,,,,,,,,,,,0.125789252,,,,,,,,,,,,,,,,,,,,,,,,,,,,left,1,160,-30,130,1,1341.776275,1341.776275,1341.776275,None,None,2,0,0.7962909,,,,,,,,,,,,,,,,,,,,,,10,6,2,2024-10-25_12h56.53.491,uWM_experiment,2022.2.3,59.98505172
,,,,,,,,,,,,,,,,,,,,4,0,4,0,20,0,20,0,,,,,,,,,,,,,,,,,,,,,,,,,,,,,,,,,,,,,,,,,,,,,,,,,,,,,,,,,,,,,,,,,,,,,,0.115789252,,,,,,,,,,,,,,,,,,,,,,,,,,,,right,0,100,-30,70,1,1348.259855,1348.259855,1348.259855,None,None,1,1,0.2886122,,,,,,,,,,,,,,,,,,,,,,10,6,2,2024-10-25_12h56.53.491,uWM_experiment,2022.2.3,59.98505172
,,,,,,,,,,,,,,,,,,,,4,0,4,0,21,0,21,0,,,,,,,,,,,,,,,,,,,,,,,,,,,,,,,,,,,,,,,,,,,,,,,,,,,,,,,,,,,,,,,,,,,,,,0.125789252,,,,,,,,,,,,,,,,,,,,,,,,,,,,left,0,70,30,100,1,1354.676785,1354.676785,1354.676785,None,None,1,1,0.6237818,,,,,,,,,,,,,,,,,,,,,,10,6,2,2024-10-25_12h56.53.491,uWM_experiment,2022.2.3,59.98505172
,,,,,,,,,,,,,,,,,,,,4,0,4,0,22,0,22,0,,,,,,,,,,,,,,,,,,,,,,,,,,,,,,,,,,,,,,,,,,,,,,,,,,,,,,,,,,,,,,,,,,,,,,0,,,,,,,,,,,,,,,,,,,,,,,,,,,,right,1,130,30,160,0,1362.227076,1362.227076,1362.227076,None,None,1,1,2.2414437,,,,,,,,,,,,,,,,,,,,,,10,6,2,2024-10-25_12h56.53.491,uWM_experiment,2022.2.3,59.98505172
,,,,,,,,,,,,,,,,,,,,4,0,4,0,23,0,23,0,,,,,,,,,,,,,,,,,,,,,,,,,,,,,,,,,,,,,,,,,,,,,,,,,,,,,,,,,,,,,,,,,,,,,,0,,,,,,,,,,,,,,,,,,,,,,,,,,,,right,1,160,30,190,0,1371.67745,1371.67745,1371.67745,None,None,2,0,0.8629686,,,,,,,,,,,,,,,,,,,,,,10,6,2,2024-10-25_12h56.53.491,uWM_experiment,2022.2.3,59.98505172
,,,,,,,,,,,,,,,,,,,,4,0,4,0,,,,,0,0,0,0,,,,,,,,,,,,,,,,,,,,,,,,,,,,,,,,,,,,,,,,,,,,,,,,,,,,,,,,,,,,,,,,,,,,,,,,,,,,,,,,,,,,,,,,,,,,,,,,,,,,,,,,,,,,1372.560786,1372.560786,space,26.9475896,None,None,,,,,,,,,,,,,,,,10,6,2,2024-10-25_12h56.53.491,uWM_experiment,2022.2.3,59.98505172
,,,,,,,,,,,,,,,,,,,,4,0,4,0,,,,,1,0,1,0,,,,,,,,,,,,,,,,,,,,,,,,,,,,,,,,,,,,,,,,,,,,,,,,,,,,,,,,,,,,,,,,,,,,,,,,,,,,,,,,,,,,,,,,,,,,,,,,,,,,,,,,,,,,,,,,,,,,,,,,,,,,,,,,,10,6,2,2024-10-25_12h56.53.491,uWM_experiment,2022.2.3,59.98505172
,,,,,,,,,,,,,,,,,,,,4,0,4,0,,,,,2,0,2,0,,,,,,,,,,,,,,,,,,,,,,,,,,,,,,,,,,,,,,,,,,,,,,,,,,,,,,,,,,,,,,,,,,,,,,,,,,,,,,,,,,,,,,,,,,,,,,,,,,,,,,,,,,,,,,,,,,,,,,,,,,,,,,,,,10,6,2,2024-10-25_12h56.53.491,uWM_experiment,2022.2.3,59.98505172
,,,,,,,,,,,,,,,,,,,,5,0,5,0,0,0,0,0,,,,,,,,,,,,,,,,,,,,,,,,,,,,,,,,,,,,,,,,,,,,,,,,,,,,,,,,,,,,,,,,,,,,,,0.135789252,,,,,,,,,,,,,,,,,,,,1399.528526,1400.228546,1400.528559,1401.22859,1401.528598,1402.228717,1402.228717,1402.545368,left,1,130,-30,100,1,1407.212187,1407.212187,1407.212187,None,None,2,0,0.3839477,,,,,,,None,,,,,,,,,,,,,,,10,6,2,2024-10-25_12h56.53.491,uWM_experiment,2022.2.3,59.98505172
,,,,,,,,,,,,,,,,,,,,5,0,5,0,1,0,1,0,,,,,,,,,,,,,,,,,,,,,,,,,,,,,,,,,,,,,,,,,,,,,,,,,,,,,,,,,,,,,,,,,,,,,,0.125789252,,,,,,,,,,,,,,,,,,,,,,,,,,,,right,0,70,-30,40,1,1413.979114,1413.979114,1413.979114,None,None,2,0,0.6810474,,,,,,,,,,,,,,,,,,,,,,10,6,2,2024-10-25_12h56.53.491,uWM_experiment,2022.2.3,59.98505172
,,,,,,,,,,,,,,,,,,,,5,0,5,0,2,0,2,0,,,,,,,,,,,,,,,,,,,,,,,,,,,,,,,,,,,,,,,,,,,,,,,,,,,,,,,,,,,,,,,,,,,,,,0.115789252,,,,,,,,,,,,,,,,,,,,,,,,,,,,left,1,160,-30,130,1,1420.346025,1420.346025,1420.346025,None,None,1,1,0.3220345,,,,,,,,,,,,,,,,,,,,,,10,6,2,2024-10-25_12h56.53.491,uWM_experiment,2022.2.3,59.98505172
,,,,,,,,,,,,,,,,,,,,5,0,5,0,3,0,3,0,,,,,,,,,,,,,,,,,,,,,,,,,,,,,,,,,,,,,,,,,,,,,,,,,,,,,,,,,,,,,,,,,,,,,,0.125789252,,,,,,,,,,,,,,,,,,,,,,,,,,,,right,1,160,30,190,1,1426.346252,1426.346252,1426.346252,None,None,1,1,0.6739433,,,,,,,,,,,,,,,,,,,,,,10,6,2,2024-10-25_12h56.53.491,uWM_experiment,2022.2.3,59.98505172
,,,,,,,,,,,,,,,,,,,,5,0,5,0,4,0,4,0,,,,,,,,,,,,,,,,,,,,,,,,,,,,,,,,,,,,,,,,,,,,,,,,,,,,,,,,,,,,,,,,,,,,,,0.135789252,,,,,,,,,,,,,,,,,,,,,,,,,,,,left,0,70,30,100,1,1432.646893,1432.646893,1432.646893,None,None,1,1,0.4850746,,,,,,,,,,,,,,,,,,,,,,10,6,2,2024-10-25_12h56.53.491,uWM_experiment,2022.2.3,59.98505172
,,,,,,,,,,,,,,,,,,,,5,0,5,0,5,0,5,0,,,,,,,,,,,,,,,,,,,,,,,,,,,,,,,,,,,,,,,,,,,,,,,,,,,,,,,,,,,,,,,,,,,,,,0.145789252,,,,,,,,,,,,,,,,,,,,,,,,,,,,left,1,70,-30,40,1,1438.846738,1438.846738,1438.846738,None,None,2,0,0.4053034,,,,,,,,,,,,,,,,,,,,,,10,6,2,2024-10-25_12h56.53.491,uWM_experiment,2022.2.3,59.98505172
,,,,,,,,,,,,,,,,,,,,5,0,5,0,6,0,6,0,,,,,,,,,,,,,,,,,,,,,,,,,,,,,,,,,,,,,,,,,,,,,,,,,,,,,,,,,,,,,,,,,,,,,,0.1,,,,,,,,,,,,,,,,,,,,,,,,,,,,right,1,130,30,160,2,1444.996979,1444.996979,1444.996979,None,None,4,0,0.4230685,,,,,,,,,,,,,,,,,,,,,,10,6,2,2024-10-25_12h56.53.491,uWM_experiment,2022.2.3,59.98505172
,,,,,,,,,,,,,,,,,,,,5,0,5,0,7,0,7,0,,,,,,,,,,,,,,,,,,,,,,,,,,,,,,,,,,,,,,,,,,,,,,,,,,,,,,,,,,,,,,,,,,,,,,0.135789252,,,,,,,,,,,,,,,,,,,,,,,,,,,,left,1,40,-30,10,1,1451.563916,1451.563916,1451.563916,None,None,3,0,0.5921147,,,,,,,,,,,,,,,,,,,,,,10,6,2,2024-10-25_12h56.53.491,uWM_experiment,2022.2.3,59.98505172
,,,,,,,,,,,,,,,,,,,,5,0,5,0,8,0,8,0,,,,,,,,,,,,,,,,,,,,,,,,,,,,,,,,,,,,,,,,,,,,,,,,,,,,,,,,,,,,,,,,,,,,,,0.125789252,,,,,,,,,,,,,,,,,,,,,,,,,,,,right,1,100,30,130,1,1457.697491,1457.697491,1457.697491,None,None,3,0,0.6183749,,,,,,,,,,,,,,,,,,,,,,10,6,2,2024-10-25_12h56.53.491,uWM_experiment,2022.2.3,59.98505172
,,,,,,,,,,,,,,,,,,,,5,0,5,0,9,0,9,0,,,,,,,,,,,,,,,,,,,,,,,,,,,,,,,,,,,,,,,,,,,,,,,,,,,,,,,,,,,,,,,,,,,,,,0.115789252,,,,,,,,,,,,,,,,,,,,,,,,,,,,left,1,130,-30,100,1,1463.831054,1463.831054,1463.831054,None,None,2,0,0.3648158,,,,,,,,,,,,,,,,,,,,,,10,6,2,2024-10-25_12h56.53.491,uWM_experiment,2022.2.3,59.98505172
,,,,,,,,,,,,,,,,,,,,5,0,5,0,10,0,10,0,,,,,,,,,,,,,,,,,,,,,,,,,,,,,,,,,,,,,,,,,,,,,,,,,,,,,,,,,,,,,,,,,,,,,,0.105789252,,,,,,,,,,,,,,,,,,,,,,,,,,,,right,1,40,30,70,1,1471.714695,1471.714695,1471.714695,None,None,3,0,0.5531042,,,,,,,,,,,,,,,,,,,,,,10,6,2,2024-10-25_12h56.53.491,uWM_experiment,2022.2.3,59.98505172
,,,,,,,,,,,,,,,,,,,,5,0,5,0,11,0,11,0,,,,,,,,,,,,,,,,,,,,,,,,,,,,,,,,,,,,,,,,,,,,,,,,,,,,,,,,,,,,,,,,,,,,,,0.095789252,,,,,,,,,,,,,,,,,,,,,,,,,,,,left,0,130,30,160,1,1478.348285,1478.348285,1478.348285,None,None,1,1,0.4316155,,,,,,,,,,,,,,,,,,,,,,10,6,2,2024-10-25_12h56.53.491,uWM_experiment,2022.2.3,59.98505172
,,,,,,,,,,,,,,,,,,,,5,0,5,0,12,0,12,0,,,,,,,,,,,,,,,,,,,,,,,,,,,,,,,,,,,,,,,,,,,,,,,,,,,,,,,,,,,,,,,,,,,,,,0.105789252,,,,,,,,,,,,,,,,,,,,,,,,,,,,right,1,40,30,70,1,1485.298575,1485.298575,1485.298575,None,None,2,0,0.5212851,,,,,,,,,,,,,,,,,,,,,,10,6,2,2024-10-25_12h56.53.491,uWM_experiment,2022.2.3,59.98505172
,,,,,,,,,,,,,,,,,,,,5,0,5,0,13,0,13,0,,,,,,,,,,,,,,,,,,,,,,,,,,,,,,,,,,,,,,,,,,,,,,,,,,,,,,,,,,,,,,,,,,,,,,0,,,,,,,,,,,,,,,,,,,,,,,,,,,,right,1,40,30,70,0,1493.09888,1493.09888,1493.09888,None,None,1,1,0.5289048,,,,,,,,,,,,,,,,,,,,,,10,6,2,2024-10-25_12h56.53.491,uWM_experiment,2022.2.3,59.98505172
,,,,,,,,,,,,,,,,,,,,5,0,5,0,14,0,14,0,,,,,,,,,,,,,,,,,,,,,,,,,,,,,,,,,,,,,,,,,,,,,,,,,,,,,,,,,,,,,,,,,,,,,,0.095789252,,,,,,,,,,,,,,,,,,,,,,,,,,,,left,1,40,-30,10,1,1500.549151,1500.549151,1500.549151,None,None,1,1,0.6945788,,,,,,,,,,,,,,,,,,,,,,10,6,2,2024-10-25_12h56.53.491,uWM_experiment,2022.2.3,59.98505172
,,,,,,,,,,,,,,,,,,,,5,0,5,0,15,0,15,0,,,,,,,,,,,,,,,,,,,,,,,,,,,,,,,,,,,,,,,,,,,,,,,,,,,,,,,,,,,,,,,,,,,,,,0.105789252,,,,,,,,,,,,,,,,,,,,,,,,,,,,right,1,10,30,40,1,1510.882915,1510.882915,1510.882915,None,None,1,1,0.7206586,,,,,,,,,,,,,,,,,,,,,,10,6,2,2024-10-25_12h56.53.491,uWM_experiment,2022.2.3,59.98505172
,,,,,,,,,,,,,,,,,,,,5,0,5,0,16,0,16,0,,,,,,,,,,,,,,,,,,,,,,,,,,,,,,,,,,,,,,,,,,,,,,,,,,,,,,,,,,,,,,,,,,,,,,0.1,,,,,,,,,,,,,,,,,,,,,,,,,,,,left,1,40,-30,10,2,1517.899862,1517.899862,1517.899862,None,None,4,0,0.4397597,,,,,,,,,,,,,,,,,,,,,,10,6,2,2024-10-25_12h56.53.491,uWM_experiment,2022.2.3,59.98505172
,,,,,,,,,,,,,,,,,,,,5,0,5,0,17,0,17,0,,,,,,,,,,,,,,,,,,,,,,,,,,,,,,,,,,,,,,,,,,,,,,,,,,,,,,,,,,,,,,,,,,,,,,0,,,,,,,,,,,,,,,,,,,,,,,,,,,,right,0,100,-30,70,0,1525.500126,1525.500126,1525.500126,None,None,1,1,0.5513575,,,,,,,,,,,,,,,,,,,,,,10,6,2,2024-10-25_12h56.53.491,uWM_experiment,2022.2.3,59.98505172
,,,,,,,,,,,,,,,,,,,,5,0,5,0,18,0,18,0,,,,,,,,,,,,,,,,,,,,,,,,,,,,,,,,,,,,,,,,,,,,,,,,,,,,,,,,,,,,,,,,,,,,,,0.115789252,,,,,,,,,,,,,,,,,,,,,,,,,,,,left,1,130,-30,100,1,1535.633883,1535.633883,1535.633883,None,None,2,0,1.1137311,,,,,,,,,,,,,,,,,,,,,,10,6,2,2024-10-25_12h56.53.491,uWM_experiment,2022.2.3,59.98505172
,,,,,,,,,,,,,,,,,,,,5,0,5,0,19,0,19,0,,,,,,,,,,,,,,,,,,,,,,,,,,,,,,,,,,,,,,,,,,,,,,,,,,,,,,,,,,,,,,,,,,,,,,0,,,,,,,,,,,,,,,,,,,,,,,,,,,,left,1,10,-30,-20,0,1542.717513,1542.717513,1542.717513,None,None,1,1,0.526043,,,,,,,,,,,,,,,,,,,,,,10,6,2,2024-10-25_12h56.53.491,uWM_experiment,2022.2.3,59.98505172
,,,,,,,,,,,,,,,,,,,,5,0,5,0,20,0,20,0,,,,,,,,,,,,,,,,,,,,,,,,,,,,,,,,,,,,,,,,,,,,,,,,,,,,,,,,,,,,,,,,,,,,,,0.105789252,,,,,,,,,,,,,,,,,,,,,,,,,,,,left,1,10,-30,-20,1,1549.351067,1549.351067,1549.351067,None,None,2,0,0.4124223,,,,,,,,,,,,,,,,,,,,,,10,6,2,2024-10-25_12h56.53.491,uWM_experiment,2022.2.3,59.98505172
,,,,,,,,,,,,,,,,,,,,5,0,5,0,21,0,21,0,,,,,,,,,,,,,,,,,,,,,,,,,,,,,,,,,,,,,,,,,,,,,,,,,,,,,,,,,,,,,,,,,,,,,,0,,,,,,,,,,,,,,,,,,,,,,,,,,,,right,0,70,-30,40,0,1556.834701,1556.834701,1556.834701,None,None,2,0,1.5927754,,,,,,,,,,,,,,,,,,,,,,10,6,2,2024-10-25_12h56.53.491,uWM_experiment,2022.2.3,59.98505172
,,,,,,,,,,,,,,,,,,,,5,0,5,0,22,0,22,0,,,,,,,,,,,,,,,,,,,,,,,,,,,,,,,,,,,,,,,,,,,,,,,,,,,,,,,,,,,,,,,,,,,,,,0,,,,,,,,,,,,,,,,,,,,,,,,,,,,right,1,40,30,70,0,1564.584981,1564.584981,1564.584981,None,None,1,1,0.410428,,,,,,,,,,,,,,,,,,,,,,10,6,2,2024-10-25_12h56.53.491,uWM_experiment,2022.2.3,59.98505172
,,,,,,,,,,,,,,,,,,,,5,0,5,0,23,0,23,0,,,,,,,,,,,,,,,,,,,,,,,,,,,,,,,,,,,,,,,,,,,,,,,,,,,,,,,,,,,,,,,,,,,,,,0.095789252,,,,,,,,,,,,,,,,,,,,,,,,,,,,left,0,100,30,130,1,1570.485224,1570.485224,1570.485224,None,None,1,1,0.6380536,,,,,,,,,,,,,,,,,,,,,,10,6,2,2024-10-25_12h56.53.491,uWM_experiment,2022.2.3,59.98505172
,,,,,,,,,,,,,,,,,,,,5,0,5,0,,,,,0,0,0,0,,,,,,,,,,,,,,,,,,,,,,,,,,,,,,,,,,,,,,,,,,,,,,,,,,,,,,,,,,,,,,,,,,,,,,,,,,,,,,,,,,,,,,,,,,,,,,,,,,,,,,,,,,,,1571.151908,1571.151908,space,5.4994708,space,None,,1576.668799,1576.668799,1.3825323,,,,,,,,,,,,10,6,2,2024-10-25_12h56.53.491,uWM_experiment,2022.2.3,59.98505172
,,,,,,,,,,,,,,,,,,,,5,0,5,0,,,,,1,0,1,0,,,,,,,,,,,,,,,,,,,,,,,,,,,,,,,,,,,,,,,,,,,,,,,,,,,,,,,,,,,,,,,,,,,,,,,,,,,,,,,,,,,,,,,,,,,,,,,,,,,,,,,,,,,,,,,,,,,,,,,,,,,,,,,,,10,6,2,2024-10-25_12h56.53.491,uWM_experiment,2022.2.3,59.98505172
,,,,,,,,,,,,,,,,,,,,5,0,5,0,,,,,2,0,2,0,,,,,,,,,,,,,,,,,,,,,,,,,,,,,,,,,,,,,,,,,,,,,,,,,,,,,,,,,,,,,,,,,,,,,,,,,,,,,,,,,,,,,,,,,,,,,,,,,,,,,,,,,,,,,,,,,,,,,,,,,,,,,,,,,10,6,2,2024-10-25_12h56.53.491,uWM_experiment,2022.2.3,59.98505172
,,,,,,,,,,,,,,,,,,,,6,0,6,0,0,0,0,0,,,,,,,,,,,,,,,,,,,,,,,,,,,,,,,,,,,,,,,,,,,,,,,,,,,,,,,,,,,,,,,,,,,,,,0.105789252,,,,,,,,,,,,,,,,,,,,1578.068857,1578.768883,1579.068893,1579.768921,1580.068933,1580.768962,1580.768962,1581.085662,left,1,10,-30,-20,1,1585.485819,1585.485819,1585.485819,None,None,1,1,0.3574485,,,,,,,None,,,,,,,,,,,,,,,10,6,2,2024-10-25_12h56.53.491,uWM_experiment,2022.2.3,59.98505172
,,,,,,,,,,,,,,,,,,,,6,0,6,0,1,0,1,0,,,,,,,,,,,,,,,,,,,,,,,,,,,,,,,,,,,,,,,,,,,,,,,,,,,,,,,,,,,,,,,,,,,,,,0,,,,,,,,,,,,,,,,,,,,,,,,,,,,right,0,40,-30,10,0,1591.152712,1591.152712,1591.152712,None,None,1,1,0.2906017,,,,,,,,,,,,,,,,,,,,,,10,6,2,2024-10-25_12h56.53.491,uWM_experiment,2022.2.3,59.98505172
,,,,,,,,,,,,,,,,,,,,6,0,6,0,2,0,2,0,,,,,,,,,,,,,,,,,,,,,,,,,,,,,,,,,,,,,,,,,,,,,,,,,,,,,,,,,,,,,,,,,,,,,,0.115789252,,,,,,,,,,,,,,,,,,,,,,,,,,,,left,0,130,30,160,1,1596.75294,1596.75294,1596.75294,None,None,1,1,0.258247,,,,,,,,,,,,,,,,,,,,,,10,6,2,2024-10-25_12h56.53.491,uWM_experiment,2022.2.3,59.98505172
,,,,,,,,,,,,,,,,,,,,6,0,6,0,3,0,3,0,,,,,,,,,,,,,,,,,,,,,,,,,,,,,,,,,,,,,,,,,,,,,,,,,,,,,,,,,,,,,,,,,,,,,,0.125789252,,,,,,,,,,,,,,,,,,,,,,,,,,,,left,1,160,-30,130,1,1602.503161,1602.503161,1602.503161,None,None,1,1,0.3000537,,,,,,,,,,,,,,,,,,,,,,10,6,2,2024-10-25_12h56.53.491,uWM_experiment,2022.2.3,59.98505172
,,,,,,,,,,,,,,,,,,,,6,0,6,0,4,0,4,0,,,,,,,,,,,,,,,,,,,,,,,,,,,,,,,,,,,,,,,,,,,,,,,,,,,,,,,,,,,,,,,,,,,,,,0.135789252,,,,,,,,,,,,,,,,,,,,,,,,,,,,left,1,160,-30,130,1,1608.336709,1608.336709,1608.336709,None,None,1,1,0.3064379,,,,,,,,,,,,,,,,,,,,,,10,6,2,2024-10-25_12h56.53.491,uWM_experiment,2022.2.3,59.98505172
,,,,,,,,,,,,,,,,,,,,6,0,6,0,5,0,5,0,,,,,,,,,,,,,,,,,,,,,,,,,,,,,,,,,,,,,,,,,,,,,,,,,,,,,,,,,,,,,,,,,,,,,,0.145789252,,,,,,,,,,,,,,,,,,,,,,,,,,,,left,1,40,-30,10,1,1614.120272,1614.120272,1614.120272,None,None,3,0,0.4908911,,,,,,,,,,,,,,,,,,,,,,10,6,2,2024-10-25_12h56.53.491,uWM_experiment,2022.2.3,59.98505172
,,,,,,,,,,,,,,,,,,,,6,0,6,0,6,0,6,0,,,,,,,,,,,,,,,,,,,,,,,,,,,,,,,,,,,,,,,,,,,,,,,,,,,,,,,,,,,,,,,,,,,,,,0,,,,,,,,,,,,,,,,,,,,,,,,,,,,left,0,70,30,100,0,1620.070536,1620.070536,1620.070536,None,None,1,1,0.3885801,,,,,,,,,,,,,,,,,,,,,,10,6,2,2024-10-25_12h56.53.491,uWM_experiment,2022.2.3,59.98505172
,,,,,,,,,,,,,,,,,,,,6,0,6,0,7,0,7,0,,,,,,,,,,,,,,,,,,,,,,,,,,,,,,,,,,,,,,,,,,,,,,,,,,,,,,,,,,,,,,,,,,,,,,0.135789252,,,,,,,,,,,,,,,,,,,,,,,,,,,,left,1,40,-30,10,1,1626.104067,1626.104067,1626.104067,None,None,2,0,0.4589729,,,,,,,,,,,,,,,,,,,,,,10,6,2,2024-10-25_12h56.53.491,uWM_experiment,2022.2.3,59.98505172
,,,,,,,,,,,,,,,,,,,,6,0,6,0,8,0,8,0,,,,,,,,,,,,,,,,,,,,,,,,,,,,,,,,,,,,,,,,,,,,,,,,,,,,,,,,,,,,,,,,,,,,,,0.125789252,,,,,,,,,,,,,,,,,,,,,,,,,,,,left,1,70,-30,40,1,1631.987662,1631.987662,1631.987662,None,None,3,0,0.4393692,,,,,,,,,,,,,,,,,,,,,,10,6,2,2024-10-25_12h56.53.491,uWM_experiment,2022.2.3,59.98505172
,,,,,,,,,,,,,,,,,,,,6,0,6,0,9,0,9,0,,,,,,,,,,,,,,,,,,,,,,,,,,,,,,,,,,,,,,,,,,,,,,,,,,,,,,,,,,,,,,,,,,,,,,0,,,,,,,,,,,,,,,,,,,,,,,,,,,,right,0,70,-30,40,0,1638.337888,1638.337888,1638.337888,None,None,1,1,0.352992,,,,,,,,,,,,,,,,,,,,,,10,6,2,2024-10-25_12h56.53.491,uWM_experiment,2022.2.3,59.98505172
,,,,,,,,,,,,,,,,,,,,6,0,6,0,10,0,10,0,,,,,,,,,,,,,,,,,,,,,,,,,,,,,,,,,,,,,,,,,,,,,,,,,,,,,,,,,,,,,,,,,,,,,,0,,,,,,,,,,,,,,,,,,,,,,,,,,,,right,0,70,-30,40,0,1646.088208,1646.088208,1646.088208,None,None,2,0,2.8427049,,,,,,,,,,,,,,,,,,,,,,10,6,2,2024-10-25_12h56.53.491,uWM_experiment,2022.2.3,59.98505172
,,,,,,,,,,,,,,,,,,,,6,0,6,0,11,0,11,0,,,,,,,,,,,,,,,,,,,,,,,,,,,,,,,,,,,,,,,,,,,,,,,,,,,,,,,,,,,,,,,,,,,,,,0.115789252,,,,,,,,,,,,,,,,,,,,,,,,,,,,right,1,40,30,70,1,1654.32181,1654.32181,1654.32181,None,None,2,0,0.2810217,,,,,,,,,,,,,,,,,,,,,,10,6,2,2024-10-25_12h56.53.491,uWM_experiment,2022.2.3,59.98505172
,,,,,,,,,,,,,,,,,,,,6,0,6,0,12,0,12,0,,,,,,,,,,,,,,,,,,,,,,,,,,,,,,,,,,,,,,,,,,,,,,,,,,,,,,,,,,,,,,,,,,,,,,0.105789252,,,,,,,,,,,,,,,,,,,,,,,,,,,,right,0,100,-30,70,1,1660.355438,1660.355438,1660.355438,None,None,1,1,0.3513534,,,,,,,,,,,,,,,,,,,,,,10,6,2,2024-10-25_12h56.53.491,uWM_experiment,2022.2.3,59.98505172
,,,,,,,,,,,,,,,,,,,,6,0,6,0,13,0,13,0,,,,,,,,,,,,,,,,,,,,,,,,,,,,,,,,,,,,,,,,,,,,,,,,,,,,,,,,,,,,,,,,,,,,,,0,,,,,,,,,,,,,,,,,,,,,,,,,,,,left,1,10,-30,-20,0,1666.105664,1666.105664,1666.105664,None,None,1,1,0.617192,,,,,,,,,,,,,,,,,,,,,,10,6,2,2024-10-25_12h56.53.491,uWM_experiment,2022.2.3,59.98505172
,,,,,,,,,,,,,,,,,,,,6,0,6,0,14,0,14,0,,,,,,,,,,,,,,,,,,,,,,,,,,,,,,,,,,,,,,,,,,,,,,,,,,,,,,,,,,,,,,,,,,,,,,0.115789252,,,,,,,,,,,,,,,,,,,,,,,,,,,,right,1,100,30,130,1,1672.222543,1672.222543,1672.222543,None,None,2,0,0.4201318,,,,,,,,,,,,,,,,,,,,,,10,6,2,2024-10-25_12h56.53.491,uWM_experiment,2022.2.3,59.98505172
,,,,,,,,,,,,,,,,,,,,6,0,6,0,15,0,15,0,,,,,,,,,,,,,,,,,,,,,,,,,,,,,,,,,,,,,,,,,,,,,,,,,,,,,,,,,,,,,,,,,,,,,,0.105789252,,,,,,,,,,,,,,,,,,,,,,,,,,,,left,0,160,30,190,1,1678.156117,1678.156117,1678.156117,None,None,2,0,1.9587243,,,,,,,,,,,,,,,,,,,,,,10,6,2,2024-10-25_12h56.53.491,uWM_experiment,2022.2.3,59.98505172
,,,,,,,,,,,,,,,,,,,,6,0,6,0,16,0,16,0,,,,,,,,,,,,,,,,,,,,,,,,,,,,,,,,,,,,,,,,,,,,,,,,,,,,,,,,,,,,,,,,,,,,,,0.095789252,,,,,,,,,,,,,,,,,,,,,,,,,,,,right,0,70,-30,40,1,1685.67308,1685.67308,1685.67308,None,None,2,0,0.7136747,,,,,,,,,,,,,,,,,,,,,,10,6,2,2024-10-25_12h56.53.491,uWM_experiment,2022.2.3,59.98505172
,,,,,,,,,,,,,,,,,,,,6,0,6,0,17,0,17,0,,,,,,,,,,,,,,,,,,,,,,,,,,,,,,,,,,,,,,,,,,,,,,,,,,,,,,,,,,,,,,,,,,,,,,0.1,,,,,,,,,,,,,,,,,,,,,,,,,,,,right,1,130,30,160,2,1692.256674,1692.256674,1692.256674,None,None,4,0,0.889966,,,,,,,,,,,,,,,,,,,,,,10,6,2,2024-10-25_12h56.53.491,uWM_experiment,2022.2.3,59.98505172
,,,,,,,,,,,,,,,,,,,,6,0,6,0,18,0,18,0,,,,,,,,,,,,,,,,,,,,,,,,,,,,,,,,,,,,,,,,,,,,,,,,,,,,,,,,,,,,,,,,,,,,,,0.085789252,,,,,,,,,,,,,,,,,,,,,,,,,,,,right,1,10,30,40,1,1698.756916,1698.756916,1698.756916,None,None,2,0,0.3977101,,,,,,,,,,,,,,,,,,,,,,10,6,2,2024-10-25_12h56.53.491,uWM_experiment,2022.2.3,59.98505172
,,,,,,,,,,,,,,,,,,,,6,0,6,0,19,0,19,0,,,,,,,,,,,,,,,,,,,,,,,,,,,,,,,,,,,,,,,,,,,,,,,,,,,,,,,,,,,,,,,,,,,,,,0,,,,,,,,,,,,,,,,,,,,,,,,,,,,right,0,70,-30,40,0,1704.840481,1704.840481,1704.840481,None,None,1,1,0.6020536,,,,,,,,,,,,,,,,,,,,,,10,6,2,2024-10-25_12h56.53.491,uWM_experiment,2022.2.3,59.98505172
,,,,,,,,,,,,,,,,,,,,6,0,6,0,20,0,20,0,,,,,,,,,,,,,,,,,,,,,,,,,,,,,,,,,,,,,,,,,,,,,,,,,,,,,,,,,,,,,,,,,,,,,,0,,,,,,,,,,,,,,,,,,,,,,,,,,,,right,1,160,30,190,0,1711.657428,1711.657428,1711.657428,None,None,1,1,0.4892403,,,,,,,,,,,,,,,,,,,,,,10,6,2,2024-10-25_12h56.53.491,uWM_experiment,2022.2.3,59.98505172
,,,,,,,,,,,,,,,,,,,,6,0,6,0,21,0,21,0,,,,,,,,,,,,,,,,,,,,,,,,,,,,,,,,,,,,,,,,,,,,,,,,,,,,,,,,,,,,,,,,,,,,,,0.075789252,,,,,,,,,,,,,,,,,,,,,,,,,,,,left,1,130,-30,100,1,1719.841145,1719.841145,1719.841145,None,None,1,1,0.5133842,,,,,,,,,,,,,,,,,,,,,,10,6,2,2024-10-25_12h56.53.491,uWM_experiment,2022.2.3,59.98505172
,,,,,,,,,,,,,,,,,,,,6,0,6,0,22,0,22,0,,,,,,,,,,,,,,,,,,,,,,,,,,,,,,,,,,,,,,,,,,,,,,,,,,,,,,,,,,,,,,,,,,,,,,0.085789252,,,,,,,,,,,,,,,,,,,,,,,,,,,,right,0,70,-30,40,1,1727.241365,1727.241365,1727.241365,None,None,1,1,0.5690804,,,,,,,,,,,,,,,,,,,,,,10,6,2,2024-10-25_12h56.53.491,uWM_experiment,2022.2.3,59.98505172
,,,,,,,,,,,,,,,,,,,,6,0,6,0,23,0,23,0,,,,,,,,,,,,,,,,,,,,,,,,,,,,,,,,,,,,,,,,,,,,,,,,,,,,,,,,,,,,,,,,,,,,,,0.095789252,,,,,,,,,,,,,,,,,,,,,,,,,,,,right,1,130,30,160,1,1733.841647,1733.841647,1733.841647,None,None,1,1,1.992944,,,,,,,,,,,,,,,,,,,,,,10,6,2,2024-10-25_12h56.53.491,uWM_experiment,2022.2.3,59.98505172
,,,,,,,,,,,,,,,,,,,,6,0,6,0,,,,,0,0,0,0,,,,,,,,,,,,,,,,,,,,,,,,,,,,,,,,,,,,,,,,,,,,,,,,,,,,,,,,,,,,,,,,,,,,,,,,,,,,,,,,,,,,,,,,,,,,,,,,,,,,,,,,,,,,1735.858379,1735.858379,space,9.4480589,None,space,,,,,1745.325398,1745.325398,9.852972,,,,,,,,,10,6,2,2024-10-25_12h56.53.491,uWM_experiment,2022.2.3,59.98505172
,,,,,,,,,,,,,,,,,,,,6,0,6,0,,,,,1,0,1,0,,,,,,,,,,,,,,,,,,,,,,,,,,,,,,,,,,,,,,,,,,,,,,,,,,,,,,,,,,,,,,,,,,,,,,,,,,,,,,,,,,,,,,,,,,,,,,,,,,,,,,,,,,,,,,,,,,,,,,,,,,,,,,,,,10,6,2,2024-10-25_12h56.53.491,uWM_experiment,2022.2.3,59.98505172
,,,,,,,,,,,,,,,,,,,,6,0,6,0,,,,,2,0,2,0,,,,,,,,,,,,,,,,,,,,,,,,,,,,,,,,,,,,,,,,,,,,,,,,,,,,,,,,,,,,,,,,,,,,,,,,,,,,,,,,,,,,,,,,,,,,,,,,,,,,,,,,,,,,,,,,,,,,,,,,,,,,,,,,,10,6,2,2024-10-25_12h56.53.491,uWM_experiment,2022.2.3,59.98505172
,,,,,,,,,,,,,,,,,,,,7,0,7,0,0,0,0,0,,,,,,,,,,,,,,,,,,,,,,,,,,,,,,,,,,,,,,,,,,,,,,,,,,,,,,,,,,,,,,,,,,,,,,0.105789252,,,,,,,,,,,,,,,,,,,,1767.592947,1768.29297,1768.576314,1769.27634,1769.576355,1770.276381,1770.276381,1770.593072,left,1,10,-30,-20,1,1775.359939,1775.359939,1775.359939,None,None,1,1,0.3702302,,,,,,,space,,,,,,,1764.492838,1764.492838,3.0694418,,,,,,10,6,2,2024-10-25_12h56.53.491,uWM_experiment,2022.2.3,59.98505172
,,,,,,,,,,,,,,,,,,,,7,0,7,0,1,0,1,0,,,,,,,,,,,,,,,,,,,,,,,,,,,,,,,,,,,,,,,,,,,,,,,,,,,,,,,,,,,,,,,,,,,,,,0.115789252,,,,,,,,,,,,,,,,,,,,,,,,,,,,left,1,130,-30,100,1,1781.31019,1781.31019,1781.31019,None,None,1,1,0.4119709,,,,,,,,,,,,,,,,,,,,,,10,6,2,2024-10-25_12h56.53.491,uWM_experiment,2022.2.3,59.98505172
,,,,,,,,,,,,,,,,,,,,7,0,7,0,2,0,2,0,,,,,,,,,,,,,,,,,,,,,,,,,,,,,,,,,,,,,,,,,,,,,,,,,,,,,,,,,,,,,,,,,,,,,,0.125789252,,,,,,,,,,,,,,,,,,,,,,,,,,,,left,1,160,-30,130,1,1787.560407,1787.560407,1787.560407,None,None,2,0,0.3057157,,,,,,,,,,,,,,,,,,,,,,10,6,2,2024-10-25_12h56.53.491,uWM_experiment,2022.2.3,59.98505172
,,,,,,,,,,,,,,,,,,,,7,0,7,0,3,0,3,0,,,,,,,,,,,,,,,,,,,,,,,,,,,,,,,,,,,,,,,,,,,,,,,,,,,,,,,,,,,,,,,,,,,,,,0.115789252,,,,,,,,,,,,,,,,,,,,,,,,,,,,left,0,70,30,100,1,1793.444016,1793.444016,1793.444016,None,None,3,0,1.1020525,,,,,,,,,,,,,,,,,,,,,,10,6,2,2024-10-25_12h56.53.491,uWM_experiment,2022.2.3,59.98505172
,,,,,,,,,,,,,,,,,,,,7,0,7,0,4,0,4,0,,,,,,,,,,,,,,,,,,,,,,,,,,,,,,,,,,,,,,,,,,,,,,,,,,,,,,,,,,,,,,,,,,,,,,0.105789252,,,,,,,,,,,,,,,,,,,,,,,,,,,,right,0,100,-30,70,1,1800.027583,1800.027583,1800.027583,None,None,1,1,0.3825809,,,,,,,,,,,,,,,,,,,,,,10,6,2,2024-10-25_12h56.53.491,uWM_experiment,2022.2.3,59.98505172
,,,,,,,,,,,,,,,,,,,,7,0,7,0,5,0,5,0,,,,,,,,,,,,,,,,,,,,,,,,,,,,,,,,,,,,,,,,,,,,,,,,,,,,,,,,,,,,,,,,,,,,,,0.1,,,,,,,,,,,,,,,,,,,,,,,,,,,,left,1,70,-30,40,2,1806.527833,1806.527833,1806.527833,None,None,4,0,0.570142,,,,,,,,,,,,,,,,,,,,,,10,6,2,2024-10-25_12h56.53.491,uWM_experiment,2022.2.3,59.98505172
,,,,,,,,,,,,,,,,,,,,7,0,7,0,6,0,6,0,,,,,,,,,,,,,,,,,,,,,,,,,,,,,,,,,,,,,,,,,,,,,,,,,,,,,,,,,,,,,,,,,,,,,,0.115789252,,,,,,,,,,,,,,,,,,,,,,,,,,,,left,1,10,-30,-20,1,1815.161502,1815.161502,1815.161502,None,None,3,0,1.0644808,,,,,,,,,,,,,,,,,,,,,,10,6,2,2024-10-25_12h56.53.491,uWM_experiment,2022.2.3,59.98505172
,,,,,,,,,,,,,,,,,,,,7,0,7,0,7,0,7,0,,,,,,,,,,,,,,,,,,,,,,,,,,,,,,,,,,,,,,,,,,,,,,,,,,,,,,,,,,,,,,,,,,,,,,0.105789252,,,,,,,,,,,,,,,,,,,,,,,,,,,,left,0,70,30,100,1,1822.495086,1822.495086,1822.495086,None,None,1,1,0.4588578,,,,,,,,,,,,,,,,,,,,,,10,6,2,2024-10-25_12h56.53.491,uWM_experiment,2022.2.3,59.98505172
,,,,,,,,,,,,,,,,,,,,7,0,7,0,8,0,8,0,,,,,,,,,,,,,,,,,,,,,,,,,,,,,,,,,,,,,,,,,,,,,,,,,,,,,,,,,,,,,,,,,,,,,,0,,,,,,,,,,,,,,,,,,,,,,,,,,,,right,0,40,-30,10,0,1829.212052,1829.212052,1829.212052,None,None,1,1,0.3899002,,,,,,,,,,,,,,,,,,,,,,10,6,2,2024-10-25_12h56.53.491,uWM_experiment,2022.2.3,59.98505172
,,,,,,,,,,,,,,,,,,,,7,0,7,0,9,0,9,0,,,,,,,,,,,,,,,,,,,,,,,,,,,,,,,,,,,,,,,,,,,,,,,,,,,,,,,,,,,,,,,,,,,,,,0,,,,,,,,,,,,,,,,,,,,,,,,,,,,left,0,70,30,100,0,1835.462327,1835.462327,1835.462327,None,None,1,1,1.7476133,,,,,,,,,,,,,,,,,,,,,,10,6,2,2024-10-25_12h56.53.491,uWM_experiment,2022.2.3,59.98505172
,,,,,,,,,,,,,,,,,,,,7,0,7,0,10,0,10,0,,,,,,,,,,,,,,,,,,,,,,,,,,,,,,,,,,,,,,,,,,,,,,,,,,,,,,,,,,,,,,,,,,,,,,0.115789252,,,,,,,,,,,,,,,,,,,,,,,,,,,,right,0,70,-30,40,1,1842.712578,1842.712578,1842.712578,None,None,1,1,0.4333707,,,,,,,,,,,,,,,,,,,,,,10,6,2,2024-10-25_12h56.53.491,uWM_experiment,2022.2.3,59.98505172
,,,,,,,,,,,,,,,,,,,,7,0,7,0,11,0,11,0,,,,,,,,,,,,,,,,,,,,,,,,,,,,,,,,,,,,,,,,,,,,,,,,,,,,,,,,,,,,,,,,,,,,,,0,,,,,,,,,,,,,,,,,,,,,,,,,,,,left,0,160,30,190,0,1849.19615,1849.19615,1849.19615,None,None,1,1,0.5176085,,,,,,,,,,,,,,,,,,,,,,10,6,2,2024-10-25_12h56.53.491,uWM_experiment,2022.2.3,59.98505172
,,,,,,,,,,,,,,,,,,,,7,0,7,0,12,0,12,0,,,,,,,,,,,,,,,,,,,,,,,,,,,,,,,,,,,,,,,,,,,,,,,,,,,,,,,,,,,,,,,,,,,,,,0.125789252,,,,,,,,,,,,,,,,,,,,,,,,,,,,right,1,160,30,190,1,1855.513063,1855.513063,1855.513063,None,None,1,1,0.9288332,,,,,,,,,,,,,,,,,,,,,,10,6,2,2024-10-25_12h56.53.491,uWM_experiment,2022.2.3,59.98505172
,,,,,,,,,,,,,,,,,,,,7,0,7,0,13,0,13,0,,,,,,,,,,,,,,,,,,,,,,,,,,,,,,,,,,,,,,,,,,,,,,,,,,,,,,,,,,,,,,,,,,,,,,0,,,,,,,,,,,,,,,,,,,,,,,,,,,,left,0,70,30,100,0,1862.013364,1862.013364,1862.013364,None,None,1,1,1.2924231,,,,,,,,,,,,,,,,,,,,,,10,6,2,2024-10-25_12h56.53.491,uWM_experiment,2022.2.3,59.98505172
,,,,,,,,,,,,,,,,,,,,7,0,7,0,14,0,14,0,,,,,,,,,,,,,,,,,,,,,,,,,,,,,,,,,,,,,,,,,,,,,,,,,,,,,,,,,,,,,,,,,,,,,,0.135789252,,,,,,,,,,,,,,,,,,,,,,,,,,,,left,1,130,-30,100,1,1873.197103,1873.197103,1873.197103,None,None,1,1,1.9005184,,,,,,,,,,,,,,,,,,,,,,10,6,2,2024-10-25_12h56.53.491,uWM_experiment,2022.2.3,59.98505172
,,,,,,,,,,,,,,,,,,,,7,0,7,0,15,0,15,0,,,,,,,,,,,,,,,,,,,,,,,,,,,,,,,,,,,,,,,,,,,,,,,,,,,,,,,,,,,,,,,,,,,,,,0,,,,,,,,,,,,,,,,,,,,,,,,,,,,right,1,10,30,40,0,1880.597382,1880.597382,1880.597382,None,None,1,1,0.6841931,,,,,,,,,,,,,,,,,,,,,,10,6,2,2024-10-25_12h56.53.491,uWM_experiment,2022.2.3,59.98505172
,,,,,,,,,,,,,,,,,,,,7,0,7,0,16,0,16,0,,,,,,,,,,,,,,,,,,,,,,,,,,,,,,,,,,,,,,,,,,,,,,,,,,,,,,,,,,,,,,,,,,,,,,0.145789252,,,,,,,,,,,,,,,,,,,,,,,,,,,,left,1,40,-30,10,1,1887.164302,1887.164302,1887.164302,None,None,1,1,0.7492388,,,,,,,,,,,,,,,,,,,,,,10,6,2,2024-10-25_12h56.53.491,uWM_experiment,2022.2.3,59.98505172
,,,,,,,,,,,,,,,,,,,,7,0,7,0,17,0,17,0,,,,,,,,,,,,,,,,,,,,,,,,,,,,,,,,,,,,,,,,,,,,,,,,,,,,,,,,,,,,,,,,,,,,,,0,,,,,,,,,,,,,,,,,,,,,,,,,,,,right,0,100,-30,70,0,1893.347883,1893.347883,1893.347883,None,None,1,1,0.3657622,,,,,,,,,,,,,,,,,,,,,,10,6,2,2024-10-25_12h56.53.491,uWM_experiment,2022.2.3,59.98505172
,,,,,,,,,,,,,,,,,,,,7,0,7,0,18,0,18,0,,,,,,,,,,,,,,,,,,,,,,,,,,,,,,,,,,,,,,,,,,,,,,,,,,,,,,,,,,,,,,,,,,,,,,0,,,,,,,,,,,,,,,,,,,,,,,,,,,,left,1,10,-30,-20,0,1899.314789,1899.314789,1899.314789,None,None,1,1,0.8147504,,,,,,,,,,,,,,,,,,,,,,10,6,2,2024-10-25_12h56.53.491,uWM_experiment,2022.2.3,59.98505172
,,,,,,,,,,,,,,,,,,,,7,0,7,0,19,0,19,0,,,,,,,,,,,,,,,,,,,,,,,,,,,,,,,,,,,,,,,,,,,,,,,,,,,,,,,,,,,,,,,,,,,,,,0,,,,,,,,,,,,,,,,,,,,,,,,,,,,left,1,130,-30,100,0,1905.548373,1905.548373,1905.548373,None,None,1,1,0.8210738,,,,,,,,,,,,,,,,,,,,,,10,6,2,2024-10-25_12h56.53.491,uWM_experiment,2022.2.3,59.98505172
,,,,,,,,,,,,,,,,,,,,7,0,7,0,20,0,20,0,,,,,,,,,,,,,,,,,,,,,,,,,,,,,,,,,,,,,,,,,,,,,,,,,,,,,,,,,,,,,,,,,,,,,,0.155789252,,,,,,,,,,,,,,,,,,,,,,,,,,,,right,0,100,-30,70,1,1912.248633,1912.248633,1912.248633,None,None,1,1,1.0648958,,,,,,,,,,,,,,,,,,,,,,10,6,2,2024-10-25_12h56.53.491,uWM_experiment,2022.2.3,59.98505172
,,,,,,,,,,,,,,,,,,,,7,0,7,0,21,0,21,0,,,,,,,,,,,,,,,,,,,,,,,,,,,,,,,,,,,,,,,,,,,,,,,,,,,,,,,,,,,,,,,,,,,,,,0,,,,,,,,,,,,,,,,,,,,,,,,,,,,left,0,130,30,160,0,1919.148908,1919.148908,1919.148908,None,None,1,1,0.6765906,,,,,,,,,,,,,,,,,,,,,,10,6,2,2024-10-25_12h56.53.491,uWM_experiment,2022.2.3,59.98505172
,,,,,,,,,,,,,,,,,,,,7,0,7,0,22,0,22,0,,,,,,,,,,,,,,,,,,,,,,,,,,,,,,,,,,,,,,,,,,,,,,,,,,,,,,,,,,,,,,,,,,,,,,0,,,,,,,,,,,,,,,,,,,,,,,,,,,,left,0,70,30,100,0,1925.465821,1925.465821,1925.465821,None,None,1,1,1.0715163,,,,,,,,,,,,,,,,,,,,,,10,6,2,2024-10-25_12h56.53.491,uWM_experiment,2022.2.3,59.98505172
,,,,,,,,,,,,,,,,,,,,7,0,7,0,23,0,23,0,,,,,,,,,,,,,,,,,,,,,,,,,,,,,,,,,,,,,,,,,,,,,,,,,,,,,,,,,,,,,,,,,,,,,,0.165789252,,,,,,,,,,,,,,,,,,,,,,,,,,,,right,1,160,30,190,1,1932.432747,1932.432747,1932.432747,None,None,1,1,3.4966193,,,,,,,,,,,,,,,,,,,,,,10,6,2,2024-10-25_12h56.53.491,uWM_experiment,2022.2.3,59.98505172
,,,,,,,,,,,,,,,,,,,,7,0,7,0,,,,,0,0,0,0,,,,,,,,,,,,,,,,,,,,,,,,,,,,,,,,,,,,,,,,,,,,,,,,,,,,,,,,,,,,,,,,,,,,,,,,,,,,,,,,,,,,,,,,,,,,,,,,,,,,,,,,,,,,1935.949543,1935.949543,space,20.019727,None,None,,,,,,,,,,,,,,,,10,6,2,2024-10-25_12h56.53.491,uWM_experiment,2022.2.3,59.98505172
,,,,,,,,,,,,,,,,,,,,7,0,7,0,,,,,1,0,1,0,,,,,,,,,,,,,,,,,,,,,,,,,,,,,,,,,,,,,,,,,,,,,,,,,,,,,,,,,,,,,,,,,,,,,,,,,,,,,,,,,,,,,,,,,,,,,,,,,,,,,,,,,,,,,,,,,,,,,,,,,,,,,,,,,10,6,2,2024-10-25_12h56.53.491,uWM_experiment,2022.2.3,59.98505172
,,,,,,,,,,,,,,,,,,,,7,0,7,0,,,,,2,0,2,0,,,,,,,,,,,,,,,,,,,,,,,,,,,,,,,,,,,,,,,,,,,,,,,,,,,,,,,,,,,,,,,,,,,,,,,,,,,,,,,,,,,,,,,,,,,,,,,,,,,,,,,,,,,,,,,,,,,,,,,,,,,,,,,,,10,6,2,2024-10-25_12h56.53.491,uWM_experiment,2022.2.3,59.98505172
,,,,,,,,,,,,,,,,,,,,8,0,8,0,0,0,0,0,,,,,,,,,,,,,,,,,,,,,,,,,,,,,,,,,,,,,,,,,,,,,,,,,,,,,,,,,,,,,,,,,,,,,,0.175789252,,,,,,,,,,,,,,,,,,,,1956.000337,1956.700392,1957.000369,1957.700397,1958.000411,1958.700435,1958.700435,1959.01713,right,0,100,-30,70,1,1963.567316,1963.567316,1963.567316,None,None,2,0,0.385824,,,,,,,None,,,,,,,,,,,,,,,10,6,2,2024-10-25_12h56.53.491,uWM_experiment,2022.2.3,59.98505172
,,,,,,,,,,,,,,,,,,,,8,0,8,0,1,0,1,0,,,,,,,,,,,,,,,,,,,,,,,,,,,,,,,,,,,,,,,,,,,,,,,,,,,,,,,,,,,,,,,,,,,,,,0.165789252,,,,,,,,,,,,,,,,,,,,,,,,,,,,right,1,40,30,70,1,1970.467597,1970.467597,1970.467597,None,None,1,1,1.0855188,,,,,,,,,,,,,,,,,,,,,,10,6,2,2024-10-25_12h56.53.491,uWM_experiment,2022.2.3,59.98505172
,,,,,,,,,,,,,,,,,,,,8,0,8,0,2,0,2,0,,,,,,,,,,,,,,,,,,,,,,,,,,,,,,,,,,,,,,,,,,,,,,,,,,,,,,,,,,,,,,,,,,,,,,0,,,,,,,,,,,,,,,,,,,,,,,,,,,,right,0,100,-30,70,0,1976.967838,1976.967838,1976.967838,None,None,1,1,0.2572504,,,,,,,,,,,,,,,,,,,,,,10,6,2,2024-10-25_12h56.53.491,uWM_experiment,2022.2.3,59.98505172
,,,,,,,,,,,,,,,,,,,,8,0,8,0,3,0,3,0,,,,,,,,,,,,,,,,,,,,,,,,,,,,,,,,,,,,,,,,,,,,,,,,,,,,,,,,,,,,,,,,,,,,,,0.175789252,,,,,,,,,,,,,,,,,,,,,,,,,,,,right,1,130,30,160,1,1983.334746,1983.334746,1983.334746,None,None,2,0,0.386272,,,,,,,,,,,,,,,,,,,,,,10,6,2,2024-10-25_12h56.53.491,uWM_experiment,2022.2.3,59.98505172
,,,,,,,,,,,,,,,,,,,,8,0,8,0,4,0,4,0,,,,,,,,,,,,,,,,,,,,,,,,,,,,,,,,,,,,,,,,,,,,,,,,,,,,,,,,,,,,,,,,,,,,,,0.165789252,,,,,,,,,,,,,,,,,,,,,,,,,,,,right,1,130,30,160,1,1989.384997,1989.384997,1989.384997,None,None,2,0,0.3519928,,,,,,,,,,,,,,,,,,,,,,10,6,2,2024-10-25_12h56.53.491,uWM_experiment,2022.2.3,59.98505172
,,,,,,,,,,,,,,,,,,,,8,0,8,0,5,0,5,0,,,,,,,,,,,,,,,,,,,,,,,,,,,,,,,,,,,,,,,,,,,,,,,,,,,,,,,,,,,,,,,,,,,,,,0,,,,,,,,,,,,,,,,,,,,,,,,,,,,right,1,160,30,190,0,1996.05192,1996.05192,1996.05192,None,None,1,1,0.4050371,,,,,,,,,,,,,,,,,,,,,,10,6,2,2024-10-25_12h56.53.491,uWM_experiment,2022.2.3,59.98505172
,,,,,,,,,,,,,,,,,,,,8,0,8,0,6,0,6,0,,,,,,,,,,,,,,,,,,,,,,,,,,,,,,,,,,,,,,,,,,,,,,,,,,,,,,,,,,,,,,,,,,,,,,0,,,,,,,,,,,,,,,,,,,,,,,,,,,,left,1,160,-30,130,0,2002.01879,2002.01879,2002.01879,None,None,1,1,0.4221322,,,,,,,,,,,,,,,,,,,,,,10,6,2,2024-10-25_12h56.53.491,uWM_experiment,2022.2.3,59.98505172
,,,,,,,,,,,,,,,,,,,,8,0,8,0,7,0,7,0,,,,,,,,,,,,,,,,,,,,,,,,,,,,,,,,,,,,,,,,,,,,,,,,,,,,,,,,,,,,,,,,,,,,,,0.155789252,,,,,,,,,,,,,,,,,,,,,,,,,,,,right,0,70,-30,40,1,2008.119043,2008.119043,2008.119043,None,None,1,1,1.0899461,,,,,,,,,,,,,,,,,,,,,,10,6,2,2024-10-25_12h56.53.491,uWM_experiment,2022.2.3,59.98505172
,,,,,,,,,,,,,,,,,,,,8,0,8,0,8,0,8,0,,,,,,,,,,,,,,,,,,,,,,,,,,,,,,,,,,,,,,,,,,,,,,,,,,,,,,,,,,,,,,,,,,,,,,0.165789252,,,,,,,,,,,,,,,,,,,,,,,,,,,,right,1,160,30,190,1,2015.03599,2015.03599,2015.03599,None,None,1,1,0.5409643,,,,,,,,,,,,,,,,,,,,,,10,6,2,2024-10-25_12h56.53.491,uWM_experiment,2022.2.3,59.98505172
,,,,,,,,,,,,,,,,,,,,8,0,8,0,9,0,9,0,,,,,,,,,,,,,,,,,,,,,,,,,,,,,,,,,,,,,,,,,,,,,,,,,,,,,,,,,,,,,,,,,,,,,,0.175789252,,,,,,,,,,,,,,,,,,,,,,,,,,,,left,1,160,-30,130,1,2021.236225,2021.236225,2021.236225,None,None,2,0,0.3966227,,,,,,,,,,,,,,,,,,,,,,10,6,2,2024-10-25_12h56.53.491,uWM_experiment,2022.2.3,59.98505172
,,,,,,,,,,,,,,,,,,,,8,0,8,0,10,0,10,0,,,,,,,,,,,,,,,,,,,,,,,,,,,,,,,,,,,,,,,,,,,,,,,,,,,,,,,,,,,,,,,,,,,,,,0.165789252,,,,,,,,,,,,,,,,,,,,,,,,,,,,right,0,70,-30,40,1,2027.603165,2027.603165,2027.603165,None,None,2,0,1.1417393,,,,,,,,,,,,,,,,,,,,,,10,6,2,2024-10-25_12h56.53.491,uWM_experiment,2022.2.3,59.98505172
,,,,,,,,,,,,,,,,,,,,8,0,8,0,11,0,11,0,,,,,,,,,,,,,,,,,,,,,,,,,,,,,,,,,,,,,,,,,,,,,,,,,,,,,,,,,,,,,,,,,,,,,,0.1,,,,,,,,,,,,,,,,,,,,,,,,,,,,left,1,40,-30,10,2,2035.003459,2035.003459,2035.003459,None,None,4,0,0.4933717,,,,,,,,,,,,,,,,,,,,,,10,6,2,2024-10-25_12h56.53.491,uWM_experiment,2022.2.3,59.98505172
,,,,,,,,,,,,,,,,,,,,8,0,8,0,12,0,12,0,,,,,,,,,,,,,,,,,,,,,,,,,,,,,,,,,,,,,,,,,,,,,,,,,,,,,,,,,,,,,,,,,,,,,,0.155789252,,,,,,,,,,,,,,,,,,,,,,,,,,,,left,0,70,30,100,1,2041.137026,2041.137026,2041.137026,None,None,1,1,0.7357106,,,,,,,,,,,,,,,,,,,,,,10,6,2,2024-10-25_12h56.53.491,uWM_experiment,2022.2.3,59.98505172
,,,,,,,,,,,,,,,,,,,,8,0,8,0,13,0,13,0,,,,,,,,,,,,,,,,,,,,,,,,,,,,,,,,,,,,,,,,,,,,,,,,,,,,,,,,,,,,,,,,,,,,,,0.165789252,,,,,,,,,,,,,,,,,,,,,,,,,,,,right,1,160,30,190,1,2047.620588,2047.620588,2047.620588,None,None,1,1,0.4121799,,,,,,,,,,,,,,,,,,,,,,10,6,2,2024-10-25_12h56.53.491,uWM_experiment,2022.2.3,59.98505172
,,,,,,,,,,,,,,,,,,,,8,0,8,0,14,0,14,0,,,,,,,,,,,,,,,,,,,,,,,,,,,,,,,,,,,,,,,,,,,,,,,,,,,,,,,,,,,,,,,,,,,,,,0.175789252,,,,,,,,,,,,,,,,,,,,,,,,,,,,left,1,10,-30,-20,1,2053.470828,2053.470828,2053.470828,None,None,3,0,0.6498605,,,,,,,,,,,,,,,,,,,,,,10,6,2,2024-10-25_12h56.53.491,uWM_experiment,2022.2.3,59.98505172
,,,,,,,,,,,,,,,,,,,,8,0,8,0,15,0,15,0,,,,,,,,,,,,,,,,,,,,,,,,,,,,,,,,,,,,,,,,,,,,,,,,,,,,,,,,,,,,,,,,,,,,,,0.165789252,,,,,,,,,,,,,,,,,,,,,,,,,,,,left,0,70,30,100,1,2059.604414,2059.604414,2059.604414,None,None,2,0,1.7083269,,,,,,,,,,,,,,,,,,,,,,10,6,2,2024-10-25_12h56.53.491,uWM_experiment,2022.2.3,59.98505172
,,,,,,,,,,,,,,,,,,,,8,0,8,0,16,0,16,0,,,,,,,,,,,,,,,,,,,,,,,,,,,,,,,,,,,,,,,,,,,,,,,,,,,,,,,,,,,,,,,,,,,,,,0,,,,,,,,,,,,,,,,,,,,,,,,,,,,right,1,10,30,40,0,2066.754691,2066.754691,2066.754691,None,None,1,1,0.6939158,,,,,,,,,,,,,,,,,,,,,,10,6,2,2024-10-25_12h56.53.491,uWM_experiment,2022.2.3,59.98505172
,,,,,,,,,,,,,,,,,,,,8,0,8,0,17,0,17,0,,,,,,,,,,,,,,,,,,,,,,,,,,,,,,,,,,,,,,,,,,,,,,,,,,,,,,,,,,,,,,,,,,,,,,0,,,,,,,,,,,,,,,,,,,,,,,,,,,,left,0,70,30,100,0,2073.071605,2073.071605,2073.071605,None,None,1,1,0.9049223,,,,,,,,,,,,,,,,,,,,,,10,6,2,2024-10-25_12h56.53.491,uWM_experiment,2022.2.3,59.98505172
,,,,,,,,,,,,,,,,,,,,8,0,8,0,18,0,18,0,,,,,,,,,,,,,,,,,,,,,,,,,,,,,,,,,,,,,,,,,,,,,,,,,,,,,,,,,,,,,,,,,,,,,,0.155789252,,,,,,,,,,,,,,,,,,,,,,,,,,,,left,1,40,-30,10,1,2079.555171,2079.555171,2079.555171,None,None,3,0,1.5494728,,,,,,,,,,,,,,,,,,,,,,10,6,2,2024-10-25_12h56.53.491,uWM_experiment,2022.2.3,59.98505172
,,,,,,,,,,,,,,,,,,,,8,0,8,0,19,0,19,0,,,,,,,,,,,,,,,,,,,,,,,,,,,,,,,,,,,,,,,,,,,,,,,,,,,,,,,,,,,,,,,,,,,,,,0.145789252,,,,,,,,,,,,,,,,,,,,,,,,,,,,right,1,100,30,130,1,2086.672145,2086.672145,2086.672145,None,None,2,0,0.3603795,,,,,,,,,,,,,,,,,,,,,,10,6,2,2024-10-25_12h56.53.491,uWM_experiment,2022.2.3,59.98505172
,,,,,,,,,,,,,,,,,,,,8,0,8,0,20,0,20,0,,,,,,,,,,,,,,,,,,,,,,,,,,,,,,,,,,,,,,,,,,,,,,,,,,,,,,,,,,,,,,,,,,,,,,0.135789252,,,,,,,,,,,,,,,,,,,,,,,,,,,,left,1,40,-30,10,1,2092.472351,2092.472351,2092.472351,None,None,2,0,0.5520767,,,,,,,,,,,,,,,,,,,,,,10,6,2,2024-10-25_12h56.53.491,uWM_experiment,2022.2.3,59.98505172
,,,,,,,,,,,,,,,,,,,,8,0,8,0,21,0,21,0,,,,,,,,,,,,,,,,,,,,,,,,,,,,,,,,,,,,,,,,,,,,,,,,,,,,,,,,,,,,,,,,,,,,,,0.125789252,,,,,,,,,,,,,,,,,,,,,,,,,,,,right,1,100,30,130,1,2098.372584,2098.372584,2098.372584,None,None,2,0,0.4678154,,,,,,,,,,,,,,,,,,,,,,10,6,2,2024-10-25_12h56.53.491,uWM_experiment,2022.2.3,59.98505172
,,,,,,,,,,,,,,,,,,,,8,0,8,0,22,0,22,0,,,,,,,,,,,,,,,,,,,,,,,,,,,,,,,,,,,,,,,,,,,,,,,,,,,,,,,,,,,,,,,,,,,,,,0.115789252,,,,,,,,,,,,,,,,,,,,,,,,,,,,left,1,160,-30,130,1,2104.806176,2104.806176,2104.806176,None,None,2,0,0.5303031,,,,,,,,,,,,,,,,,,,,,,10,6,2,2024-10-25_12h56.53.491,uWM_experiment,2022.2.3,59.98505172
,,,,,,,,,,,,,,,,,,,,8,0,8,0,23,0,23,0,,,,,,,,,,,,,,,,,,,,,,,,,,,,,,,,,,,,,,,,,,,,,,,,,,,,,,,,,,,,,,,,,,,,,,0.105789252,,,,,,,,,,,,,,,,,,,,,,,,,,,,left,1,160,-30,130,1,2110.839743,2110.839743,2110.839743,None,None,2,0,0.8967391,,,,,,,,,,,,,,,,,,,,,,10,6,2,2024-10-25_12h56.53.491,uWM_experiment,2022.2.3,59.98505172
,,,,,,,,,,,,,,,,,,,,8,0,8,0,,,,,0,0,0,0,,,,,,,,,,,,,,,,,,,,,,,,,,,,,,,,,,,,,,,,,,,,,,,,,,,,,,,,,,,,,,,,,,,,,,,,,,,,,,,,,,,,,,,,,,,,,,,,,,,,,,,,,,,,2111.756443,2111.756443,space,8.1800264,space,None,,2119.956748,2119.956748,4.2036716,,,,,,,,,,,,10,6,2,2024-10-25_12h56.53.491,uWM_experiment,2022.2.3,59.98505172
,,,,,,,,,,,,,,,,,,,,8,0,8,0,,,,,1,0,1,0,,,,,,,,,,,,,,,,,,,,,,,,,,,,,,,,,,,,,,,,,,,,,,,,,,,,,,,,,,,,,,,,,,,,,,,,,,,,,,,,,,,,,,,,,,,,,,,,,,,,,,,,,,,,,,,,,,,,,,,,,,,,,,,,,10,6,2,2024-10-25_12h56.53.491,uWM_experiment,2022.2.3,59.98505172
,,,,,,,,,,,,,,,,,,,,8,0,8,0,,,,,2,0,2,0,,,,,,,,,,,,,,,,,,,,,,,,,,,,,,,,,,,,,,,,,,,,,,,,,,,,,,,,,,,,,,,,,,,,,,,,,,,,,,,,,,,,,,,,,,,,,,,,,,,,,,,,,,,,,,,,,,,,,,,,,,,,,,,,,10,6,2,2024-10-25_12h56.53.491,uWM_experiment,2022.2.3,59.98505172
,,,,,,,,,,,,,,,,,,,,9,0,9,0,0,0,0,0,,,,,,,,,,,,,,,,,,,,,,,,,,,,,,,,,,,,,,,,,,,,,,,,,,,,,,,,,,,,,,,,,,,,,,0.095789252,,,,,,,,,,,,,,,,,,,,2124.19025,2124.890279,2125.190301,2125.890313,2126.19034,2126.890357,2126.890357,2127.20705,left,1,10,-30,-20,1,2131.540542,2131.540542,2131.540542,None,None,1,1,0.2677235,,,,,,,None,,,,,,,,,,,,,,,10,6,2,2024-10-25_12h56.53.491,uWM_experiment,2022.2.3,59.98505172
,,,,,,,,,,,,,,,,,,,,9,0,9,0,1,0,1,0,,,,,,,,,,,,,,,,,,,,,,,,,,,,,,,,,,,,,,,,,,,,,,,,,,,,,,,,,,,,,,,,,,,,,,0.105789252,,,,,,,,,,,,,,,,,,,,,,,,,,,,right,0,100,-30,70,1,2137.140775,2137.140775,2137.140775,None,None,1,1,0.4114487,,,,,,,,,,,,,,,,,,,,,,10,6,2,2024-10-25_12h56.53.491,uWM_experiment,2022.2.3,59.98505172
,,,,,,,,,,,,,,,,,,,,9,0,9,0,2,0,2,0,,,,,,,,,,,,,,,,,,,,,,,,,,,,,,,,,,,,,,,,,,,,,,,,,,,,,,,,,,,,,,,,,,,,,,0.115789252,,,,,,,,,,,,,,,,,,,,,,,,,,,,left,1,10,-30,-20,1,2142.907674,2142.907674,2142.907674,None,None,2,0,1.1246073,,,,,,,,,,,,,,,,,,,,,,10,6,2,2024-10-25_12h56.53.491,uWM_experiment,2022.2.3,59.98505172
,,,,,,,,,,,,,,,,,,,,9,0,9,0,3,0,3,0,,,,,,,,,,,,,,,,,,,,,,,,,,,,,,,,,,,,,,,,,,,,,,,,,,,,,,,,,,,,,,,,,,,,,,0.105789252,,,,,,,,,,,,,,,,,,,,,,,,,,,,left,0,100,30,130,1,2149.707931,2149.707931,2149.707931,None,None,2,0,0.4362141,,,,,,,,,,,,,,,,,,,,,,10,6,2,2024-10-25_12h56.53.491,uWM_experiment,2022.2.3,59.98505172
,,,,,,,,,,,,,,,,,,,,9,0,9,0,4,0,4,0,,,,,,,,,,,,,,,,,,,,,,,,,,,,,,,,,,,,,,,,,,,,,,,,,,,,,,,,,,,,,,,,,,,,,,0.095789252,,,,,,,,,,,,,,,,,,,,,,,,,,,,right,1,40,30,70,1,2155.574818,2155.574818,2155.574818,None,None,1,1,0.3293729,,,,,,,,,,,,,,,,,,,,,,10,6,2,2024-10-25_12h56.53.491,uWM_experiment,2022.2.3,59.98505172
,,,,,,,,,,,,,,,,,,,,9,0,9,0,5,0,5,0,,,,,,,,,,,,,,,,,,,,,,,,,,,,,,,,,,,,,,,,,,,,,,,,,,,,,,,,,,,,,,,,,,,,,,0.105789252,,,,,,,,,,,,,,,,,,,,,,,,,,,,left,0,130,30,160,1,2161.958452,2161.958452,2161.958452,None,None,1,1,0.6897929,,,,,,,,,,,,,,,,,,,,,,10,6,2,2024-10-25_12h56.53.491,uWM_experiment,2022.2.3,59.98505172
,,,,,,,,,,,,,,,,,,,,9,0,9,0,6,0,6,0,,,,,,,,,,,,,,,,,,,,,,,,,,,,,,,,,,,,,,,,,,,,,,,,,,,,,,,,,,,,,,,,,,,,,,0,,,,,,,,,,,,,,,,,,,,,,,,,,,,left,1,10,-30,-20,0,2168.775339,2168.775339,2168.775339,None,None,1,1,0.4006837,,,,,,,,,,,,,,,,,,,,,,10,6,2,2024-10-25_12h56.53.491,uWM_experiment,2022.2.3,59.98505172
,,,,,,,,,,,,,,,,,,,,9,0,9,0,7,0,7,0,,,,,,,,,,,,,,,,,,,,,,,,,,,,,,,,,,,,,,,,,,,,,,,,,,,,,,,,,,,,,,,,,,,,,,0.115789252,,,,,,,,,,,,,,,,,,,,,,,,,,,,right,0,70,-30,40,1,2175.708956,2175.708956,2175.708956,None,None,1,1,0.4190087,,,,,,,,,,,,,,,,,,,,,,10,6,2,2024-10-25_12h56.53.491,uWM_experiment,2022.2.3,59.98505172
,,,,,,,,,,,,,,,,,,,,9,0,9,0,8,0,8,0,,,,,,,,,,,,,,,,,,,,,,,,,,,,,,,,,,,,,,,,,,,,,,,,,,,,,,,,,,,,,,,,,,,,,,0.125789252,,,,,,,,,,,,,,,,,,,,,,,,,,,,left,1,70,-30,40,1,2182.325896,2182.325896,2182.325896,None,None,2,0,0.4020422,,,,,,,,,,,,,,,,,,,,,,10,6,2,2024-10-25_12h56.53.491,uWM_experiment,2022.2.3,59.98505172
,,,,,,,,,,,,,,,,,,,,9,0,9,0,9,0,9,0,,,,,,,,,,,,,,,,,,,,,,,,,,,,,,,,,,,,,,,,,,,,,,,,,,,,,,,,,,,,,,,,,,,,,,0.115789252,,,,,,,,,,,,,,,,,,,,,,,,,,,,left,0,100,30,130,1,2189.226139,2189.226139,2189.226139,None,None,2,0,0.7979256,,,,,,,,,,,,,,,,,,,,,,10,6,2,2024-10-25_12h56.53.491,uWM_experiment,2022.2.3,59.98505172
,,,,,,,,,,,,,,,,,,,,9,0,9,0,10,0,10,0,,,,,,,,,,,,,,,,,,,,,,,,,,,,,,,,,,,,,,,,,,,,,,,,,,,,,,,,,,,,,,,,,,,,,,0.105789252,,,,,,,,,,,,,,,,,,,,,,,,,,,,left,1,70,-30,40,1,2195.809729,2195.809729,2195.809729,None,None,2,0,0.3982627,,,,,,,,,,,,,,,,,,,,,,10,6,2,2024-10-25_12h56.53.491,uWM_experiment,2022.2.3,59.98505172
,,,,,,,,,,,,,,,,,,,,9,0,9,0,11,0,11,0,,,,,,,,,,,,,,,,,,,,,,,,,,,,,,,,,,,,,,,,,,,,,,,,,,,,,,,,,,,,,,,,,,,,,,0.095789252,,,,,,,,,,,,,,,,,,,,,,,,,,,,left,0,130,30,160,1,2202.826693,2202.826693,2202.826693,None,None,1,1,0.493209,,,,,,,,,,,,,,,,,,,,,,10,6,2,2024-10-25_12h56.53.491,uWM_experiment,2022.2.3,59.98505172
,,,,,,,,,,,,,,,,,,,,9,0,9,0,12,0,12,0,,,,,,,,,,,,,,,,,,,,,,,,,,,,,,,,,,,,,,,,,,,,,,,,,,,,,,,,,,,,,,,,,,,,,,0.1,,,,,,,,,,,,,,,,,,,,,,,,,,,,left,1,130,-30,100,2,2209.643622,2209.643622,2209.643622,None,None,4,0,0.5162281,,,,,,,,,,,,,,,,,,,,,,10,6,2,2024-10-25_12h56.53.491,uWM_experiment,2022.2.3,59.98505172
,,,,,,,,,,,,,,,,,,,,9,0,9,0,13,0,13,0,,,,,,,,,,,,,,,,,,,,,,,,,,,,,,,,,,,,,,,,,,,,,,,,,,,,,,,,,,,,,,,,,,,,,,0.105789252,,,,,,,,,,,,,,,,,,,,,,,,,,,,right,1,10,30,40,1,2216.227187,2216.227187,2216.227187,None,None,3,0,0.4606661,,,,,,,,,,,,,,,,,,,,,,10,6,2,2024-10-25_12h56.53.491,uWM_experiment,2022.2.3,59.98505172
,,,,,,,,,,,,,,,,,,,,9,0,9,0,14,0,14,0,,,,,,,,,,,,,,,,,,,,,,,,,,,,,,,,,,,,,,,,,,,,,,,,,,,,,,,,,,,,,,,,,,,,,,0.095789252,,,,,,,,,,,,,,,,,,,,,,,,,,,,right,1,130,30,160,1,2222.794121,2222.794121,2222.794121,None,None,2,0,0.4375815,,,,,,,,,,,,,,,,,,,,,,10,6,2,2024-10-25_12h56.53.491,uWM_experiment,2022.2.3,59.98505172
,,,,,,,,,,,,,,,,,,,,9,0,9,0,15,0,15,0,,,,,,,,,,,,,,,,,,,,,,,,,,,,,,,,,,,,,,,,,,,,,,,,,,,,,,,,,,,,,,,,,,,,,,0,,,,,,,,,,,,,,,,,,,,,,,,,,,,right,0,40,-30,10,0,2229.661069,2229.661069,2229.661069,None,None,1,1,0.4506141,,,,,,,,,,,,,,,,,,,,,,10,6,2,2024-10-25_12h56.53.491,uWM_experiment,2022.2.3,59.98505172
,,,,,,,,,,,,,,,,,,,,9,0,9,0,16,0,16,0,,,,,,,,,,,,,,,,,,,,,,,,,,,,,,,,,,,,,,,,,,,,,,,,,,,,,,,,,,,,,,,,,,,,,,0,,,,,,,,,,,,,,,,,,,,,,,,,,,,left,1,130,-30,100,0,2236.06133,2236.06133,2236.06133,None,None,1,1,0.3784362,,,,,,,,,,,,,,,,,,,,,,10,6,2,2024-10-25_12h56.53.491,uWM_experiment,2022.2.3,59.98505172
,,,,,,,,,,,,,,,,,,,,9,0,9,0,17,0,17,0,,,,,,,,,,,,,,,,,,,,,,,,,,,,,,,,,,,,,,,,,,,,,,,,,,,,,,,,,,,,,,,,,,,,,,0.085789252,,,,,,,,,,,,,,,,,,,,,,,,,,,,right,0,100,-30,70,1,2242.461578,2242.461578,2242.461578,None,None,1,1,0.3540776,,,,,,,,,,,,,,,,,,,,,,10,6,2,2024-10-25_12h56.53.491,uWM_experiment,2022.2.3,59.98505172
,,,,,,,,,,,,,,,,,,,,9,0,9,0,18,0,18,0,,,,,,,,,,,,,,,,,,,,,,,,,,,,,,,,,,,,,,,,,,,,,,,,,,,,,,,,,,,,,,,,,,,,,,0,,,,,,,,,,,,,,,,,,,,,,,,,,,,right,1,160,30,190,0,2248.14513,2248.14513,2248.14513,None,None,1,1,0.4225312,,,,,,,,,,,,,,,,,,,,,,10,6,2,2024-10-25_12h56.53.491,uWM_experiment,2022.2.3,59.98505172
,,,,,,,,,,,,,,,,,,,,9,0,9,0,19,0,19,0,,,,,,,,,,,,,,,,,,,,,,,,,,,,,,,,,,,,,,,,,,,,,,,,,,,,,,,,,,,,,,,,,,,,,,0.095789252,,,,,,,,,,,,,,,,,,,,,,,,,,,,right,0,100,-30,70,1,2254.978732,2254.978732,2254.978732,None,None,1,1,0.5729694,,,,,,,,,,,,,,,,,,,,,,10,6,2,2024-10-25_12h56.53.491,uWM_experiment,2022.2.3,59.98505172
,,,,,,,,,,,,,,,,,,,,9,0,9,0,20,0,20,0,,,,,,,,,,,,,,,,,,,,,,,,,,,,,,,,,,,,,,,,,,,,,,,,,,,,,,,,,,,,,,,,,,,,,,0.105789252,,,,,,,,,,,,,,,,,,,,,,,,,,,,right,1,40,30,70,1,2261.128987,2261.128987,2261.128987,None,None,2,0,0.4545183,,,,,,,,,,,,,,,,,,,,,,10,6,2,2024-10-25_12h56.53.491,uWM_experiment,2022.2.3,59.98505172
,,,,,,,,,,,,,,,,,,,,9,0,9,0,21,0,21,0,,,,,,,,,,,,,,,,,,,,,,,,,,,,,,,,,,,,,,,,,,,,,,,,,,,,,,,,,,,,,,,,,,,,,,0.095789252,,,,,,,,,,,,,,,,,,,,,,,,,,,,left,1,10,-30,-20,1,2267.012521,2267.012521,2267.012521,None,None,1,1,0.3229852,,,,,,,,,,,,,,,,,,,,,,10,6,2,2024-10-25_12h56.53.491,uWM_experiment,2022.2.3,59.98505172
,,,,,,,,,,,,,,,,,,,,9,0,9,0,22,0,22,0,,,,,,,,,,,,,,,,,,,,,,,,,,,,,,,,,,,,,,,,,,,,,,,,,,,,,,,,,,,,,,,,,,,,,,0.105789252,,,,,,,,,,,,,,,,,,,,,,,,,,,,left,0,70,30,100,1,2273.362781,2273.362781,2273.362781,None,None,2,0,0.4447703,,,,,,,,,,,,,,,,,,,,,,10,6,2,2024-10-25_12h56.53.491,uWM_experiment,2022.2.3,59.98505172
,,,,,,,,,,,,,,,,,,,,9,0,9,0,23,0,23,0,,,,,,,,,,,,,,,,,,,,,,,,,,,,,,,,,,,,,,,,,,,,,,,,,,,,,,,,,,,,,,,,,,,,,,0.095789252,,,,,,,,,,,,,,,,,,,,,,,,,,,,right,0,100,-30,70,1,2279.413021,2279.413021,2279.413021,None,None,2,0,0.4504496,,,,,,,,,,,,,,,,,,,,,,10,6,2,2024-10-25_12h56.53.491,uWM_experiment,2022.2.3,59.98505172
,,,,,,,,,,,,,,,,,,,,9,0,9,0,,,,,0,0,0,0,,,,,,,,,,,,,,,,,,,,,,,,,,,,,,,,,,,,,,,,,,,,,,,,,,,,,,,,,,,,,,,,,,,,,,,,,,,,,,,,,,,,,,,,,,,,,,,,,,,,,,,,,,,,2279.896359,2279.896359,space,35.6229818,None,None,,,,,,,,,,,,,,,,10,6,2,2024-10-25_12h56.53.491,uWM_experiment,2022.2.3,59.98505172
,,,,,,,,,,,,,,,,,,,,9,0,9,0,,,,,1,0,1,0,,,,,,,,,,,,,,,,,,,,,,,,,,,,,,,,,,,,,,,,,,,,,,,,,,,,,,,,,,,,,,,,,,,,,,,,,,,,,,,,,,,,,,,,,,,,,,,,,,,,,,,,,,,,,,,,,,,,,,,,,,,,,,,,,10,6,2,2024-10-25_12h56.53.491,uWM_experiment,2022.2.3,59.98505172
,,,,,,,,,,,,,,,,,,,,9,0,9,0,,,,,2,0,2,0,,,,,,,,,,,,,,,,,,,,,,,,,,,,,,,,,,,,,,,,,,,,,,,,,,,,,,,,,,,,,,,,,,,,,,,,,,,,,,,,,,,,,,,,,,,,,,,,,,,,,,,,,,,,,,,,,,,,,,,,,,,,,,,,,10,6,2,2024-10-25_12h56.53.491,uWM_experiment,2022.2.3,59.98505172
,,,,,,,,,,,,,,,,,,,,10,0,10,0,0,0,0,0,,,,,,,,,,,,,,,,,,,,,,,,,,,,,,,,,,,,,,,,,,,,,,,,,,,,,,,,,,,,,,,,,,,,,,0,,,,,,,,,,,,,,,,,,,,2315.547755,2316.247776,2316.547831,2317.247817,2317.547847,2318.247865,2318.247865,2318.564564,left,0,100,30,130,0,2323.131387,2323.131387,2323.131387,None,None,1,1,0.4838232,,,,,,,None,,,,,,,,,,,,,,,10,6,2,2024-10-25_12h56.53.491,uWM_experiment,2022.2.3,59.98505172
,,,,,,,,,,,,,,,,,,,,10,0,10,0,1,0,1,0,,,,,,,,,,,,,,,,,,,,,,,,,,,,,,,,,,,,,,,,,,,,,,,,,,,,,,,,,,,,,,,,,,,,,,0,,,,,,,,,,,,,,,,,,,,,,,,,,,,right,1,40,30,70,0,2329.714998,2329.714998,2329.714998,None,None,1,1,1.2841438,,,,,,,,,,,,,,,,,,,,,,10,6,2,2024-10-25_12h56.53.491,uWM_experiment,2022.2.3,59.98505172
,,,,,,,,,,,,,,,,,,,,10,0,10,0,2,0,2,0,,,,,,,,,,,,,,,,,,,,,,,,,,,,,,,,,,,,,,,,,,,,,,,,,,,,,,,,,,,,,,,,,,,,,,0,,,,,,,,,,,,,,,,,,,,,,,,,,,,right,0,40,-30,10,0,2336.698566,2336.698566,2336.698566,None,None,1,1,0.5406583,,,,,,,,,,,,,,,,,,,,,,10,6,2,2024-10-25_12h56.53.491,uWM_experiment,2022.2.3,59.98505172
,,,,,,,,,,,,,,,,,,,,10,0,10,0,3,0,3,0,,,,,,,,,,,,,,,,,,,,,,,,,,,,,,,,,,,,,,,,,,,,,,,,,,,,,,,,,,,,,,,,,,,,,,0.085789252,,,,,,,,,,,,,,,,,,,,,,,,,,,,left,1,70,-30,40,1,2342.865496,2342.865496,2342.865496,None,None,4,0,0.4776861,,,,,,,,,,,,,,,,,,,,,,10,6,2,2024-10-25_12h56.53.491,uWM_experiment,2022.2.3,59.98505172
,,,,,,,,,,,,,,,,,,,,10,0,10,0,4,0,4,0,,,,,,,,,,,,,,,,,,,,,,,,,,,,,,,,,,,,,,,,,,,,,,,,,,,,,,,,,,,,,,,,,,,,,,0,,,,,,,,,,,,,,,,,,,,,,,,,,,,right,1,40,30,70,0,2350.665814,2350.665814,2350.665814,None,None,1,1,0.6852073,,,,,,,,,,,,,,,,,,,,,,10,6,2,2024-10-25_12h56.53.491,uWM_experiment,2022.2.3,59.98505172
,,,,,,,,,,,,,,,,,,,,10,0,10,0,5,0,5,0,,,,,,,,,,,,,,,,,,,,,,,,,,,,,,,,,,,,,,,,,,,,,,,,,,,,,,,,,,,,,,,,,,,,,,0.075789252,,,,,,,,,,,,,,,,,,,,,,,,,,,,left,0,70,30,100,1,2357.682758,2357.682758,2357.682758,None,None,1,1,0.9404002,,,,,,,,,,,,,,,,,,,,,,10,6,2,2024-10-25_12h56.53.491,uWM_experiment,2022.2.3,59.98505172
,,,,,,,,,,,,,,,,,,,,10,0,10,0,6,0,6,0,,,,,,,,,,,,,,,,,,,,,,,,,,,,,,,,,,,,,,,,,,,,,,,,,,,,,,,,,,,,,,,,,,,,,,0,,,,,,,,,,,,,,,,,,,,,,,,,,,,left,1,10,-30,-20,0,2365.083081,2365.083081,2365.083081,None,None,1,1,0.515956,,,,,,,,,,,,,,,,,,,,,,10,6,2,2024-10-25_12h56.53.491,uWM_experiment,2022.2.3,59.98505172
,,,,,,,,,,,,,,,,,,,,10,0,10,0,7,0,7,0,,,,,,,,,,,,,,,,,,,,,,,,,,,,,,,,,,,,,,,,,,,,,,,,,,,,,,,,,,,,,,,,,,,,,,0.085789252,,,,,,,,,,,,,,,,,,,,,,,,,,,,left,1,70,-30,40,1,2372.566678,2372.566678,2372.566678,None,None,1,1,0.3842464,,,,,,,,,,,,,,,,,,,,,,10,6,2,2024-10-25_12h56.53.491,uWM_experiment,2022.2.3,59.98505172
,,,,,,,,,,,,,,,,,,,,10,0,10,0,8,0,8,0,,,,,,,,,,,,,,,,,,,,,,,,,,,,,,,,,,,,,,,,,,,,,,,,,,,,,,,,,,,,,,,,,,,,,,0.095789252,,,,,,,,,,,,,,,,,,,,,,,,,,,,right,1,100,30,130,1,2378.533569,2378.533569,2378.533569,None,None,2,0,0.3373067,,,,,,,,,,,,,,,,,,,,,,10,6,2,2024-10-25_12h56.53.491,uWM_experiment,2022.2.3,59.98505172
,,,,,,,,,,,,,,,,,,,,10,0,10,0,9,0,9,0,,,,,,,,,,,,,,,,,,,,,,,,,,,,,,,,,,,,,,,,,,,,,,,,,,,,,,,,,,,,,,,,,,,,,,0.085789252,,,,,,,,,,,,,,,,,,,,,,,,,,,,right,1,100,30,130,1,2384.250465,2384.250465,2384.250465,None,None,1,1,0.2363753,,,,,,,,,,,,,,,,,,,,,,10,6,2,2024-10-25_12h56.53.491,uWM_experiment,2022.2.3,59.98505172
,,,,,,,,,,,,,,,,,,,,10,0,10,0,10,0,10,0,,,,,,,,,,,,,,,,,,,,,,,,,,,,,,,,,,,,,,,,,,,,,,,,,,,,,,,,,,,,,,,,,,,,,,0.095789252,,,,,,,,,,,,,,,,,,,,,,,,,,,,left,1,160,-30,130,1,2391.150737,2391.150737,2391.150737,None,None,3,0,0.3200977,,,,,,,,,,,,,,,,,,,,,,10,6,2,2024-10-25_12h56.53.491,uWM_experiment,2022.2.3,59.98505172
,,,,,,,,,,,,,,,,,,,,10,0,10,0,11,0,11,0,,,,,,,,,,,,,,,,,,,,,,,,,,,,,,,,,,,,,,,,,,,,,,,,,,,,,,,,,,,,,,,,,,,,,,0.085789252,,,,,,,,,,,,,,,,,,,,,,,,,,,,left,1,70,-30,40,1,2396.967633,2396.967633,2396.967633,None,None,2,0,0.3432954,,,,,,,,,,,,,,,,,,,,,,10,6,2,2024-10-25_12h56.53.491,uWM_experiment,2022.2.3,59.98505172
,,,,,,,,,,,,,,,,,,,,10,0,10,0,12,0,12,0,,,,,,,,,,,,,,,,,,,,,,,,,,,,,,,,,,,,,,,,,,,,,,,,,,,,,,,,,,,,,,,,,,,,,,0.075789252,,,,,,,,,,,,,,,,,,,,,,,,,,,,right,1,160,30,190,1,2403.117872,2403.117872,2403.117872,None,None,2,0,2.936853,,,,,,,,,,,,,,,,,,,,,,10,6,2,2024-10-25_12h56.53.491,uWM_experiment,2022.2.3,59.98505172
,,,,,,,,,,,,,,,,,,,,10,0,10,0,13,0,13,0,,,,,,,,,,,,,,,,,,,,,,,,,,,,,,,,,,,,,,,,,,,,,,,,,,,,,,,,,,,,,,,,,,,,,,0.065789252,,,,,,,,,,,,,,,,,,,,,,,,,,,,left,0,130,30,160,1,2411.934871,2411.934871,2411.934871,None,None,1,1,2.4079213,,,,,,,,,,,,,,,,,,,,,,10,6,2,2024-10-25_12h56.53.491,uWM_experiment,2022.2.3,59.98505172
,,,,,,,,,,,,,,,,,,,,10,0,10,0,14,0,14,0,,,,,,,,,,,,,,,,,,,,,,,,,,,,,,,,,,,,,,,,,,,,,,,,,,,,,,,,,,,,,,,,,,,,,,0.075789252,,,,,,,,,,,,,,,,,,,,,,,,,,,,left,0,100,30,130,1,2422.801972,2422.801972,2422.801972,None,None,1,1,0.7647652,,,,,,,,,,,,,,,,,,,,,,10,6,2,2024-10-25_12h56.53.491,uWM_experiment,2022.2.3,59.98505172
,,,,,,,,,,,,,,,,,,,,10,0,10,0,15,0,15,0,,,,,,,,,,,,,,,,,,,,,,,,,,,,,,,,,,,,,,,,,,,,,,,,,,,,,,,,,,,,,,,,,,,,,,0.085789252,,,,,,,,,,,,,,,,,,,,,,,,,,,,right,0,70,-30,40,1,2430.918946,2430.918946,2430.918946,None,None,1,1,0.9836936,,,,,,,,,,,,,,,,,,,,,,10,6,2,2024-10-25_12h56.53.491,uWM_experiment,2022.2.3,59.98505172
