PreTrainingPAS4_loop.thisRepN,PreTrainingPAS4_loop.thisTrialN,PreTrainingPAS4_loop.thisN,PreTrainingPAS4_loop.thisIndex,PreTrainingPAS1_loop.thisRepN,PreTrainingPAS1_loop.thisTrialN,PreTrainingPAS1_loop.thisN,PreTrainingPAS1_loop.thisIndex,RepeatCV_loop.thisRepN,RepeatCV_loop.thisTrialN,RepeatCV_loop.thisN,RepeatCV_loop.thisIndex,TrainingCV_loop.thisRepN,TrainingCV_loop.thisTrialN,TrainingCV_loop.thisN,TrainingCV_loop.thisIndex,TrainingCAL_loop.thisRepN,TrainingCAL_loop.thisTrialN,TrainingCAL_loop.thisN,TrainingCAL_loop.thisIndex,blocks_loop.thisRepN,blocks_loop.thisTrialN,blocks_loop.thisN,blocks_loop.thisIndex,trials_loop.thisRepN,trials_loop.thisTrialN,trials_loop.thisN,trials_loop.thisIndex,TrainingPAS1_loop.thisRepN,TrainingPAS1_loop.thisTrialN,TrainingPAS1_loop.thisN,TrainingPAS1_loop.thisIndex,spacebarWelcome0.started,spacebarWelcome0.keys,spacebarWelcome0.rt,spacebarWelcome1.started,gaborWelcome1.started,maskWelcome1.started,textMaskWelcome1.started,spacebarWelcome1.keys,spacebarWelcome1.rt,spacebarWelcome2.started,spacebarWelcome2.keys,spacebarWelcome2.rt,textInst_PreTrainingPAS4.started,spacebarPreTrainingPAS4.started,spacebarPreTrainingPAS4.keys,spacebarPreTrainingPAS4.rt,textPreTrainingPAS1.started,spacebarPreTrainingPAS1.started,spacebarPreTrainingPAS1.keys,spacebarPreTrainingPAS1.rt,textQUEST0.started,spacebarQUEST0.started,spacebarQUEST0.keys,spacebarQUEST0.rt,spacebar0.started,spacebar0.keys,spacebar0.rt,spacebar1.started,spacebar1.keys,spacebar1.rt,textInstructions2.started,spacebar2.started,Gabor1Inst2.started,Gabor2Inst2.started,Gabor3Inst2.started,Gabor4Inst2.started,spacebar2.keys,spacebar2.rt,textInstructionsPAS.started,spacebarInstPAS.started,spacebarInstPAS.keys,spacebarInstPAS.rt,textInstructions3.started,spacebar3.started,spacebar3.keys,spacebar3.rt,WMresp_CV,WMresp_CV_acc,oriMemo_CV,gyre_CV,oriTest_CV,feedbackText.started,feedbackText.stopped,sliderCV.started,PAStextCV.started,PASkeyCV.started,sliderCV.response,sliderCV.rt,PASkeyCV.keys,PASkeyCV.corr,PASkeyCV.rt,TextInstructionsCAL.started,spacebarCAL.started,spacebarCAL.keys,spacebarCAL.rt,contrast,WMresp_CAL,WMresp_CAL_acc,oriMemo_CAL,gyre_CAL,oriTest_CAL,cue_CAL,sliderCAL.started,PAStextCAL.started,PASkeyCAL.started,sliderCAL.response,sliderCAL.rt,PASkeyCAL.keys,PASkeyCAL.corr,PASkeyCAL.rt,propUnseen_CAL,textStart.started,spacebar4.started,spacebar4.keys,spacebar4.rt,three.started,three.stopped,two.started,two.stopped,one.started,one.stopped,blank_countdown.started,blank_countdown.stopped,WMresp,WMresp_acc,oriMemo,gyre,oriTest,cue,slider.started,textPAS_firstGabor.started,PASkey.started,slider.response,slider.rt,PASkey.keys,PASkey.corr,PASkey.rt,spacebarContinue.started,textBreak.started,spacebarContinue.keys,spacebarContinue.rt,spacebar_reminder.keys,spacebar_TrainingPAS1.keys,spacebar_endpractice.keys,spacebar_reminder.started,textReminder.started,spacebar_reminder.rt,textInst_TrainingPAS1.started,spacebar_TrainingPAS1.started,spacebar_TrainingPAS1.rt,textend_practicePAS1.started,spacebar_endpractice.started,spacebar_endpractice.rt,textThanks.started,textThanks.stopped,laboratory,participant,session,date,expName,psychopyVersion,frameRate
,,,,,,,,,,,,,,,,,,,,,,,,,,,,,,,,30.0217752,space,2.7787629,,,,,,,,,,,,,,,,,,,,,,,,,,,,,,,,,,,,,,,,,,,,,,,,,,,,,,,,,,,,,,,,,,,,,,,,,,,,,,,,,,,,,,,,,,,,,,,,,,,,,,,,,,,,,,,,,,,,,,,,,,,10,7,1,2024-10-18_15h08.49.031,uWM_experiment,2022.2.3,60.00376824
,,,,,,,,,,,,,,,,,,,,,,,,,,,,,,,,,,,32.8382755,32.8382755,32.8382755,32.8382755,space,23.4260311,,,,,,,,,,,,,,,,,,,,,,,,,,,,,,,,,,,,,,,,,,,,,,,,,,,,,,,,,,,,,,,,,,,,,,,,,,,,,,,,,,,,,,,,,,,,,,,,,,,,,,,,,,,,,,,,,,,,,10,7,1,2024-10-18_15h08.49.031,uWM_experiment,2022.2.3,60.00376824
,,,,,,,,,,,,,,,,,,,,,,,,,,,,,,,,,,,,,,,,,56.2891764,space,50.9589197,,,,,,,,,,,,,,,,,,,,,,,,,,,,,,,,,,,,,,,,,,,,,,,,,,,,,,,,,,,,,,,,,,,,,,,,,,,,,,,,,,,,,,,,,,,,,,,,,,,,,,,,,,,,,,,,,,10,7,1,2024-10-18_15h08.49.031,uWM_experiment,2022.2.3,60.00376824
,,,,,,,,,,,,,,,,,,,,,,,,,,,,,,,,,,,,,,,,,,,,107.2745063,107.2745063,space,16.661607,,,,,,,,,,,,,,,,,,,,,,,,,,,,,,,,,,,,,,,,,,,,,,,,,,,,,,,,,,,,,,,,,,,,,,,,,,,,,,,,,,,,,,,,,,,,,,,,,,,,,,,,,,,,,,10,7,1,2024-10-18_15h08.49.031,uWM_experiment,2022.2.3,60.00376824
0,0,0,0,,,,,,,,,,,,,,,,,,,,,,,,,,,,,,,,,,,,,,,,,,,,,,,,,,,,,,,,,,,,,,,,,,,,,,,,,,,,,,,,,,,,,,,,,,,,,,,,,,,,,,,,,,,,,,,,,,,,,,,,,,,,,,,,,,,,,,,,,,,,,,,,,,,,,,,,,,10,7,1,2024-10-18_15h08.49.031,uWM_experiment,2022.2.3,60.00376824
1,0,1,0,,,,,,,,,,,,,,,,,,,,,,,,,,,,,,,,,,,,,,,,,,,,,,,,,,,,,,,,,,,,,,,,,,,,,,,,,,,,,,,,,,,,,,,,,,,,,,,,,,,,,,,,,,,,,,,,,,,,,,,,,,,,,,,,,,,,,,,,,,,,,,,,,,,,,,,,,,10,7,1,2024-10-18_15h08.49.031,uWM_experiment,2022.2.3,60.00376824
2,0,2,0,,,,,,,,,,,,,,,,,,,,,,,,,,,,,,,,,,,,,,,,,,,,,,,,,,,,,,,,,,,,,,,,,,,,,,,,,,,,,,,,,,,,,,,,,,,,,,,,,,,,,,,,,,,,,,,,,,,,,,,,,,,,,,,,,,,,,,,,,,,,,,,,,,,,,,,,,,10,7,1,2024-10-18_15h08.49.031,uWM_experiment,2022.2.3,60.00376824
,,,,,,,,,,,,,,,,,,,,,,,,,,,,,,,,,,,,,,,,,,,,,,,,132.1421332,132.1421332,space,24.51373,,,,,,,,,,,,,,,,,,,,,,,,,,,,,,,,,,,,,,,,,,,,,,,,,,,,,,,,,,,,,,,,,,,,,,,,,,,,,,,,,,,,,,,,,,,,,,,,,,,,,,,,,,10,7,1,2024-10-18_15h08.49.031,uWM_experiment,2022.2.3,60.00376824
,,,,0,0,0,0,,,,,,,,,,,,,,,,,,,,,,,,,,,,,,,,,,,,,,,,,,,,,,,,,,,,,,,,,,,,,,,,,,,,,,,,,,,,,,,,,,,,,,,,,,,,,,,,,,,,,,,,,,,,,,,,,,,,,,,,,,,,,,,,,,,,,,,,,,,,,,,,,,,,,,10,7,1,2024-10-18_15h08.49.031,uWM_experiment,2022.2.3,60.00376824
,,,,1,0,1,0,,,,,,,,,,,,,,,,,,,,,,,,,,,,,,,,,,,,,,,,,,,,,,,,,,,,,,,,,,,,,,,,,,,,,,,,,,,,,,,,,,,,,,,,,,,,,,,,,,,,,,,,,,,,,,,,,,,,,,,,,,,,,,,,,,,,,,,,,,,,,,,,,,,,,,10,7,1,2024-10-18_15h08.49.031,uWM_experiment,2022.2.3,60.00376824
,,,,2,0,2,0,,,,,,,,,,,,,,,,,,,,,,,,,,,,,,,,,,,,,,,,,,,,,,,,,,,,,,,,,,,,,,,,,,,,,,,,,,,,,,,,,,,,,,,,,,,,,,,,,,,,,,,,,,,,,,,,,,,,,,,,,,,,,,,,,,,,,,,,,,,,,,,,,,,,,,10,7,1,2024-10-18_15h08.49.031,uWM_experiment,2022.2.3,60.00376824
,,,,,,,,,,,,,,,,,,,,,,,,,,,,,,,,,,,,,,,,,,,,,,,,,,,,165.7101633,165.7101633,space,6.9535562,,,,,,,,,,,,,,,,,,,,,,,,,,,,,,,,,,,,,,,,,,,,,,,,,,,,,,,,,,,,,,,,,,,,,,,,,,,,,,,,,,,,,,,,,,,,,,,,,,,,,,10,7,1,2024-10-18_15h08.49.031,uWM_experiment,2022.2.3,60.00376824
,,,,,,,,,,,,,,,,,,,,,,,,,,,,,,,,,,,,,,,,,,,,,,,,,,,,,,,,323.1163883,space,12.4107459,,,,,,,,,,,,,,,,,,,,,,,,,,,,,,,,,,,,,,,,,,,,,,,,,,,,,,,,,,,,,,,,,,,,,,,,,,,,,,,,,,,,,,,,,,,,,,,,,,,10,7,1,2024-10-18_15h08.49.031,uWM_experiment,2022.2.3,60.00376824
,,,,,,,,,,,,,,,,,,,,,,,,,,,,,,,,,,,,,,,,,,,,,,,,,,,,,,,,,,,335.5502332,space,90.7524973,,,,,,,,,,,,,,,,,,,,,,,,,,,,,,,,,,,,,,,,,,,,,,,,,,,,,,,,,,,,,,,,,,,,,,,,,,,,,,,,,,,,,,,,,,,,,,,,10,7,1,2024-10-18_15h08.49.031,uWM_experiment,2022.2.3,60.00376824
,,,,,,,,,,,,,,,,,,,,,,,,,,,,,,,,,,,,,,,,,,,,,,,,,,,,,,,,,,,,,,426.3204656,426.3204656,426.3204656,426.3204656,426.3204656,426.3204656,space,37.7101571,,,,,,,,,,,,,,,,,,,,,,,,,,,,,,,,,,,,,,,,,,,,,,,,,,,,,,,,,,,,,,,,,,,,,,,,,,,,,,,,,,,,,,,,10,7,1,2024-10-18_15h08.49.031,uWM_experiment,2022.2.3,60.00376824
,,,,,,,,,,,,,,,,,,,,,,,,,,,,,,,,,,,,,,,,,,,,,,,,,,,,,,,,,,,,,,,,,,,,,,464.0552933,464.0552933,space,24.8951581,,,,,,,,,,,,,,,,,,,,,,,,,,,,,,,,,,,,,,,,,,,,,,,,,,,,,,,,,,,,,,,,,,,,,,,,,,,,,,,,,,,,10,7,1,2024-10-18_15h08.49.031,uWM_experiment,2022.2.3,60.00376824
,,,,,,,,,,,,,,,,,,,,,,,,,,,,,,,,,,,,,,,,,,,,,,,,,,,,,,,,,,,,,,,,,,,,,,,,,,488.9729493,488.9729493,space,23.193363,,,,,,,,,,,,,,,,,,,,,,,,,,,,,,,,,,,,,,,,,,,,,,,,,,,,,,,,,,,,,,,,,,,,,,,,,,,,,,,,10,7,1,2024-10-18_15h08.49.031,uWM_experiment,2022.2.3,60.00376824
,,,,,,,,0,0,0,0,0,0,0,0,,,,,,,,,,,,,,,,,,,,,,,,,,,,,,,,,,,,,,,,,,,,,,,,,,,,,,,,,,,,,,,right,1,70,30,100,523.1076595,524.1076954,524.1076954,524.1076954,524.1076954,None,None,3,0,4.3065239,,,,,,,,,,,,,,,,,,,,,,,,,,,,,,,,,,,,,,,,,,,,,,,,,,,,,,,,,,,,,,,,,10,7,1,2024-10-18_15h08.49.031,uWM_experiment,2022.2.3,60.00376824
,,,,,,,,0,0,0,0,1,0,1,0,,,,,,,,,,,,,,,,,,,,,,,,,,,,,,,,,,,,,,,,,,,,,,,,,,,,,,,,,,,,,,,left,1,130,-30,100,534.7747891,535.7748185,535.7748185,535.7748185,535.7748185,None,None,4,0,2.7593502,,,,,,,,,,,,,,,,,,,,,,,,,,,,,,,,,,,,,,,,,,,,,,,,,,,,,,,,,,,,,,,,,10,7,1,2024-10-18_15h08.49.031,uWM_experiment,2022.2.3,60.00376824
,,,,,,,,0,0,0,0,2,0,2,0,,,,,,,,,,,,,,,,,,,,,,,,,,,,,,,,,,,,,,,,,,,,,,,,,,,,,,,,,,,,,,,left,1,10,-30,-20,544.7585041,545.7585366,545.7585366,545.7585366,545.7585366,None,None,4,0,1.0955606,,,,,,,,,,,,,,,,,,,,,,,,,,,,,,,,,,,,,,,,,,,,,,,,,,,,,,,,,,,,,,,,,10,7,1,2024-10-18_15h08.49.031,uWM_experiment,2022.2.3,60.00376824
,,,,,,,,0,0,0,0,3,0,3,0,,,,,,,,,,,,,,,,,,,,,,,,,,,,,,,,,,,,,,,,,,,,,,,,,,,,,,,,,,,,,,,right,1,160,30,190,553.0255254,554.0255481,554.0255481,554.0255481,554.0255481,None,None,4,0,1.0685327,,,,,,,,,,,,,,,,,,,,,,,,,,,,,,,,,,,,,,,,,,,,,,,,,,,,,,,,,,,,,,,,,10,7,1,2024-10-18_15h08.49.031,uWM_experiment,2022.2.3,60.00376824
,,,,,,,,0,0,0,0,4,0,4,0,,,,,,,,,,,,,,,,,,,,,,,,,,,,,,,,,,,,,,,,,,,,,,,,,,,,,,,,,,,,,,,left,1,160,-30,130,561.0758475,562.0758605,562.0758605,562.0758605,562.0758605,None,None,4,0,1.6662377,,,,,,,,,,,,,,,,,,,,,,,,,,,,,,,,,,,,,,,,,,,,,,,,,,,,,,,,,,,,,,,,,10,7,1,2024-10-18_15h08.49.031,uWM_experiment,2022.2.3,60.00376824
,,,,,,,,0,0,0,0,5,0,5,0,,,,,,,,,,,,,,,,,,,,,,,,,,,,,,,,,,,,,,,,,,,,,,,,,,,,,,,,,,,,,,,right,1,40,30,70,570.0928551,571.0929056,571.0929056,571.0929056,571.0929056,None,None,4,0,0.5131064,,,,,,,,,,,,,,,,,,,,,,,,,,,,,,,,,,,,,,,,,,,,,,,,,,,,,,,,,,,,,,,,,10,7,1,2024-10-18_15h08.49.031,uWM_experiment,2022.2.3,60.00376824
,,,,,,,,0,0,0,0,6,0,6,0,,,,,,,,,,,,,,,,,,,,,,,,,,,,,,,,,,,,,,,,,,,,,,,,,,,,,,,,,,,,,,,left,1,130,-30,100,577.4098295,578.4098478,578.4098478,578.4098478,578.4098478,None,None,4,0,0.4360263,,,,,,,,,,,,,,,,,,,,,,,,,,,,,,,,,,,,,,,,,,,,,,,,,,,,,,,,,,,,,,,,,10,7,1,2024-10-18_15h08.49.031,uWM_experiment,2022.2.3,60.00376824
,,,,,,,,0,0,0,0,7,0,7,0,,,,,,,,,,,,,,,,,,,,,,,,,,,,,,,,,,,,,,,,,,,,,,,,,,,,,,,,,,,,,,,right,1,100,30,130,584.6767979,585.676806,585.676806,585.676806,585.676806,None,None,4,0,0.3451921,,,,,,,,,,,,,,,,,,,,,,,,,,,,,,,,,,,,,,,,,,,,,,,,,,,,,,,,,,,,,,,,,10,7,1,2024-10-18_15h08.49.031,uWM_experiment,2022.2.3,60.00376824
,,,,,,,,0,0,0,0,8,0,8,0,,,,,,,,,,,,,,,,,,,,,,,,,,,,,,,,,,,,,,,,,,,,,,,,,,,,,,,,,,,,,,,right,1,40,30,70,591.8103835,592.8104262,592.8104262,592.8104262,592.8104262,None,None,4,0,0.5634261,,,,,,,,,,,,,,,,,,,,,,,,,,,,,,,,,,,,,,,,,,,,,,,,,,,,,,,,,,,,,,,,,10,7,1,2024-10-18_15h08.49.031,uWM_experiment,2022.2.3,60.00376824
,,,,,,,,0,0,0,0,9,0,9,0,,,,,,,,,,,,,,,,,,,,,,,,,,,,,,,,,,,,,,,,,,,,,,,,,,,,,,,,,,,,,,,left,1,70,-30,40,599.327367,600.3273794,600.3273794,600.3273794,600.3273794,None,None,4,0,0.4945026,,,,,,,,,,,,,,,,,,,,,,,,,,,,,,,,,,,,,,,,,,,,,,,,,,,,,,,,,,,,,,,,,10,7,1,2024-10-18_15h08.49.031,uWM_experiment,2022.2.3,60.00376824
,,,,,,,,0,0,0,0,10,0,10,0,,,,,,,,,,,,,,,,,,,,,,,,,,,,,,,,,,,,,,,,,,,,,,,,,,,,,,,,,,,,,,,right,1,10,30,40,606.744311,607.7443182,607.7443182,607.7443182,607.7443182,None,None,4,0,0.7815163,,,,,,,,,,,,,,,,,,,,,,,,,,,,,,,,,,,,,,,,,,,,,,,,,,,,,,,,,,,,,,,,,10,7,1,2024-10-18_15h08.49.031,uWM_experiment,2022.2.3,60.00376824
,,,,,,,,0,0,0,0,11,0,11,0,,,,,,,,,,,,,,,,,,,,,,,,,,,,,,,,,,,,,,,,,,,,,,,,,,,,,,,,,,,,,,,right,1,130,30,160,614.6946387,615.6946674,615.6946674,615.6946674,615.6946674,None,None,4,0,1.9590762,,,,,,,,,,,,,,,,,,,,,,,,,,,,,,,,,,,,,,,,,,,,,,,,,,,,,,,,,,,,,,,,,10,7,1,2024-10-18_15h08.49.031,uWM_experiment,2022.2.3,60.00376824
,,,,,,,,0,0,0,0,,,,,,,,,,,,,,,,,,,,,,,,,,,,,,,,,,,,,,,,,,,,,,,,,,,,,,,,,,,,,,,,,,,,,,,,,,,,,,,,,,,,,,,,,,,,,,,,,,,,,,,,,,,,,,,,,,,,,,,,,,,,,,,,,,,,,,,,,,,,,,,,,,10,7,1,2024-10-18_15h08.49.031,uWM_experiment,2022.2.3,60.00376824
,,,,,,,,,,,,,,,,,,,,,,,,,,,,,,,,,,,,,,,,,,,,,,,,,,,,,,,,,,,,,,,,,,,,,,,,,,,,,,,,,,,,,,,,,,,,,643.9290901,643.9290901,space,4.3966618,,,,,,,,,,,,,,,,,,,,,,,,,,,,,,,,,,,,,,,,,,,,,,,,,,,,,,,,,,,,,10,7,1,2024-10-18_15h08.49.031,uWM_experiment,2022.2.3,60.00376824
,,,,,,,,,,,,,,,,0,0,0,0,,,,,,,,,,,,,,,,,,,,,,,,,,,,,,,,,,,,,,,,,,,,,,,,,,,,,,,,,,,,,,,,,,,,,,,,,,,,,,0.313564681,left,0,70,30,100,1,653.9628406,653.9628406,653.9628406,None,None,3,0,5.2108229,,,,,,,,,,,,,,,,,,,,,,,,,,,,,,,,,,,,,,,,,,,,,,10,7,1,2024-10-18_15h08.49.031,uWM_experiment,2022.2.3,60.00376824
,,,,,,,,,,,,,,,,1,0,1,0,,,,,,,,,,,,,,,,,,,,,,,,,,,,,,,,,,,,,,,,,,,,,,,,,,,,,,,,,,,,,,,,,,,,,,,,,,,,,,0.303564681,right,1,160,30,190,1,664.7799505,664.7799505,664.7799505,None,None,3,0,2.7296398,0,,,,,,,,,,,,,,,,,,,,,,,,,,,,,,,,,,,,,,,,,,,,,10,7,1,2024-10-18_15h08.49.031,uWM_experiment,2022.2.3,60.00376824
,,,,,,,,,,,,,,,,2,0,2,0,,,,,,,,,,,,,,,,,,,,,,,,,,,,,,,,,,,,,,,,,,,,,,,,,,,,,,,,,,,,,,,,,,,,,,,,,,,,,,0.293564681,left,1,130,-30,100,1,673.2802655,673.2802655,673.2802655,None,None,3,0,1.8212005,0,,,,,,,,,,,,,,,,,,,,,,,,,,,,,,,,,,,,,,,,,,,,,10,7,1,2024-10-18_15h08.49.031,uWM_experiment,2022.2.3,60.00376824
,,,,,,,,,,,,,,,,3,0,3,0,,,,,,,,,,,,,,,,,,,,,,,,,,,,,,,,,,,,,,,,,,,,,,,,,,,,,,,,,,,,,,,,,,,,,,,,,,,,,,0.1,left,1,40,-30,10,2,681.1806046,681.1806046,681.1806046,None,None,4,0,1.6728991,0,,,,,,,,,,,,,,,,,,,,,,,,,,,,,,,,,,,,,,,,,,,,,10,7,1,2024-10-18_15h08.49.031,uWM_experiment,2022.2.3,60.00376824
,,,,,,,,,,,,,,,,4,0,4,0,,,,,,,,,,,,,,,,,,,,,,,,,,,,,,,,,,,,,,,,,,,,,,,,,,,,,,,,,,,,,,,,,,,,,,,,,,,,,,0.1,right,1,10,30,40,2,688.7975503,688.7975503,688.7975503,None,None,4,0,1.2959199,0,,,,,,,,,,,,,,,,,,,,,,,,,,,,,,,,,,,,,,,,,,,,,10,7,1,2024-10-18_15h08.49.031,uWM_experiment,2022.2.3,60.00376824
,,,,,,,,,,,,,,,,5,0,5,0,,,,,,,,,,,,,,,,,,,,,,,,,,,,,,,,,,,,,,,,,,,,,,,,,,,,,,,,,,,,,,,,,,,,,,,,,,,,,,0.283564681,left,1,70,-30,40,1,696.3811906,696.3811906,696.3811906,None,None,1,1,1.5122951,0,,,,,,,,,,,,,,,,,,,,,,,,,,,,,,,,,,,,,,,,,,,,,10,7,1,2024-10-18_15h08.49.031,uWM_experiment,2022.2.3,60.00376824
,,,,,,,,,,,,,,,,6,0,6,0,,,,,,,,,,,,,,,,,,,,,,,,,,,,,,,,,,,,,,,,,,,,,,,,,,,,,,,,,,,,,,,,,,,,,,,,,,,,,,0.1,left,1,40,-30,10,2,703.9981801,703.9981801,703.9981801,None,None,4,0,1.3992952,0.166666667,,,,,,,,,,,,,,,,,,,,,,,,,,,,,,,,,,,,,,,,,,,,,10,7,1,2024-10-18_15h08.49.031,uWM_experiment,2022.2.3,60.00376824
,,,,,,,,,,,,,,,,7,0,7,0,,,,,,,,,,,,,,,,,,,,,,,,,,,,,,,,,,,,,,,,,,,,,,,,,,,,,,,,,,,,,,,,,,,,,,,,,,,,,,0.293564681,right,0,100,-30,70,1,711.1984371,711.1984371,711.1984371,None,None,2,0,1.406988,0.142857143,,,,,,,,,,,,,,,,,,,,,,,,,,,,,,,,,,,,,,,,,,,,,10,7,1,2024-10-18_15h08.49.031,uWM_experiment,2022.2.3,60.00376824
,,,,,,,,,,,,,,,,8,0,8,0,,,,,,,,,,,,,,,,,,,,,,,,,,,,,,,,,,,,,,,,,,,,,,,,,,,,,,,,,,,,,,,,,,,,,,,,,,,,,,0.283564681,right,1,100,30,130,1,718.8154075,718.8154075,718.8154075,None,None,3,0,5.061925,0.125,,,,,,,,,,,,,,,,,,,,,,,,,,,,,,,,,,,,,,,,,,,,,10,7,1,2024-10-18_15h08.49.031,uWM_experiment,2022.2.3,60.00376824
,,,,,,,,,,,,,,,,9,0,9,0,,,,,,,,,,,,,,,,,,,,,,,,,,,,,,,,,,,,,,,,,,,,,,,,,,,,,,,,,,,,,,,,,,,,,,,,,,,,,,0.273564681,right,1,160,30,190,1,729.5491832,729.5491832,729.5491832,None,None,3,0,3.8961063,0.111111111,,,,,,,,,,,,,,,,,,,,,,,,,,,,,,,,,,,,,,,,,,,,,10,7,1,2024-10-18_15h08.49.031,uWM_experiment,2022.2.3,60.00376824
,,,,,,,,,,,,,,,,10,0,10,0,,,,,,,,,,,,,,,,,,,,,,,,,,,,,,,,,,,,,,,,,,,,,,,,,,,,,,,,,,,,,,,,,,,,,,,,,,,,,,0.263564681,right,1,40,30,70,1,739.6829111,739.6829111,739.6829111,None,None,3,0,4.698363,0.1,,,,,,,,,,,,,,,,,,,,,,,,,,,,,,,,,,,,,,,,,,,,,10,7,1,2024-10-18_15h08.49.031,uWM_experiment,2022.2.3,60.00376824
,,,,,,,,,,,,,,,,11,0,11,0,,,,,,,,,,,,,,,,,,,,,,,,,,,,,,,,,,,,,,,,,,,,,,,,,,,,,,,,,,,,,,,,,,,,,,,,,,,,,,0.1,right,0,100,-30,70,2,752.7334414,752.7334414,752.7334414,None,None,2,0,1.2557079,0.090909091,,,,,,,,,,,,,,,,,,,,,,,,,,,,,,,,,,,,,,,,,,,,,10,7,1,2024-10-18_15h08.49.031,uWM_experiment,2022.2.3,60.00376824
,,,,,,,,,,,,,,,,12,0,12,0,,,,,,,,,,,,,,,,,,,,,,,,,,,,,,,,,,,,,,,,,,,,,,,,,,,,,,,,,,,,,,,,,,,,,,,,,,,,,,0.1,left,1,130,-30,100,2,760.0003887,760.0003887,760.0003887,None,None,3,0,2.1166915,0.083333333,,,,,,,,,,,,,,,,,,,,,,,,,,,,,,,,,,,,,,,,,,,,,10,7,1,2024-10-18_15h08.49.031,uWM_experiment,2022.2.3,60.00376824
,,,,,,,,,,,,,,,,13,0,13,0,,,,,,,,,,,,,,,,,,,,,,,,,,,,,,,,,,,,,,,,,,,,,,,,,,,,,,,,,,,,,,,,,,,,,,,,,,,,,,0.1,right,1,10,30,40,2,769.4674121,769.4674121,769.4674121,None,None,3,0,1.4257456,0.076923077,,,,,,,,,,,,,,,,,,,,,,,,,,,,,,,,,,,,,,,,,,,,,10,7,1,2024-10-18_15h08.49.031,uWM_experiment,2022.2.3,60.00376824
,,,,,,,,,,,,,,,,14,0,14,0,,,,,,,,,,,,,,,,,,,,,,,,,,,,,,,,,,,,,,,,,,,,,,,,,,,,,,,,,,,,,,,,,,,,,,,,,,,,,,0.1,right,0,100,-30,70,2,777.0843885,777.0843885,777.0843885,None,None,4,0,3.0326739,0.071428571,,,,,,,,,,,,,,,,,,,,,,,,,,,,,,,,,,,,,,,,,,,,,10,7,1,2024-10-18_15h08.49.031,uWM_experiment,2022.2.3,60.00376824
,,,,,,,,,,,,,,,,15,0,15,0,,,,,,,,,,,,,,,,,,,,,,,,,,,,,,,,,,,,,,,,,,,,,,,,,,,,,,,,,,,,,,,,,,,,,,,,,,,,,,0.253564681,left,0,130,30,160,1,786.0847554,786.0847554,786.0847554,None,None,2,0,1.8721745,0.066666667,,,,,,,,,,,,,,,,,,,,,,,,,,,,,,,,,,,,,,,,,,,,,10,7,1,2024-10-18_15h08.49.031,uWM_experiment,2022.2.3,60.00376824
,,,,,,,,,,,,,,,,16,0,16,0,,,,,,,,,,,,,,,,,,,,,,,,,,,,,,,,,,,,,,,,,,,,,,,,,,,,,,,,,,,,,,,,,,,,,,,,,,,,,,0.243564681,right,1,130,30,160,1,794.3850784,794.3850784,794.3850784,None,None,3,0,1.1799664,0.0625,,,,,,,,,,,,,,,,,,,,,,,,,,,,,,,,,,,,,,,,,,,,,10,7,1,2024-10-18_15h08.49.031,uWM_experiment,2022.2.3,60.00376824
,,,,,,,,,,,,,,,,17,0,17,0,,,,,,,,,,,,,,,,,,,,,,,,,,,,,,,,,,,,,,,,,,,,,,,,,,,,,,,,,,,,,,,,,,,,,,,,,,,,,,0.233564681,right,0,70,-30,40,1,801.2686882,801.2686882,801.2686882,None,None,2,0,4.9521491,0.058823529,,,,,,,,,,,,,,,,,,,,,,,,,,,,,,,,,,,,,,,,,,,,,10,7,1,2024-10-18_15h08.49.031,uWM_experiment,2022.2.3,60.00376824
,,,,,,,,,,,,,,,,18,0,18,0,,,,,,,,,,,,,,,,,,,,,,,,,,,,,,,,,,,,,,,,,,,,,,,,,,,,,,,,,,,,,,,,,,,,,,,,,,,,,,0.1,right,1,10,30,40,2,812.1857901,812.1857901,812.1857901,None,None,4,0,1.2350625,0.055555556,,,,,,,,,,,,,,,,,,,,,,,,,,,,,,,,,,,,,,,,,,,,,10,7,1,2024-10-18_15h08.49.031,uWM_experiment,2022.2.3,60.00376824
,,,,,,,,,,,,,,,,19,0,19,0,,,,,,,,,,,,,,,,,,,,,,,,,,,,,,,,,,,,,,,,,,,,,,,,,,,,,,,,,,,,,,,,,,,,,,,,,,,,,,0.223564681,left,1,160,-30,130,1,819.1693905,819.1693905,819.1693905,None,None,3,0,1.8034164,0.052631579,,,,,,,,,,,,,,,,,,,,,,,,,,,,,,,,,,,,,,,,,,,,,10,7,1,2024-10-18_15h08.49.031,uWM_experiment,2022.2.3,60.00376824
,,,,,,,,,,,,,,,,20,0,20,0,,,,,,,,,,,,,,,,,,,,,,,,,,,,,,,,,,,,,,,,,,,,,,,,,,,,,,,,,,,,,,,,,,,,,,,,,,,,,,0.1,left,1,10,-30,-20,2,826.7863708,826.7863708,826.7863708,None,None,4,0,1.2425104,0.05,,,,,,,,,,,,,,,,,,,,,,,,,,,,,,,,,,,,,,,,,,,,,10,7,1,2024-10-18_15h08.49.031,uWM_experiment,2022.2.3,60.00376824
,,,,,,,,,,,,,,,,21,0,21,0,,,,,,,,,,,,,,,,,,,,,,,,,,,,,,,,,,,,,,,,,,,,,,,,,,,,,,,,,,,,,,,,,,,,,,,,,,,,,,0.1,left,0,70,30,100,2,834.0533317,834.0533317,834.0533317,None,None,4,0,1.111435,0.047619048,,,,,,,,,,,,,,,,,,,,,,,,,,,,,,,,,,,,,,,,,,,,,10,7,1,2024-10-18_15h08.49.031,uWM_experiment,2022.2.3,60.00376824
,,,,,,,,,,,,,,,,22,0,22,0,,,,,,,,,,,,,,,,,,,,,,,,,,,,,,,,,,,,,,,,,,,,,,,,,,,,,,,,,,,,,,,,,,,,,,,,,,,,,,0.1,left,1,160,-30,130,2,841.3702874,841.3702874,841.3702874,None,None,4,0,1.3305451,0.045454545,,,,,,,,,,,,,,,,,,,,,,,,,,,,,,,,,,,,,,,,,,,,,10,7,1,2024-10-18_15h08.49.031,uWM_experiment,2022.2.3,60.00376824
,,,,,,,,,,,,,,,,23,0,23,0,,,,,,,,,,,,,,,,,,,,,,,,,,,,,,,,,,,,,,,,,,,,,,,,,,,,,,,,,,,,,,,,,,,,,,,,,,,,,,0.1,right,1,40,30,70,2,849.3039092,849.3039092,849.3039092,None,None,4,0,0.8527398,0.043478261,,,,,,,,,,,,,,,,,,,,,,,,,,,,,,,,,,,,,,,,,,,,,10,7,1,2024-10-18_15h08.49.031,uWM_experiment,2022.2.3,60.00376824
,,,,,,,,,,,,,,,,,,,,,,,,,,,,,,,,,,,,,,,,,,,,,,,,,,,,,,,,,,,,,,,,,,,,,,,,,,,,,,,,,,,,,,,,,,,,,,,,,,,,,,,,,,,,,,,,,850.1872684,851.1873083,space,19.0253403,,,,,,,,,,,,,,,,,,,,,,,,,,,,,,,,,,,,,,,,,10,7,1,2024-10-18_15h08.49.031,uWM_experiment,2022.2.3,60.00376824
,,,,,,,,,,,,,,,,,,,,0,0,0,0,0,0,0,0,,,,,,,,,,,,,,,,,,,,,,,,,,,,,,,,,,,,,,,,,,,,,,,,,,,,,,,,,,,,,,,,,,,,,,0.223564681,,,,,,,,,,,,,,,,,,,,870.2380852,870.9380995,871.2214619,871.9214725,872.2214818,872.9215192,872.9215192,873.2716077,left,1,10,-30,-20,1,878.0883891,878.0883891,878.0883891,None,None,3,0,3.1002398,,,,,,,,,,,,,,,,,,,10,7,1,2024-10-18_15h08.49.031,uWM_experiment,2022.2.3,60.00376824
,,,,,,,,,,,,,,,,,,,,0,0,0,0,1,0,1,0,,,,,,,,,,,,,,,,,,,,,,,,,,,,,,,,,,,,,,,,,,,,,,,,,,,,,,,,,,,,,,,,,,,,,,0.213564681,,,,,,,,,,,,,,,,,,,,,,,,,,,,right,0,70,-30,40,1,887.1887526,887.1887526,887.1887526,None,None,2,0,1.3998532,,,,,,,,,,,,,,,,,,,10,7,1,2024-10-18_15h08.49.031,uWM_experiment,2022.2.3,60.00376824
,,,,,,,,,,,,,,,,,,,,0,0,0,0,2,0,2,0,,,,,,,,,,,,,,,,,,,,,,,,,,,,,,,,,,,,,,,,,,,,,,,,,,,,,,,,,,,,,,,,,,,,,,0.203564681,,,,,,,,,,,,,,,,,,,,,,,,,,,,right,1,160,30,190,1,896.2391291,896.2391291,896.2391291,None,None,2,0,1.9653638,,,,,,,,,,,,,,,,,,,10,7,1,2024-10-18_15h08.49.031,uWM_experiment,2022.2.3,60.00376824
,,,,,,,,,,,,,,,,,,,,0,0,0,0,3,0,3,0,,,,,,,,,,,,,,,,,,,,,,,,,,,,,,,,,,,,,,,,,,,,,,,,,,,,,,,,,,,,,,,,,,,,,,0.193564681,,,,,,,,,,,,,,,,,,,,,,,,,,,,right,1,40,30,70,1,904.089438,904.089438,904.089438,None,None,2,0,1.3070017,,,,,,,,,,,,,,,,,,,10,7,1,2024-10-18_15h08.49.031,uWM_experiment,2022.2.3,60.00376824
,,,,,,,,,,,,,,,,,,,,0,0,0,0,4,0,4,0,,,,,,,,,,,,,,,,,,,,,,,,,,,,,,,,,,,,,,,,,,,,,,,,,,,,,,,,,,,,,,,,,,,,,,0.183564681,,,,,,,,,,,,,,,,,,,,,,,,,,,,right,0,70,-30,40,1,911.5563836,911.5563836,911.5563836,None,None,2,0,2.4801012,,,,,,,,,,,,,,,,,,,10,7,1,2024-10-18_15h08.49.031,uWM_experiment,2022.2.3,60.00376824
,,,,,,,,,,,,,,,,,,,,0,0,0,0,5,0,5,0,,,,,,,,,,,,,,,,,,,,,,,,,,,,,,,,,,,,,,,,,,,,,,,,,,,,,,,,,,,,,,,,,,,,,,0.173564681,,,,,,,,,,,,,,,,,,,,,,,,,,,,left,1,10,-30,-20,1,919.8067185,919.8067185,919.8067185,None,None,2,0,0.9817322,,,,,,,,,,,,,,,,,,,10,7,1,2024-10-18_15h08.49.031,uWM_experiment,2022.2.3,60.00376824
,,,,,,,,,,,,,,,,,,,,0,0,0,0,6,0,6,0,,,,,,,,,,,,,,,,,,,,,,,,,,,,,,,,,,,,,,,,,,,,,,,,,,,,,,,,,,,,,,,,,,,,,,0.163564681,,,,,,,,,,,,,,,,,,,,,,,,,,,,left,1,40,-30,10,1,926.79033,926.79033,926.79033,None,None,3,0,1.0780322,,,,,,,,,,,,,,,,,,,10,7,1,2024-10-18_15h08.49.031,uWM_experiment,2022.2.3,60.00376824
,,,,,,,,,,,,,,,,,,,,0,0,0,0,7,0,7,0,,,,,,,,,,,,,,,,,,,,,,,,,,,,,,,,,,,,,,,,,,,,,,,,,,,,,,,,,,,,,,,,,,,,,,0.153564681,,,,,,,,,,,,,,,,,,,,,,,,,,,,right,0,100,-30,70,1,934.0906229,934.0906229,934.0906229,None,None,3,0,1.4898055,,,,,,,,,,,,,,,,,,,10,7,1,2024-10-18_15h08.49.031,uWM_experiment,2022.2.3,60.00376824
,,,,,,,,,,,,,,,,,,,,0,0,0,0,8,0,8,0,,,,,,,,,,,,,,,,,,,,,,,,,,,,,,,,,,,,,,,,,,,,,,,,,,,,,,,,,,,,,,,,,,,,,,0.143564681,,,,,,,,,,,,,,,,,,,,,,,,,,,,left,1,40,-30,10,1,941.424236,941.424236,941.424236,None,None,2,0,12.5320219,,,,,,,,,,,,,,,,,,,10,7,1,2024-10-18_15h08.49.031,uWM_experiment,2022.2.3,60.00376824
,,,,,,,,,,,,,,,,,,,,0,0,0,0,9,0,9,0,,,,,,,,,,,,,,,,,,,,,,,,,,,,,,,,,,,,,,,,,,,,,,,,,,,,,,,,,,,,,,,,,,,,,,0.133564681,,,,,,,,,,,,,,,,,,,,,,,,,,,,left,1,160,-30,130,1,959.6749398,959.6749398,959.6749398,None,None,3,0,1.4891985,,,,,,,,,,,,,,,,,,,10,7,1,2024-10-18_15h08.49.031,uWM_experiment,2022.2.3,60.00376824
,,,,,,,,,,,,,,,,,,,,0,0,0,0,10,0,10,0,,,,,,,,,,,,,,,,,,,,,,,,,,,,,,,,,,,,,,,,,,,,,,,,,,,,,,,,,,,,,,,,,,,,,,0.123564681,,,,,,,,,,,,,,,,,,,,,,,,,,,,right,1,40,30,70,1,966.8585907,966.8585907,966.8585907,None,None,3,0,1.0976666,,,,,,,,,,,,,,,,,,,10,7,1,2024-10-18_15h08.49.031,uWM_experiment,2022.2.3,60.00376824
,,,,,,,,,,,,,,,,,,,,0,0,0,0,11,0,11,0,,,,,,,,,,,,,,,,,,,,,,,,,,,,,,,,,,,,,,,,,,,,,,,,,,,,,,,,,,,,,,,,,,,,,,0.113564681,,,,,,,,,,,,,,,,,,,,,,,,,,,,left,0,130,30,160,1,973.6088557,973.6088557,973.6088557,None,None,3,0,0.8113597,,,,,,,,,,,,,,,,,,,10,7,1,2024-10-18_15h08.49.031,uWM_experiment,2022.2.3,60.00376824
,,,,,,,,,,,,,,,,,,,,0,0,0,0,12,0,12,0,,,,,,,,,,,,,,,,,,,,,,,,,,,,,,,,,,,,,,,,,,,,,,,,,,,,,,,,,,,,,,,,,,,,,,0.103564681,,,,,,,,,,,,,,,,,,,,,,,,,,,,left,1,10,-30,-20,1,980.1591069,980.1591069,980.1591069,None,None,3,0,0.7091037,,,,,,,,,,,,,,,,,,,10,7,1,2024-10-18_15h08.49.031,uWM_experiment,2022.2.3,60.00376824
,,,,,,,,,,,,,,,,,,,,0,0,0,0,13,0,13,0,,,,,,,,,,,,,,,,,,,,,,,,,,,,,,,,,,,,,,,,,,,,,,,,,,,,,,,,,,,,,,,,,,,,,,0.093564681,,,,,,,,,,,,,,,,,,,,,,,,,,,,right,0,100,-30,70,1,987.1093842,987.1093842,987.1093842,None,None,1,1,1.1267636,,,,,,,,,,,,,,,,,,,10,7,1,2024-10-18_15h08.49.031,uWM_experiment,2022.2.3,60.00376824
,,,,,,,,,,,,,,,,,,,,0,0,0,0,14,0,14,0,,,,,,,,,,,,,,,,,,,,,,,,,,,,,,,,,,,,,,,,,,,,,,,,,,,,,,,,,,,,,,,,,,,,,,0.103564681,,,,,,,,,,,,,,,,,,,,,,,,,,,,right,0,70,-30,40,1,995.076362,995.076362,995.076362,None,None,2,0,1.5676475,,,,,,,,,,,,,,,,,,,10,7,1,2024-10-18_15h08.49.031,uWM_experiment,2022.2.3,60.00376824
,,,,,,,,,,,,,,,,,,,,0,0,0,0,15,0,15,0,,,,,,,,,,,,,,,,,,,,,,,,,,,,,,,,,,,,,,,,,,,,,,,,,,,,,,,,,,,,,,,,,,,,,,0.093564681,,,,,,,,,,,,,,,,,,,,,,,,,,,,left,0,70,30,100,1,1003.526689,1003.526689,1003.526689,None,None,1,1,2.0453458,,,,,,,,,,,,,,,,,,,10,7,1,2024-10-18_15h08.49.031,uWM_experiment,2022.2.3,60.00376824
,,,,,,,,,,,,,,,,,,,,0,0,0,0,16,0,16,0,,,,,,,,,,,,,,,,,,,,,,,,,,,,,,,,,,,,,,,,,,,,,,,,,,,,,,,,,,,,,,,,,,,,,,0.103564681,,,,,,,,,,,,,,,,,,,,,,,,,,,,right,0,40,-30,10,1,1011.827003,1011.827003,1011.827003,None,None,2,0,1.3049299,,,,,,,,,,,,,,,,,,,10,7,1,2024-10-18_15h08.49.031,uWM_experiment,2022.2.3,60.00376824
,,,,,,,,,,,,,,,,,,,,0,0,0,0,17,0,17,0,,,,,,,,,,,,,,,,,,,,,,,,,,,,,,,,,,,,,,,,,,,,,,,,,,,,,,,,,,,,,,,,,,,,,,0,,,,,,,,,,,,,,,,,,,,,,,,,,,,right,1,40,30,70,0,1019.427359,1019.427359,1019.427359,None,None,2,0,1.600571,,,,,,,,,,,,,,,,,,,10,7,1,2024-10-18_15h08.49.031,uWM_experiment,2022.2.3,60.00376824
,,,,,,,,,,,,,,,,,,,,0,0,0,0,18,0,18,0,,,,,,,,,,,,,,,,,,,,,,,,,,,,,,,,,,,,,,,,,,,,,,,,,,,,,,,,,,,,,,,,,,,,,,0,,,,,,,,,,,,,,,,,,,,,,,,,,,,left,0,70,30,100,0,1026.577618,1026.577618,1026.577618,None,None,1,1,0.570266,,,,,,,,,,,,,,,,,,,10,7,1,2024-10-18_15h08.49.031,uWM_experiment,2022.2.3,60.00376824
,,,,,,,,,,,,,,,,,,,,0,0,0,0,19,0,19,0,,,,,,,,,,,,,,,,,,,,,,,,,,,,,,,,,,,,,,,,,,,,,,,,,,,,,,,,,,,,,,,,,,,,,,0.093564681,,,,,,,,,,,,,,,,,,,,,,,,,,,,left,0,100,30,130,1,1032.927879,1032.927879,1032.927879,None,None,1,1,0.6600861,,,,,,,,,,,,,,,,,,,10,7,1,2024-10-18_15h08.49.031,uWM_experiment,2022.2.3,60.00376824
,,,,,,,,,,,,,,,,,,,,0,0,0,0,20,0,20,0,,,,,,,,,,,,,,,,,,,,,,,,,,,,,,,,,,,,,,,,,,,,,,,,,,,,,,,,,,,,,,,,,,,,,,0.103564681,,,,,,,,,,,,,,,,,,,,,,,,,,,,right,1,40,30,70,1,1040.628174,1040.628174,1040.628174,None,None,1,1,2.3356108,,,,,,,,,,,,,,,,,,,10,7,1,2024-10-18_15h08.49.031,uWM_experiment,2022.2.3,60.00376824
,,,,,,,,,,,,,,,,,,,,0,0,0,0,21,0,21,0,,,,,,,,,,,,,,,,,,,,,,,,,,,,,,,,,,,,,,,,,,,,,,,,,,,,,,,,,,,,,,,,,,,,,,0,,,,,,,,,,,,,,,,,,,,,,,,,,,,right,1,40,30,70,0,1048.81182,1048.81182,1048.81182,None,None,1,1,0.4638874,,,,,,,,,,,,,,,,,,,10,7,1,2024-10-18_15h08.49.031,uWM_experiment,2022.2.3,60.00376824
,,,,,,,,,,,,,,,,,,,,0,0,0,0,22,0,22,0,,,,,,,,,,,,,,,,,,,,,,,,,,,,,,,,,,,,,,,,,,,,,,,,,,,,,,,,,,,,,,,,,,,,,,0,,,,,,,,,,,,,,,,,,,,,,,,,,,,left,0,70,30,100,0,1055.012099,1055.012099,1055.012099,None,None,1,1,0.4716658,,,,,,,,,,,,,,,,,,,10,7,1,2024-10-18_15h08.49.031,uWM_experiment,2022.2.3,60.00376824
,,,,,,,,,,,,,,,,,,,,0,0,0,0,23,0,23,0,,,,,,,,,,,,,,,,,,,,,,,,,,,,,,,,,,,,,,,,,,,,,,,,,,,,,,,,,,,,,,,,,,,,,,0.113564681,,,,,,,,,,,,,,,,,,,,,,,,,,,,left,1,10,-30,-20,1,1060.962315,1060.962315,1060.962315,None,None,1,1,0.7374253,,,,,,,,,,,,,,,,,,,10,7,1,2024-10-18_15h08.49.031,uWM_experiment,2022.2.3,60.00376824
,,,,,,,,,,,,,,,,,,,,0,0,0,0,,,,,0,0,0,0,,,,,,,,,,,,,,,,,,,,,,,,,,,,,,,,,,,,,,,,,,,,,,,,,,,,,,,,,,,,,,,,,,,,,,,,,,,,,,,,,,,,,,,,,,,,,,,,,,,,,,,,,,,,1061.728983,1061.728983,space,25.0106862,None,None,,,,,,,,,,,,,10,7,1,2024-10-18_15h08.49.031,uWM_experiment,2022.2.3,60.00376824
,,,,,,,,,,,,,,,,,,,,0,0,0,0,,,,,1,0,1,0,,,,,,,,,,,,,,,,,,,,,,,,,,,,,,,,,,,,,,,,,,,,,,,,,,,,,,,,,,,,,,,,,,,,,,,,,,,,,,,,,,,,,,,,,,,,,,,,,,,,,,,,,,,,,,,,,,,,,,,,,,,,,,10,7,1,2024-10-18_15h08.49.031,uWM_experiment,2022.2.3,60.00376824
,,,,,,,,,,,,,,,,,,,,0,0,0,0,,,,,2,0,2,0,,,,,,,,,,,,,,,,,,,,,,,,,,,,,,,,,,,,,,,,,,,,,,,,,,,,,,,,,,,,,,,,,,,,,,,,,,,,,,,,,,,,,,,,,,,,,,,,,,,,,,,,,,,,,,,,,,,,,,,,,,,,,,10,7,1,2024-10-18_15h08.49.031,uWM_experiment,2022.2.3,60.00376824
,,,,,,,,,,,,,,,,,,,,1,0,1,0,0,0,0,0,,,,,,,,,,,,,,,,,,,,,,,,,,,,,,,,,,,,,,,,,,,,,,,,,,,,,,,,,,,,,,,,,,,,,,0.123564681,,,,,,,,,,,,,,,,,,,,1086.763318,1087.463342,1087.763355,1088.463381,1088.763393,1089.463422,1089.463422,1089.780109,right,1,160,30,190,1,1094.663646,1094.663646,1094.663646,None,None,2,0,0.8760427,,,,,,,None,,,,,,,,,,,,10,7,1,2024-10-18_15h08.49.031,uWM_experiment,2022.2.3,60.00376824
,,,,,,,,,,,,,,,,,,,,1,0,1,0,1,0,1,0,,,,,,,,,,,,,,,,,,,,,,,,,,,,,,,,,,,,,,,,,,,,,,,,,,,,,,,,,,,,,,,,,,,,,,0,,,,,,,,,,,,,,,,,,,,,,,,,,,,left,0,100,30,130,0,1101.547229,1101.547229,1101.547229,None,None,1,1,1.512367,,,,,,,,,,,,,,,,,,,10,7,1,2024-10-18_15h08.49.031,uWM_experiment,2022.2.3,60.00376824
,,,,,,,,,,,,,,,,,,,,1,0,1,0,2,0,2,0,,,,,,,,,,,,,,,,,,,,,,,,,,,,,,,,,,,,,,,,,,,,,,,,,,,,,,,,,,,,,,,,,,,,,,0,,,,,,,,,,,,,,,,,,,,,,,,,,,,right,0,70,-30,40,0,1108.64754,1108.64754,1108.64754,None,None,2,0,2.8441228,,,,,,,,,,,,,,,,,,,10,7,1,2024-10-18_15h08.49.031,uWM_experiment,2022.2.3,60.00376824
,,,,,,,,,,,,,,,,,,,,1,0,1,0,3,0,3,0,,,,,,,,,,,,,,,,,,,,,,,,,,,,,,,,,,,,,,,,,,,,,,,,,,,,,,,,,,,,,,,,,,,,,,0.113564681,,,,,,,,,,,,,,,,,,,,,,,,,,,,left,1,10,-30,-20,1,1117.147859,1117.147859,1117.147859,None,None,1,1,0.4957224,,,,,,,,,,,,,,,,,,,10,7,1,2024-10-18_15h08.49.031,uWM_experiment,2022.2.3,60.00376824
,,,,,,,,,,,,,,,,,,,,1,0,1,0,4,0,4,0,,,,,,,,,,,,,,,,,,,,,,,,,,,,,,,,,,,,,,,,,,,,,,,,,,,,,,,,,,,,,,,,,,,,,,0.123564681,,,,,,,,,,,,,,,,,,,,,,,,,,,,right,1,160,30,190,1,1125.698199,1125.698199,1125.698199,None,None,1,1,1.1531975,,,,,,,,,,,,,,,,,,,10,7,1,2024-10-18_15h08.49.031,uWM_experiment,2022.2.3,60.00376824
,,,,,,,,,,,,,,,,,,,,1,0,1,0,5,0,5,0,,,,,,,,,,,,,,,,,,,,,,,,,,,,,,,,,,,,,,,,,,,,,,,,,,,,,,,,,,,,,,,,,,,,,,0.133564681,,,,,,,,,,,,,,,,,,,,,,,,,,,,right,0,40,-30,10,1,1132.981835,1132.981835,1132.981835,None,None,3,0,6.829656,,,,,,,,,,,,,,,,,,,10,7,1,2024-10-18_15h08.49.031,uWM_experiment,2022.2.3,60.00376824
,,,,,,,,,,,,,,,,,,,,1,0,1,0,6,0,6,0,,,,,,,,,,,,,,,,,,,,,,,,,,,,,,,,,,,,,,,,,,,,,,,,,,,,,,,,,,,,,,,,,,,,,,0,,,,,,,,,,,,,,,,,,,,,,,,,,,,left,1,160,-30,130,0,1145.48231,1145.48231,1145.48231,None,None,1,1,0.6811495,,,,,,,,,,,,,,,,,,,10,7,1,2024-10-18_15h08.49.031,uWM_experiment,2022.2.3,60.00376824
,,,,,,,,,,,,,,,,,,,,1,0,1,0,7,0,7,0,,,,,,,,,,,,,,,,,,,,,,,,,,,,,,,,,,,,,,,,,,,,,,,,,,,,,,,,,,,,,,,,,,,,,,0.123564681,,,,,,,,,,,,,,,,,,,,,,,,,,,,left,1,70,-30,40,1,1154.165993,1154.165993,1154.165993,None,None,2,0,2.6853323,,,,,,,,,,,,,,,,,,,10,7,1,2024-10-18_15h08.49.031,uWM_experiment,2022.2.3,60.00376824
,,,,,,,,,,,,,,,,,,,,1,0,1,0,8,0,8,0,,,,,,,,,,,,,,,,,,,,,,,,,,,,,,,,,,,,,,,,,,,,,,,,,,,,,,,,,,,,,,,,,,,,,,0.113564681,,,,,,,,,,,,,,,,,,,,,,,,,,,,left,1,70,-30,40,1,1164.449749,1164.449749,1164.449749,None,None,1,1,2.7374707,,,,,,,,,,,,,,,,,,,10,7,1,2024-10-18_15h08.49.031,uWM_experiment,2022.2.3,60.00376824
,,,,,,,,,,,,,,,,,,,,1,0,1,0,9,0,9,0,,,,,,,,,,,,,,,,,,,,,,,,,,,,,,,,,,,,,,,,,,,,,,,,,,,,,,,,,,,,,,,,,,,,,,0.123564681,,,,,,,,,,,,,,,,,,,,,,,,,,,,right,0,40,-30,10,1,1175.583496,1175.583496,1175.583496,None,None,2,0,5.0437591,,,,,,,,,,,,,,,,,,,10,7,1,2024-10-18_15h08.49.031,uWM_experiment,2022.2.3,60.00376824
,,,,,,,,,,,,,,,,,,,,1,0,1,0,10,0,10,0,,,,,,,,,,,,,,,,,,,,,,,,,,,,,,,,,,,,,,,,,,,,,,,,,,,,,,,,,,,,,,,,,,,,,,0.113564681,,,,,,,,,,,,,,,,,,,,,,,,,,,,left,1,10,-30,-20,1,1186.650623,1186.650623,1186.650623,None,None,1,1,3.8007243,,,,,,,,,,,,,,,,,,,10,7,1,2024-10-18_15h08.49.031,uWM_experiment,2022.2.3,60.00376824
,,,,,,,,,,,,,,,,,,,,1,0,1,0,11,0,11,0,,,,,,,,,,,,,,,,,,,,,,,,,,,,,,,,,,,,,,,,,,,,,,,,,,,,,,,,,,,,,,,,,,,,,,0.123564681,,,,,,,,,,,,,,,,,,,,,,,,,,,,left,1,40,-30,10,1,1196.417663,1196.417663,1196.417663,None,None,3,0,1.2895608,,,,,,,,,,,,,,,,,,,10,7,1,2024-10-18_15h08.49.031,uWM_experiment,2022.2.3,60.00376824
,,,,,,,,,,,,,,,,,,,,1,0,1,0,12,0,12,0,,,,,,,,,,,,,,,,,,,,,,,,,,,,,,,,,,,,,,,,,,,,,,,,,,,,,,,,,,,,,,,,,,,,,,0.113564681,,,,,,,,,,,,,,,,,,,,,,,,,,,,left,0,70,30,100,1,1203.551295,1203.551295,1203.551295,None,None,3,0,1.3637781,,,,,,,,,,,,,,,,,,,10,7,1,2024-10-18_15h08.49.031,uWM_experiment,2022.2.3,60.00376824
,,,,,,,,,,,,,,,,,,,,1,0,1,0,13,0,13,0,,,,,,,,,,,,,,,,,,,,,,,,,,,,,,,,,,,,,,,,,,,,,,,,,,,,,,,,,,,,,,,,,,,,,,0.103564681,,,,,,,,,,,,,,,,,,,,,,,,,,,,left,0,130,30,160,1,1210.634912,1210.634912,1210.634912,None,None,2,0,2.8242735,,,,,,,,,,,,,,,,,,,10,7,1,2024-10-18_15h08.49.031,uWM_experiment,2022.2.3,60.00376824
,,,,,,,,,,,,,,,,,,,,1,0,1,0,14,0,14,0,,,,,,,,,,,,,,,,,,,,,,,,,,,,,,,,,,,,,,,,,,,,,,,,,,,,,,,,,,,,,,,,,,,,,,0.093564681,,,,,,,,,,,,,,,,,,,,,,,,,,,,left,1,130,-30,100,1,1219.318562,1219.318562,1219.318562,None,None,2,0,3.8605521,,,,,,,,,,,,,,,,,,,10,7,1,2024-10-18_15h08.49.031,uWM_experiment,2022.2.3,60.00376824
,,,,,,,,,,,,,,,,,,,,1,0,1,0,15,0,15,0,,,,,,,,,,,,,,,,,,,,,,,,,,,,,,,,,,,,,,,,,,,,,,,,,,,,,,,,,,,,,,,,,,,,,,0.083564681,,,,,,,,,,,,,,,,,,,,,,,,,,,,left,1,130,-30,100,1,1229.085617,1229.085617,1229.085617,None,None,2,0,1.0774094,,,,,,,,,,,,,,,,,,,10,7,1,2024-10-18_15h08.49.031,uWM_experiment,2022.2.3,60.00376824
,,,,,,,,,,,,,,,,,,,,1,0,1,0,16,0,16,0,,,,,,,,,,,,,,,,,,,,,,,,,,,,,,,,,,,,,,,,,,,,,,,,,,,,,,,,,,,,,,,,,,,,,,0.073564681,,,,,,,,,,,,,,,,,,,,,,,,,,,,left,1,40,-30,10,1,1236.05256,1236.05256,1236.05256,None,None,2,0,4.0383653,,,,,,,,,,,,,,,,,,,10,7,1,2024-10-18_15h08.49.031,uWM_experiment,2022.2.3,60.00376824
,,,,,,,,,,,,,,,,,,,,1,0,1,0,17,0,17,0,,,,,,,,,,,,,,,,,,,,,,,,,,,,,,,,,,,,,,,,,,,,,,,,,,,,,,,,,,,,,,,,,,,,,,0.063564681,,,,,,,,,,,,,,,,,,,,,,,,,,,,left,1,10,-30,-20,1,1246.736337,1246.736337,1246.736337,None,None,1,1,1.0426622,,,,,,,,,,,,,,,,,,,10,7,1,2024-10-18_15h08.49.031,uWM_experiment,2022.2.3,60.00376824
,,,,,,,,,,,,,,,,,,,,1,0,1,0,18,0,18,0,,,,,,,,,,,,,,,,,,,,,,,,,,,,,,,,,,,,,,,,,,,,,,,,,,,,,,,,,,,,,,,,,,,,,,0.073564681,,,,,,,,,,,,,,,,,,,,,,,,,,,,right,1,40,30,70,1,1253.769919,1253.769919,1253.769919,None,None,2,0,1.1368941,,,,,,,,,,,,,,,,,,,10,7,1,2024-10-18_15h08.49.031,uWM_experiment,2022.2.3,60.00376824
,,,,,,,,,,,,,,,,,,,,1,0,1,0,19,0,19,0,,,,,,,,,,,,,,,,,,,,,,,,,,,,,,,,,,,,,,,,,,,,,,,,,,,,,,,,,,,,,,,,,,,,,,0,,,,,,,,,,,,,,,,,,,,,,,,,,,,left,0,130,30,160,0,1260.520243,1260.520243,1260.520243,None,None,2,0,1.2266925,,,,,,,,,,,,,,,,,,,10,7,1,2024-10-18_15h08.49.031,uWM_experiment,2022.2.3,60.00376824
,,,,,,,,,,,,,,,,,,,,1,0,1,0,20,0,20,0,,,,,,,,,,,,,,,,,,,,,,,,,,,,,,,,,,,,,,,,,,,,,,,,,,,,,,,,,,,,,,,,,,,,,,0,,,,,,,,,,,,,,,,,,,,,,,,,,,,right,1,10,30,40,0,1267.38715,1267.38715,1267.38715,None,None,3,0,5.1756852,,,,,,,,,,,,,,,,,,,10,7,1,2024-10-18_15h08.49.031,uWM_experiment,2022.2.3,60.00376824
,,,,,,,,,,,,,,,,,,,,1,0,1,0,21,0,21,0,,,,,,,,,,,,,,,,,,,,,,,,,,,,,,,,,,,,,,,,,,,,,,,,,,,,,,,,,,,,,,,,,,,,,,0.063564681,,,,,,,,,,,,,,,,,,,,,,,,,,,,left,1,10,-30,-20,1,1278.320912,1278.320912,1278.320912,None,None,3,0,0.5537819,,,,,,,,,,,,,,,,,,,10,7,1,2024-10-18_15h08.49.031,uWM_experiment,2022.2.3,60.00376824
,,,,,,,,,,,,,,,,,,,,1,0,1,0,22,0,22,0,,,,,,,,,,,,,,,,,,,,,,,,,,,,,,,,,,,,,,,,,,,,,,,,,,,,,,,,,,,,,,,,,,,,,,0.053564681,,,,,,,,,,,,,,,,,,,,,,,,,,,,right,1,40,30,70,1,1284.571147,1284.571147,1284.571147,None,None,3,0,1.1996998,,,,,,,,,,,,,,,,,,,10,7,1,2024-10-18_15h08.49.031,uWM_experiment,2022.2.3,60.00376824
,,,,,,,,,,,,,,,,,,,,1,0,1,0,23,0,23,0,,,,,,,,,,,,,,,,,,,,,,,,,,,,,,,,,,,,,,,,,,,,,,,,,,,,,,,,,,,,,,,,,,,,,,0.1,,,,,,,,,,,,,,,,,,,,,,,,,,,,right,1,160,30,190,2,1292.48813,1292.48813,1292.48813,None,None,4,0,1.0106608,,,,,,,,,,,,,,,,,,,10,7,1,2024-10-18_15h08.49.031,uWM_experiment,2022.2.3,60.00376824
,,,,,,,,,,,,,,,,,,,,1,0,1,0,,,,,0,0,0,0,,,,,,,,,,,,,,,,,,,,,,,,,,,,,,,,,,,,,,,,,,,,,,,,,,,,,,,,,,,,,,,,,,,,,,,,,,,,,,,,,,,,,,,,,,,,,,,,,,,,,,,,,,,,1293.521502,1293.521502,space,26.5691336,None,None,,,,,,,,,,,,,10,7,1,2024-10-18_15h08.49.031,uWM_experiment,2022.2.3,60.00376824
,,,,,,,,,,,,,,,,,,,,1,0,1,0,,,,,1,0,1,0,,,,,,,,,,,,,,,,,,,,,,,,,,,,,,,,,,,,,,,,,,,,,,,,,,,,,,,,,,,,,,,,,,,,,,,,,,,,,,,,,,,,,,,,,,,,,,,,,,,,,,,,,,,,,,,,,,,,,,,,,,,,,,10,7,1,2024-10-18_15h08.49.031,uWM_experiment,2022.2.3,60.00376824
,,,,,,,,,,,,,,,,,,,,1,0,1,0,,,,,2,0,2,0,,,,,,,,,,,,,,,,,,,,,,,,,,,,,,,,,,,,,,,,,,,,,,,,,,,,,,,,,,,,,,,,,,,,,,,,,,,,,,,,,,,,,,,,,,,,,,,,,,,,,,,,,,,,,,,,,,,,,,,,,,,,,,10,7,1,2024-10-18_15h08.49.031,uWM_experiment,2022.2.3,60.00376824
,,,,,,,,,,,,,,,,,,,,2,0,2,0,0,0,0,0,,,,,,,,,,,,,,,,,,,,,,,,,,,,,,,,,,,,,,,,,,,,,,,,,,,,,,,,,,,,,,,,,,,,,,0.043564681,,,,,,,,,,,,,,,,,,,,1320.122547,1320.822573,1321.122611,1321.822613,1322.122631,1322.822654,1322.822654,1323.139336,left,0,130,30,160,1,1328.306192,1328.306192,1328.306192,None,None,1,1,1.9842844,,,,,,,None,,,,,,,,,,,,10,7,1,2024-10-18_15h08.49.031,uWM_experiment,2022.2.3,60.00376824
,,,,,,,,,,,,,,,,,,,,2,0,2,0,1,0,1,0,,,,,,,,,,,,,,,,,,,,,,,,,,,,,,,,,,,,,,,,,,,,,,,,,,,,,,,,,,,,,,,,,,,,,,0.053564681,,,,,,,,,,,,,,,,,,,,,,,,,,,,right,1,70,30,100,1,1337.456565,1337.456565,1337.456565,None,None,3,0,1.6338636,,,,,,,,,,,,,,,,,,,10,7,1,2024-10-18_15h08.49.031,uWM_experiment,2022.2.3,60.00376824
,,,,,,,,,,,,,,,,,,,,2,0,2,0,2,0,2,0,,,,,,,,,,,,,,,,,,,,,,,,,,,,,,,,,,,,,,,,,,,,,,,,,,,,,,,,,,,,,,,,,,,,,,0.043564681,,,,,,,,,,,,,,,,,,,,,,,,,,,,left,0,10,30,40,1,1344.940201,1344.940201,1344.940201,None,None,3,0,1.1183636,,,,,,,,,,,,,,,,,,,10,7,1,2024-10-18_15h08.49.031,uWM_experiment,2022.2.3,60.00376824
,,,,,,,,,,,,,,,,,,,,2,0,2,0,3,0,3,0,,,,,,,,,,,,,,,,,,,,,,,,,,,,,,,,,,,,,,,,,,,,,,,,,,,,,,,,,,,,,,,,,,,,,,0,,,,,,,,,,,,,,,,,,,,,,,,,,,,left,0,100,30,130,0,1351.607133,1351.607133,1351.607133,None,None,2,0,3.1313965,,,,,,,,,,,,,,,,,,,10,7,1,2024-10-18_15h08.49.031,uWM_experiment,2022.2.3,60.00376824
,,,,,,,,,,,,,,,,,,,,2,0,2,0,4,0,4,0,,,,,,,,,,,,,,,,,,,,,,,,,,,,,,,,,,,,,,,,,,,,,,,,,,,,,,,,,,,,,,,,,,,,,,0.1,,,,,,,,,,,,,,,,,,,,,,,,,,,,right,1,10,30,40,2,1360.65749,1360.65749,1360.65749,None,None,4,0,0.984924,,,,,,,,,,,,,,,,,,,10,7,1,2024-10-18_15h08.49.031,uWM_experiment,2022.2.3,60.00376824
,,,,,,,,,,,,,,,,,,,,2,0,2,0,5,0,5,0,,,,,,,,,,,,,,,,,,,,,,,,,,,,,,,,,,,,,,,,,,,,,,,,,,,,,,,,,,,,,,,,,,,,,,0.033564681,,,,,,,,,,,,,,,,,,,,,,,,,,,,right,1,160,30,190,1,1375.52475,1375.52475,1375.52475,None,None,2,0,1.781574,,,,,,,,,,,,,,,,,,,10,7,1,2024-10-18_15h08.49.031,uWM_experiment,2022.2.3,60.00376824
,,,,,,,,,,,,,,,,,,,,2,0,2,0,6,0,6,0,,,,,,,,,,,,,,,,,,,,,,,,,,,,,,,,,,,,,,,,,,,,,,,,,,,,,,,,,,,,,,,,,,,,,,0.023564681,,,,,,,,,,,,,,,,,,,,,,,,,,,,right,0,100,-30,70,1,1383.725067,1383.725067,1383.725067,None,None,1,1,2.5011851,,,,,,,,,,,,,,,,,,,10,7,1,2024-10-18_15h08.49.031,uWM_experiment,2022.2.3,60.00376824
,,,,,,,,,,,,,,,,,,,,2,0,2,0,7,0,7,0,,,,,,,,,,,,,,,,,,,,,,,,,,,,,,,,,,,,,,,,,,,,,,,,,,,,,,,,,,,,,,,,,,,,,,0,,,,,,,,,,,,,,,,,,,,,,,,,,,,right,1,10,30,40,0,1397.725644,1397.725644,1397.725644,None,None,2,0,1.0446449,,,,,,,,,,,,,,,,,,,10,7,1,2024-10-18_15h08.49.031,uWM_experiment,2022.2.3,60.00376824
,,,,,,,,,,,,,,,,,,,,2,0,2,0,8,0,8,0,,,,,,,,,,,,,,,,,,,,,,,,,,,,,,,,,,,,,,,,,,,,,,,,,,,,,,,,,,,,,,,,,,,,,,0.033564681,,,,,,,,,,,,,,,,,,,,,,,,,,,,left,0,130,30,160,1,1404.15921,1404.15921,1404.15921,None,None,1,1,0.6751233,,,,,,,,,,,,,,,,,,,10,7,1,2024-10-18_15h08.49.031,uWM_experiment,2022.2.3,60.00376824
,,,,,,,,,,,,,,,,,,,,2,0,2,0,9,0,9,0,,,,,,,,,,,,,,,,,,,,,,,,,,,,,,,,,,,,,,,,,,,,,,,,,,,,,,,,,,,,,,,,,,,,,,0.043564681,,,,,,,,,,,,,,,,,,,,,,,,,,,,right,1,160,30,190,1,1410.542812,1410.542812,1410.542812,None,None,2,0,1.0673029,,,,,,,,,,,,,,,,,,,10,7,1,2024-10-18_15h08.49.031,uWM_experiment,2022.2.3,60.00376824
,,,,,,,,,,,,,,,,,,,,2,0,2,0,10,0,10,0,,,,,,,,,,,,,,,,,,,,,,,,,,,,,,,,,,,,,,,,,,,,,,,,,,,,,,,,,,,,,,,,,,,,,,0.033564681,,,,,,,,,,,,,,,,,,,,,,,,,,,,right,0,40,-30,10,1,1419.126485,1419.126485,1419.126485,None,None,1,1,1.2917313,,,,,,,,,,,,,,,,,,,10,7,1,2024-10-18_15h08.49.031,uWM_experiment,2022.2.3,60.00376824
,,,,,,,,,,,,,,,,,,,,2,0,2,0,11,0,11,0,,,,,,,,,,,,,,,,,,,,,,,,,,,,,,,,,,,,,,,,,,,,,,,,,,,,,,,,,,,,,,,,,,,,,,0,,,,,,,,,,,,,,,,,,,,,,,,,,,,right,0,70,-30,40,0,1426.526775,1426.526775,1426.526775,None,None,3,0,6.7552396,,,,,,,,,,,,,,,,,,,10,7,1,2024-10-18_15h08.49.031,uWM_experiment,2022.2.3,60.00376824
,,,,,,,,,,,,,,,,,,,,2,0,2,0,12,0,12,0,,,,,,,,,,,,,,,,,,,,,,,,,,,,,,,,,,,,,,,,,,,,,,,,,,,,,,,,,,,,,,,,,,,,,,0.043564681,,,,,,,,,,,,,,,,,,,,,,,,,,,,left,1,10,-30,-20,1,1438.960604,1438.960604,1438.960604,None,None,3,0,0.6814922,,,,,,,,,,,,,,,,,,,10,7,1,2024-10-18_15h08.49.031,uWM_experiment,2022.2.3,60.00376824
,,,,,,,,,,,,,,,,,,,,2,0,2,0,13,0,13,0,,,,,,,,,,,,,,,,,,,,,,,,,,,,,,,,,,,,,,,,,,,,,,,,,,,,,,,,,,,,,,,,,,,,,,0.033564681,,,,,,,,,,,,,,,,,,,,,,,,,,,,right,1,40,30,70,1,1445.377507,1445.377507,1445.377507,None,None,3,0,0.6086172,,,,,,,,,,,,,,,,,,,10,7,1,2024-10-18_15h08.49.031,uWM_experiment,2022.2.3,60.00376824
,,,,,,,,,,,,,,,,,,,,2,0,2,0,14,0,14,0,,,,,,,,,,,,,,,,,,,,,,,,,,,,,,,,,,,,,,,,,,,,,,,,,,,,,,,,,,,,,,,,,,,,,,0.023564681,,,,,,,,,,,,,,,,,,,,,,,,,,,,left,1,160,-30,130,1,1451.711109,1451.711109,1451.711109,None,None,1,1,15.4268695,,,,,,,,,,,,,,,,,,,10,7,1,2024-10-18_15h08.49.031,uWM_experiment,2022.2.3,60.00376824
,,,,,,,,,,,,,,,,,,,,2,0,2,0,15,0,15,0,,,,,,,,,,,,,,,,,,,,,,,,,,,,,,,,,,,,,,,,,,,,,,,,,,,,,,,,,,,,,,,,,,,,,,0.033564681,,,,,,,,,,,,,,,,,,,,,,,,,,,,left,1,10,-30,-20,1,1472.645227,1472.645227,1472.645227,None,None,2,0,0.836626,,,,,,,,,,,,,,,,,,,10,7,1,2024-10-18_15h08.49.031,uWM_experiment,2022.2.3,60.00376824
,,,,,,,,,,,,,,,,,,,,2,0,2,0,16,0,16,0,,,,,,,,,,,,,,,,,,,,,,,,,,,,,,,,,,,,,,,,,,,,,,,,,,,,,,,,,,,,,,,,,,,,,,0.023564681,,,,,,,,,,,,,,,,,,,,,,,,,,,,left,1,160,-30,130,1,1478.895485,1478.895485,1478.895485,None,None,2,0,1.0664102,,,,,,,,,,,,,,,,,,,10,7,1,2024-10-18_15h08.49.031,uWM_experiment,2022.2.3,60.00376824
,,,,,,,,,,,,,,,,,,,,2,0,2,0,17,0,17,0,,,,,,,,,,,,,,,,,,,,,,,,,,,,,,,,,,,,,,,,,,,,,,,,,,,,,,,,,,,,,,,,,,,,,,0,,,,,,,,,,,,,,,,,,,,,,,,,,,,left,0,70,30,100,0,1488.729224,1488.729224,1488.729224,None,None,1,1,1.7606798,,,,,,,,,,,,,,,,,,,10,7,1,2024-10-18_15h08.49.031,uWM_experiment,2022.2.3,60.00376824
,,,,,,,,,,,,,,,,,,,,2,0,2,0,18,0,18,0,,,,,,,,,,,,,,,,,,,,,,,,,,,,,,,,,,,,,,,,,,,,,,,,,,,,,,,,,,,,,,,,,,,,,,0,,,,,,,,,,,,,,,,,,,,,,,,,,,,right,1,160,30,190,0,1496.662885,1496.662885,1496.662885,None,None,2,0,0.7388331,,,,,,,,,,,,,,,,,,,10,7,1,2024-10-18_15h08.49.031,uWM_experiment,2022.2.3,60.00376824
,,,,,,,,,,,,,,,,,,,,2,0,2,0,19,0,19,0,,,,,,,,,,,,,,,,,,,,,,,,,,,,,,,,,,,,,,,,,,,,,,,,,,,,,,,,,,,,,,,,,,,,,,0,,,,,,,,,,,,,,,,,,,,,,,,,,,,right,1,40,30,70,0,1503.379795,1503.379795,1503.379795,None,None,2,0,1.0780105,,,,,,,,,,,,,,,,,,,10,7,1,2024-10-18_15h08.49.031,uWM_experiment,2022.2.3,60.00376824
,,,,,,,,,,,,,,,,,,,,2,0,2,0,20,0,20,0,,,,,,,,,,,,,,,,,,,,,,,,,,,,,,,,,,,,,,,,,,,,,,,,,,,,,,,,,,,,,,,,,,,,,,0.013564681,,,,,,,,,,,,,,,,,,,,,,,,,,,,left,1,160,-30,130,1,1510.046741,1510.046741,1510.046741,None,None,2,0,0.6270968,,,,,,,,,,,,,,,,,,,10,7,1,2024-10-18_15h08.49.031,uWM_experiment,2022.2.3,60.00376824
,,,,,,,,,,,,,,,,,,,,2,0,2,0,21,0,21,0,,,,,,,,,,,,,,,,,,,,,,,,,,,,,,,,,,,,,,,,,,,,,,,,,,,,,,,,,,,,,,,,,,,,,,0.005,,,,,,,,,,,,,,,,,,,,,,,,,,,,right,0,70,-30,40,1,1516.330293,1516.330293,1516.330293,None,None,1,1,0.4394783,,,,,,,,,,,,,,,,,,,10,7,1,2024-10-18_15h08.49.031,uWM_experiment,2022.2.3,60.00376824
,,,,,,,,,,,,,,,,,,,,2,0,2,0,22,0,22,0,,,,,,,,,,,,,,,,,,,,,,,,,,,,,,,,,,,,,,,,,,,,,,,,,,,,,,,,,,,,,,,,,,,,,,0.015,,,,,,,,,,,,,,,,,,,,,,,,,,,,left,0,130,30,160,1,1522.430563,1522.430563,1522.430563,None,None,2,0,1.4271897,,,,,,,,,,,,,,,,,,,10,7,1,2024-10-18_15h08.49.031,uWM_experiment,2022.2.3,60.00376824
,,,,,,,,,,,,,,,,,,,,2,0,2,0,23,0,23,0,,,,,,,,,,,,,,,,,,,,,,,,,,,,,,,,,,,,,,,,,,,,,,,,,,,,,,,,,,,,,,,,,,,,,,0.1,,,,,,,,,,,,,,,,,,,,,,,,,,,,right,1,10,30,40,2,1530.814238,1530.814238,1530.814238,None,None,4,0,1.6673358,,,,,,,,,,,,,,,,,,,10,7,1,2024-10-18_15h08.49.031,uWM_experiment,2022.2.3,60.00376824
,,,,,,,,,,,,,,,,,,,,2,0,2,0,,,,,0,0,0,0,,,,,,,,,,,,,,,,,,,,,,,,,,,,,,,,,,,,,,,,,,,,,,,,,,,,,,,,,,,,,,,,,,,,,,,,,,,,,,,,,,,,,,,,,,,,,,,,,,,,,,,,,,,,1532.514263,1532.514263,space,18.6713165,space,None,,1551.21501,1551.21501,8.7224914,,,,,,,,,10,7,1,2024-10-18_15h08.49.031,uWM_experiment,2022.2.3,60.00376824
,,,,,,,,,,,,,,,,,,,,2,0,2,0,,,,,1,0,1,0,,,,,,,,,,,,,,,,,,,,,,,,,,,,,,,,,,,,,,,,,,,,,,,,,,,,,,,,,,,,,,,,,,,,,,,,,,,,,,,,,,,,,,,,,,,,,,,,,,,,,,,,,,,,,,,,,,,,,,,,,,,,,,10,7,1,2024-10-18_15h08.49.031,uWM_experiment,2022.2.3,60.00376824
,,,,,,,,,,,,,,,,,,,,2,0,2,0,,,,,2,0,2,0,,,,,,,,,,,,,,,,,,,,,,,,,,,,,,,,,,,,,,,,,,,,,,,,,,,,,,,,,,,,,,,,,,,,,,,,,,,,,,,,,,,,,,,,,,,,,,,,,,,,,,,,,,,,,,,,,,,,,,,,,,,,,,10,7,1,2024-10-18_15h08.49.031,uWM_experiment,2022.2.3,60.00376824
,,,,,,,,,,,,,,,,,,,,3,0,3,0,0,0,0,0,,,,,,,,,,,,,,,,,,,,,,,,,,,,,,,,,,,,,,,,,,,,,,,,,,,,,,,,,,,,,,,,,,,,,,0.1,,,,,,,,,,,,,,,,,,,,1559.965346,1560.665372,1560.965386,1561.665423,1561.965435,1562.665463,1562.665463,1562.982182,left,1,40,-30,10,2,1567.732339,1567.732339,1567.732339,None,None,4,0,0.9891579,,,,,,,None,,,,,,,,,,,,10,7,1,2024-10-18_15h08.49.031,uWM_experiment,2022.2.3,60.00376824
,,,,,,,,,,,,,,,,,,,,3,0,3,0,1,0,1,0,,,,,,,,,,,,,,,,,,,,,,,,,,,,,,,,,,,,,,,,,,,,,,,,,,,,,,,,,,,,,,,,,,,,,,0,,,,,,,,,,,,,,,,,,,,,,,,,,,,left,1,10,-30,-20,0,1574.482596,1574.482596,1574.482596,None,None,1,1,1.3348067,,,,,,,,,,,,,,,,,,,10,7,1,2024-10-18_15h08.49.031,uWM_experiment,2022.2.3,60.00376824
,,,,,,,,,,,,,,,,,,,,3,0,3,0,2,0,2,0,,,,,,,,,,,,,,,,,,,,,,,,,,,,,,,,,,,,,,,,,,,,,,,,,,,,,,,,,,,,,,,,,,,,,,0.005,,,,,,,,,,,,,,,,,,,,,,,,,,,,left,0,130,30,160,1,1581.282864,1581.282864,1581.282864,None,None,2,0,1.2306198,,,,,,,,,,,,,,,,,,,10,7,1,2024-10-18_15h08.49.031,uWM_experiment,2022.2.3,60.00376824
,,,,,,,,,,,,,,,,,,,,3,0,3,0,3,0,3,0,,,,,,,,,,,,,,,,,,,,,,,,,,,,,,,,,,,,,,,,,,,,,,,,,,,,,,,,,,,,,,,,,,,,,,0.005,,,,,,,,,,,,,,,,,,,,,,,,,,,,left,0,100,30,130,1,1588.049822,1588.049822,1588.049822,None,None,2,0,0.9435979,,,,,,,,,,,,,,,,,,,10,7,1,2024-10-18_15h08.49.031,uWM_experiment,2022.2.3,60.00376824
,,,,,,,,,,,,,,,,,,,,3,0,3,0,4,0,4,0,,,,,,,,,,,,,,,,,,,,,,,,,,,,,,,,,,,,,,,,,,,,,,,,,,,,,,,,,,,,,,,,,,,,,,0,,,,,,,,,,,,,,,,,,,,,,,,,,,,left,1,130,-30,100,0,1594.550076,1594.550076,1594.550076,None,None,1,1,5.5793743,,,,,,,,,,,,,,,,,,,10,7,1,2024-10-18_15h08.49.031,uWM_experiment,2022.2.3,60.00376824
,,,,,,,,,,,,,,,,,,,,3,0,3,0,5,0,5,0,,,,,,,,,,,,,,,,,,,,,,,,,,,,,,,,,,,,,,,,,,,,,,,,,,,,,,,,,,,,,,,,,,,,,,0.005,,,,,,,,,,,,,,,,,,,,,,,,,,,,left,1,130,-30,100,1,1606.217195,1606.217195,1606.217195,None,None,3,0,1.8640848,,,,,,,,,,,,,,,,,,,10,7,1,2024-10-18_15h08.49.031,uWM_experiment,2022.2.3,60.00376824
,,,,,,,,,,,,,,,,,,,,3,0,3,0,6,0,6,0,,,,,,,,,,,,,,,,,,,,,,,,,,,,,,,,,,,,,,,,,,,,,,,,,,,,,,,,,,,,,,,,,,,,,,0.005,,,,,,,,,,,,,,,,,,,,,,,,,,,,left,1,100,-30,70,1,1613.717485,1613.717485,1613.717485,None,None,2,0,2.9877471,,,,,,,,,,,,,,,,,,,10,7,1,2024-10-18_15h08.49.031,uWM_experiment,2022.2.3,60.00376824
,,,,,,,,,,,,,,,,,,,,3,0,3,0,7,0,7,0,,,,,,,,,,,,,,,,,,,,,,,,,,,,,,,,,,,,,,,,,,,,,,,,,,,,,,,,,,,,,,,,,,,,,,0.005,,,,,,,,,,,,,,,,,,,,,,,,,,,,right,1,10,30,40,1,1622.651155,1622.651155,1622.651155,None,None,2,0,1.1981581,,,,,,,,,,,,,,,,,,,10,7,1,2024-10-18_15h08.49.031,uWM_experiment,2022.2.3,60.00376824
,,,,,,,,,,,,,,,,,,,,3,0,3,0,8,0,8,0,,,,,,,,,,,,,,,,,,,,,,,,,,,,,,,,,,,,,,,,,,,,,,,,,,,,,,,,,,,,,,,,,,,,,,0.005,,,,,,,,,,,,,,,,,,,,,,,,,,,,right,0,100,-30,70,1,1629.484777,1629.484777,1629.484777,None,None,3,0,3.5404602,,,,,,,,,,,,,,,,,,,10,7,1,2024-10-18_15h08.49.031,uWM_experiment,2022.2.3,60.00376824
,,,,,,,,,,,,,,,,,,,,3,0,3,0,9,0,9,0,,,,,,,,,,,,,,,,,,,,,,,,,,,,,,,,,,,,,,,,,,,,,,,,,,,,,,,,,,,,,,,,,,,,,,0.005,,,,,,,,,,,,,,,,,,,,,,,,,,,,right,0,100,-30,70,1,1640.385209,1640.385209,1640.385209,None,None,2,0,4.9118543,,,,,,,,,,,,,,,,,,,10,7,1,2024-10-18_15h08.49.031,uWM_experiment,2022.2.3,60.00376824
,,,,,,,,,,,,,,,,,,,,3,0,3,0,10,0,10,0,,,,,,,,,,,,,,,,,,,,,,,,,,,,,,,,,,,,,,,,,,,,,,,,,,,,,,,,,,,,,,,,,,,,,,0.005,,,,,,,,,,,,,,,,,,,,,,,,,,,,right,0,160,-30,130,1,1650.602282,1650.602282,1650.602282,None,None,2,0,2.8467756,,,,,,,,,,,,,,,,,,,10,7,1,2024-10-18_15h08.49.031,uWM_experiment,2022.2.3,60.00376824
,,,,,,,,,,,,,,,,,,,,3,0,3,0,11,0,11,0,,,,,,,,,,,,,,,,,,,,,,,,,,,,,,,,,,,,,,,,,,,,,,,,,,,,,,,,,,,,,,,,,,,,,,0.005,,,,,,,,,,,,,,,,,,,,,,,,,,,,left,0,130,30,160,1,1659.035942,1659.035942,1659.035942,None,None,2,0,9.12511,,,,,,,,,,,,,,,,,,,10,7,1,2024-10-18_15h08.49.031,uWM_experiment,2022.2.3,60.00376824
,,,,,,,,,,,,,,,,,,,,3,0,3,0,12,0,12,0,,,,,,,,,,,,,,,,,,,,,,,,,,,,,,,,,,,,,,,,,,,,,,,,,,,,,,,,,,,,,,,,,,,,,,0.005,,,,,,,,,,,,,,,,,,,,,,,,,,,,left,0,100,30,130,1,1673.836551,1673.836551,1673.836551,None,None,2,0,2.5325087,,,,,,,,,,,,,,,,,,,10,7,1,2024-10-18_15h08.49.031,uWM_experiment,2022.2.3,60.00376824
,,,,,,,,,,,,,,,,,,,,3,0,3,0,13,0,13,0,,,,,,,,,,,,,,,,,,,,,,,,,,,,,,,,,,,,,,,,,,,,,,,,,,,,,,,,,,,,,,,,,,,,,,0.005,,,,,,,,,,,,,,,,,,,,,,,,,,,,right,0,70,-30,40,1,1682.40353,1682.40353,1682.40353,None,None,2,0,1.2533821,,,,,,,,,,,,,,,,,,,10,7,1,2024-10-18_15h08.49.031,uWM_experiment,2022.2.3,60.00376824
,,,,,,,,,,,,,,,,,,,,3,0,3,0,14,0,14,0,,,,,,,,,,,,,,,,,,,,,,,,,,,,,,,,,,,,,,,,,,,,,,,,,,,,,,,,,,,,,,,,,,,,,,0.005,,,,,,,,,,,,,,,,,,,,,,,,,,,,left,1,130,-30,100,1,1689.370471,1689.370471,1689.370471,None,None,2,0,1.0944354,,,,,,,,,,,,,,,,,,,10,7,1,2024-10-18_15h08.49.031,uWM_experiment,2022.2.3,60.00376824
,,,,,,,,,,,,,,,,,,,,3,0,3,0,15,0,15,0,,,,,,,,,,,,,,,,,,,,,,,,,,,,,,,,,,,,,,,,,,,,,,,,,,,,,,,,,,,,,,,,,,,,,,0.005,,,,,,,,,,,,,,,,,,,,,,,,,,,,left,1,160,-30,130,1,1696.170736,1696.170736,1696.170736,None,None,3,0,0.8302474,,,,,,,,,,,,,,,,,,,10,7,1,2024-10-18_15h08.49.031,uWM_experiment,2022.2.3,60.00376824
,,,,,,,,,,,,,,,,,,,,3,0,3,0,16,0,16,0,,,,,,,,,,,,,,,,,,,,,,,,,,,,,,,,,,,,,,,,,,,,,,,,,,,,,,,,,,,,,,,,,,,,,,0,,,,,,,,,,,,,,,,,,,,,,,,,,,,right,1,10,30,40,0,1702.721,1702.721,1702.721,None,None,3,0,4.6078457,,,,,,,,,,,,,,,,,,,10,7,1,2024-10-18_15h08.49.031,uWM_experiment,2022.2.3,60.00376824
,,,,,,,,,,,,,,,,,,,,3,0,3,0,17,0,17,0,,,,,,,,,,,,,,,,,,,,,,,,,,,,,,,,,,,,,,,,,,,,,,,,,,,,,,,,,,,,,,,,,,,,,,0.005,,,,,,,,,,,,,,,,,,,,,,,,,,,,left,1,10,-30,-20,1,1712.854747,1712.854747,1712.854747,None,None,2,0,1.1860247,,,,,,,,,,,,,,,,,,,10,7,1,2024-10-18_15h08.49.031,uWM_experiment,2022.2.3,60.00376824
,,,,,,,,,,,,,,,,,,,,3,0,3,0,18,0,18,0,,,,,,,,,,,,,,,,,,,,,,,,,,,,,,,,,,,,,,,,,,,,,,,,,,,,,,,,,,,,,,,,,,,,,,0.005,,,,,,,,,,,,,,,,,,,,,,,,,,,,right,1,160,30,190,1,1720.121718,1720.121718,1720.121718,None,None,2,0,1.1029705,,,,,,,,,,,,,,,,,,,10,7,1,2024-10-18_15h08.49.031,uWM_experiment,2022.2.3,60.00376824
,,,,,,,,,,,,,,,,,,,,3,0,3,0,19,0,19,0,,,,,,,,,,,,,,,,,,,,,,,,,,,,,,,,,,,,,,,,,,,,,,,,,,,,,,,,,,,,,,,,,,,,,,0.005,,,,,,,,,,,,,,,,,,,,,,,,,,,,left,0,70,30,100,1,1726.905283,1726.905283,1726.905283,None,None,2,0,0.7514443,,,,,,,,,,,,,,,,,,,10,7,1,2024-10-18_15h08.49.031,uWM_experiment,2022.2.3,60.00376824
,,,,,,,,,,,,,,,,,,,,3,0,3,0,20,0,20,0,,,,,,,,,,,,,,,,,,,,,,,,,,,,,,,,,,,,,,,,,,,,,,,,,,,,,,,,,,,,,,,,,,,,,,0.005,,,,,,,,,,,,,,,,,,,,,,,,,,,,left,0,70,30,100,1,1733.172208,1733.172208,1733.172208,None,None,1,1,6.4605935,,,,,,,,,,,,,,,,,,,10,7,1,2024-10-18_15h08.49.031,uWM_experiment,2022.2.3,60.00376824
,,,,,,,,,,,,,,,,,,,,3,0,3,0,21,0,21,0,,,,,,,,,,,,,,,,,,,,,,,,,,,,,,,,,,,,,,,,,,,,,,,,,,,,,,,,,,,,,,,,,,,,,,0,,,,,,,,,,,,,,,,,,,,,,,,,,,,right,1,10,30,40,0,1745.506008,1745.506008,1745.506008,None,None,2,0,5.1345555,,,,,,,,,,,,,,,,,,,10,7,1,2024-10-18_15h08.49.031,uWM_experiment,2022.2.3,60.00376824
,,,,,,,,,,,,,,,,,,,,3,0,3,0,22,0,22,0,,,,,,,,,,,,,,,,,,,,,,,,,,,,,,,,,,,,,,,,,,,,,,,,,,,,,,,,,,,,,,,,,,,,,,0.1,,,,,,,,,,,,,,,,,,,,,,,,,,,,right,1,160,30,190,2,1756.92314,1756.92314,1756.92314,None,None,4,0,0.397521,,,,,,,,,,,,,,,,,,,10,7,1,2024-10-18_15h08.49.031,uWM_experiment,2022.2.3,60.00376824
,,,,,,,,,,,,,,,,,,,,3,0,3,0,23,0,23,0,,,,,,,,,,,,,,,,,,,,,,,,,,,,,,,,,,,,,,,,,,,,,,,,,,,,,,,,,,,,,,,,,,,,,,0.015,,,,,,,,,,,,,,,,,,,,,,,,,,,,right,0,130,-30,100,1,1774.257161,1774.257161,1774.257161,None,None,1,1,1.879336,,,,,,,,,,,,,,,,,,,10,7,1,2024-10-18_15h08.49.031,uWM_experiment,2022.2.3,60.00376824
,,,,,,,,,,,,,,,,,,,,3,0,3,0,,,,,0,0,0,0,,,,,,,,,,,,,,,,,,,,,,,,,,,,,,,,,,,,,,,,,,,,,,,,,,,,,,,,,,,,,,,,,,,,,,,,,,,,,,,,,,,,,,,,,,,,,,,,,,,,,,,,,,,,1776.157221,1776.157221,space,20.7792613,None,None,,,,,,,,,,,,,10,7,1,2024-10-18_15h08.49.031,uWM_experiment,2022.2.3,60.00376824
,,,,,,,,,,,,,,,,,,,,3,0,3,0,,,,,1,0,1,0,,,,,,,,,,,,,,,,,,,,,,,,,,,,,,,,,,,,,,,,,,,,,,,,,,,,,,,,,,,,,,,,,,,,,,,,,,,,,,,,,,,,,,,,,,,,,,,,,,,,,,,,,,,,,,,,,,,,,,,,,,,,,,10,7,1,2024-10-18_15h08.49.031,uWM_experiment,2022.2.3,60.00376824
,,,,,,,,,,,,,,,,,,,,3,0,3,0,,,,,2,0,2,0,,,,,,,,,,,,,,,,,,,,,,,,,,,,,,,,,,,,,,,,,,,,,,,,,,,,,,,,,,,,,,,,,,,,,,,,,,,,,,,,,,,,,,,,,,,,,,,,,,,,,,,,,,,,,,,,,,,,,,,,,,,,,,10,7,1,2024-10-18_15h08.49.031,uWM_experiment,2022.2.3,60.00376824
,,,,,,,,,,,,,,,,,,,,4,0,4,0,0,0,0,0,,,,,,,,,,,,,,,,,,,,,,,,,,,,,,,,,,,,,,,,,,,,,,,,,,,,,,,,,,,,,,,,,,,,,,0.025,,,,,,,,,,,,,,,,,,,,1796.958047,1797.658076,1797.958086,1798.658113,1798.958126,1799.658151,1799.658151,1799.974891,left,0,100,30,130,1,1804.658394,1804.658394,1804.658394,None,None,2,0,1.0780056,,,,,,,None,,,,,,,,,,,,10,7,1,2024-10-18_15h08.49.031,uWM_experiment,2022.2.3,60.00376824
,,,,,,,,,,,,,,,,,,,,4,0,4,0,1,0,1,0,,,,,,,,,,,,,,,,,,,,,,,,,,,,,,,,,,,,,,,,,,,,,,,,,,,,,,,,,,,,,,,,,,,,,,0.015,,,,,,,,,,,,,,,,,,,,,,,,,,,,right,1,160,30,190,1,1814.275402,1814.275402,1814.275402,None,None,1,1,0.7490831,,,,,,,,,,,,,,,,,,,10,7,1,2024-10-18_15h08.49.031,uWM_experiment,2022.2.3,60.00376824
,,,,,,,,,,,,,,,,,,,,4,0,4,0,2,0,2,0,,,,,,,,,,,,,,,,,,,,,,,,,,,,,,,,,,,,,,,,,,,,,,,,,,,,,,,,,,,,,,,,,,,,,,0.025,,,,,,,,,,,,,,,,,,,,,,,,,,,,left,0,40,30,70,1,1825.442508,1825.442508,1825.442508,None,None,1,1,0.725869,,,,,,,,,,,,,,,,,,,10,7,1,2024-10-18_15h08.49.031,uWM_experiment,2022.2.3,60.00376824
,,,,,,,,,,,,,,,,,,,,4,0,4,0,3,0,3,0,,,,,,,,,,,,,,,,,,,,,,,,,,,,,,,,,,,,,,,,,,,,,,,,,,,,,,,,,,,,,,,,,,,,,,0,,,,,,,,,,,,,,,,,,,,,,,,,,,,left,0,70,30,100,0,1831.776107,1831.776107,1831.776107,None,None,3,0,1.1521152,,,,,,,,,,,,,,,,,,,10,7,1,2024-10-18_15h08.49.031,uWM_experiment,2022.2.3,60.00376824
,,,,,,,,,,,,,,,,,,,,4,0,4,0,4,0,4,0,,,,,,,,,,,,,,,,,,,,,,,,,,,,,,,,,,,,,,,,,,,,,,,,,,,,,,,,,,,,,,,,,,,,,,0,,,,,,,,,,,,,,,,,,,,,,,,,,,,left,1,10,-30,-20,0,1838.743057,1838.743057,1838.743057,None,None,2,0,5.1772577,,,,,,,,,,,,,,,,,,,10,7,1,2024-10-18_15h08.49.031,uWM_experiment,2022.2.3,60.00376824
,,,,,,,,,,,,,,,,,,,,4,0,4,0,5,0,5,0,,,,,,,,,,,,,,,,,,,,,,,,,,,,,,,,,,,,,,,,,,,,,,,,,,,,,,,,,,,,,,,,,,,,,,0.035,,,,,,,,,,,,,,,,,,,,,,,,,,,,left,0,70,30,100,1,1849.510135,1849.510135,1849.510135,None,None,3,0,1.338004,,,,,,,,,,,,,,,,,,,10,7,1,2024-10-18_15h08.49.031,uWM_experiment,2022.2.3,60.00376824
,,,,,,,,,,,,,,,,,,,,4,0,4,0,6,0,6,0,,,,,,,,,,,,,,,,,,,,,,,,,,,,,,,,,,,,,,,,,,,,,,,,,,,,,,,,,,,,,,,,,,,,,,0.025,,,,,,,,,,,,,,,,,,,,,,,,,,,,right,0,40,-30,10,1,1856.643744,1856.643744,1856.643744,None,None,1,1,4.7484557,,,,,,,,,,,,,,,,,,,10,7,1,2024-10-18_15h08.49.031,uWM_experiment,2022.2.3,60.00376824
,,,,,,,,,,,,,,,,,,,,4,0,4,0,7,0,7,0,,,,,,,,,,,,,,,,,,,,,,,,,,,,,,,,,,,,,,,,,,,,,,,,,,,,,,,,,,,,,,,,,,,,,,0.035,,,,,,,,,,,,,,,,,,,,,,,,,,,,left,0,100,30,130,1,1867.544196,1867.544196,1867.544196,None,None,3,0,1.5518962,,,,,,,,,,,,,,,,,,,10,7,1,2024-10-18_15h08.49.031,uWM_experiment,2022.2.3,60.00376824
,,,,,,,,,,,,,,,,,,,,4,0,4,0,8,0,8,0,,,,,,,,,,,,,,,,,,,,,,,,,,,,,,,,,,,,,,,,,,,,,,,,,,,,,,,,,,,,,,,,,,,,,,0.025,,,,,,,,,,,,,,,,,,,,,,,,,,,,left,1,160,-30,130,1,1874.961134,1874.961134,1874.961134,None,None,2,0,0.4629664,,,,,,,,,,,,,,,,,,,10,7,1,2024-10-18_15h08.49.031,uWM_experiment,2022.2.3,60.00376824
,,,,,,,,,,,,,,,,,,,,4,0,4,0,9,0,9,0,,,,,,,,,,,,,,,,,,,,,,,,,,,,,,,,,,,,,,,,,,,,,,,,,,,,,,,,,,,,,,,,,,,,,,0.015,,,,,,,,,,,,,,,,,,,,,,,,,,,,right,1,10,30,40,1,1881.278053,1881.278053,1881.278053,None,None,2,0,1.5859474,,,,,,,,,,,,,,,,,,,10,7,1,2024-10-18_15h08.49.031,uWM_experiment,2022.2.3,60.00376824
,,,,,,,,,,,,,,,,,,,,4,0,4,0,10,0,10,0,,,,,,,,,,,,,,,,,,,,,,,,,,,,,,,,,,,,,,,,,,,,,,,,,,,,,,,,,,,,,,,,,,,,,,0.005,,,,,,,,,,,,,,,,,,,,,,,,,,,,right,0,40,-30,10,1,1888.578354,1888.578354,1888.578354,None,None,2,0,0.7417397,,,,,,,,,,,,,,,,,,,10,7,1,2024-10-18_15h08.49.031,uWM_experiment,2022.2.3,60.00376824
,,,,,,,,,,,,,,,,,,,,4,0,4,0,11,0,11,0,,,,,,,,,,,,,,,,,,,,,,,,,,,,,,,,,,,,,,,,,,,,,,,,,,,,,,,,,,,,,,,,,,,,,,0.005,,,,,,,,,,,,,,,,,,,,,,,,,,,,right,1,10,30,40,1,1894.828591,1894.828591,1894.828591,None,None,2,0,3.195467,,,,,,,,,,,,,,,,,,,10,7,1,2024-10-18_15h08.49.031,uWM_experiment,2022.2.3,60.00376824
,,,,,,,,,,,,,,,,,,,,4,0,4,0,12,0,12,0,,,,,,,,,,,,,,,,,,,,,,,,,,,,,,,,,,,,,,,,,,,,,,,,,,,,,,,,,,,,,,,,,,,,,,0.005,,,,,,,,,,,,,,,,,,,,,,,,,,,,left,0,70,30,100,1,1905.029017,1905.029017,1905.029017,None,None,2,0,8.258924,,,,,,,,,,,,,,,,,,,10,7,1,2024-10-18_15h08.49.031,uWM_experiment,2022.2.3,60.00376824
,,,,,,,,,,,,,,,,,,,,4,0,4,0,13,0,13,0,,,,,,,,,,,,,,,,,,,,,,,,,,,,,,,,,,,,,,,,,,,,,,,,,,,,,,,,,,,,,,,,,,,,,,0.1,,,,,,,,,,,,,,,,,,,,,,,,,,,,right,0,40,-30,10,2,1920.746297,1920.746297,1920.746297,None,None,3,0,1.7575857,,,,,,,,,,,,,,,,,,,10,7,1,2024-10-18_15h08.49.031,uWM_experiment,2022.2.3,60.00376824
,,,,,,,,,,,,,,,,,,,,4,0,4,0,14,0,14,0,,,,,,,,,,,,,,,,,,,,,,,,,,,,,,,,,,,,,,,,,,,,,,,,,,,,,,,,,,,,,,,,,,,,,,0.005,,,,,,,,,,,,,,,,,,,,,,,,,,,,right,1,160,30,190,1,1928.029897,1928.029897,1928.029897,None,None,2,0,1.6019013,,,,,,,,,,,,,,,,,,,10,7,1,2024-10-18_15h08.49.031,uWM_experiment,2022.2.3,60.00376824
,,,,,,,,,,,,,,,,,,,,4,0,4,0,15,0,15,0,,,,,,,,,,,,,,,,,,,,,,,,,,,,,,,,,,,,,,,,,,,,,,,,,,,,,,,,,,,,,,,,,,,,,,0.005,,,,,,,,,,,,,,,,,,,,,,,,,,,,right,0,100,-30,70,1,1935.29685,1935.29685,1935.29685,None,None,1,1,1.3350142,,,,,,,,,,,,,,,,,,,10,7,1,2024-10-18_15h08.49.031,uWM_experiment,2022.2.3,60.00376824
,,,,,,,,,,,,,,,,,,,,4,0,4,0,16,0,16,0,,,,,,,,,,,,,,,,,,,,,,,,,,,,,,,,,,,,,,,,,,,,,,,,,,,,,,,,,,,,,,,,,,,,,,0,,,,,,,,,,,,,,,,,,,,,,,,,,,,right,0,40,-30,10,0,1943.663862,1943.663862,1943.663862,None,None,1,1,1.4719273,,,,,,,,,,,,,,,,,,,10,7,1,2024-10-18_15h08.49.031,uWM_experiment,2022.2.3,60.00376824
,,,,,,,,,,,,,,,,,,,,4,0,4,0,17,0,17,0,,,,,,,,,,,,,,,,,,,,,,,,,,,,,,,,,,,,,,,,,,,,,,,,,,,,,,,,,,,,,,,,,,,,,,0.015,,,,,,,,,,,,,,,,,,,,,,,,,,,,right,0,100,-30,70,1,1951.514206,1951.514206,1951.514206,None,None,2,0,1.5015027,,,,,,,,,,,,,,,,,,,10,7,1,2024-10-18_15h08.49.031,uWM_experiment,2022.2.3,60.00376824
,,,,,,,,,,,,,,,,,,,,4,0,4,0,18,0,18,0,,,,,,,,,,,,,,,,,,,,,,,,,,,,,,,,,,,,,,,,,,,,,,,,,,,,,,,,,,,,,,,,,,,,,,0.005,,,,,,,,,,,,,,,,,,,,,,,,,,,,left,1,10,-30,-20,1,1958.78112,1958.78112,1958.78112,None,None,1,1,0.4185183,,,,,,,,,,,,,,,,,,,10,7,1,2024-10-18_15h08.49.031,uWM_experiment,2022.2.3,60.00376824
,,,,,,,,,,,,,,,,,,,,4,0,4,0,19,0,19,0,,,,,,,,,,,,,,,,,,,,,,,,,,,,,,,,,,,,,,,,,,,,,,,,,,,,,,,,,,,,,,,,,,,,,,0.015,,,,,,,,,,,,,,,,,,,,,,,,,,,,right,1,40,30,70,1,1972.448334,1972.448334,1972.448334,None,None,2,0,1.0793318,,,,,,,,,,,,,,,,,,,10,7,1,2024-10-18_15h08.49.031,uWM_experiment,2022.2.3,60.00376824
,,,,,,,,,,,,,,,,,,,,4,0,4,0,20,0,20,0,,,,,,,,,,,,,,,,,,,,,,,,,,,,,,,,,,,,,,,,,,,,,,,,,,,,,,,,,,,,,,,,,,,,,,0.005,,,,,,,,,,,,,,,,,,,,,,,,,,,,left,1,160,-30,130,1,1979.098586,1979.098586,1979.098586,None,None,2,0,0.4610761,,,,,,,,,,,,,,,,,,,10,7,1,2024-10-18_15h08.49.031,uWM_experiment,2022.2.3,60.00376824
,,,,,,,,,,,,,,,,,,,,4,0,4,0,21,0,21,0,,,,,,,,,,,,,,,,,,,,,,,,,,,,,,,,,,,,,,,,,,,,,,,,,,,,,,,,,,,,,,,,,,,,,,0,,,,,,,,,,,,,,,,,,,,,,,,,,,,left,1,40,-30,10,0,1988.79901,1988.79901,1988.79901,None,None,2,0,3.4965718,,,,,,,,,,,,,,,,,,,10,7,1,2024-10-18_15h08.49.031,uWM_experiment,2022.2.3,60.00376824
,,,,,,,,,,,,,,,,,,,,4,0,4,0,22,0,22,0,,,,,,,,,,,,,,,,,,,,,,,,,,,,,,,,,,,,,,,,,,,,,,,,,,,,,,,,,,,,,,,,,,,,,,0.005,,,,,,,,,,,,,,,,,,,,,,,,,,,,right,0,70,-30,40,1,1998.132697,1998.132697,1998.132697,None,None,2,0,0.6268997,,,,,,,,,,,,,,,,,,,10,7,1,2024-10-18_15h08.49.031,uWM_experiment,2022.2.3,60.00376824
,,,,,,,,,,,,,,,,,,,,4,0,4,0,23,0,23,0,,,,,,,,,,,,,,,,,,,,,,,,,,,,,,,,,,,,,,,,,,,,,,,,,,,,,,,,,,,,,,,,,,,,,,0.005,,,,,,,,,,,,,,,,,,,,,,,,,,,,left,0,130,30,160,1,2004.49959,2004.49959,2004.49959,None,None,2,0,3.659968,,,,,,,,,,,,,,,,,,,10,7,1,2024-10-18_15h08.49.031,uWM_experiment,2022.2.3,60.00376824
,,,,,,,,,,,,,,,,,,,,4,0,4,0,,,,,0,0,0,0,,,,,,,,,,,,,,,,,,,,,,,,,,,,,,,,,,,,,,,,,,,,,,,,,,,,,,,,,,,,,,,,,,,,,,,,,,,,,,,,,,,,,,,,,,,,,,,,,,,,,,,,,,,,2008.183058,2008.183058,space,209.1275392,None,None,,,,,,,,,,,,,10,7,1,2024-10-18_15h08.49.031,uWM_experiment,2022.2.3,60.00376824
,,,,,,,,,,,,,,,,,,,,4,0,4,0,,,,,1,0,1,0,,,,,,,,,,,,,,,,,,,,,,,,,,,,,,,,,,,,,,,,,,,,,,,,,,,,,,,,,,,,,,,,,,,,,,,,,,,,,,,,,,,,,,,,,,,,,,,,,,,,,,,,,,,,,,,,,,,,,,,,,,,,,,10,7,1,2024-10-18_15h08.49.031,uWM_experiment,2022.2.3,60.00376824
,,,,,,,,,,,,,,,,,,,,4,0,4,0,,,,,2,0,2,0,,,,,,,,,,,,,,,,,,,,,,,,,,,,,,,,,,,,,,,,,,,,,,,,,,,,,,,,,,,,,,,,,,,,,,,,,,,,,,,,,,,,,,,,,,,,,,,,,,,,,,,,,,,,,,,,,,,,,,,,,,,,,,10,7,1,2024-10-18_15h08.49.031,uWM_experiment,2022.2.3,60.00376824
,,,,,,,,,,,,,,,,,,,,5,0,5,0,0,0,0,0,,,,,,,,,,,,,,,,,,,,,,,,,,,,,,,,,,,,,,,,,,,,,,,,,,,,,,,,,,,,,,,,,,,,,,0.005,,,,,,,,,,,,,,,,,,,,2217.341346,2218.041371,2218.341403,2219.041406,2219.341429,2220.041446,2220.041446,2220.358131,left,0,130,30,160,1,2225.641693,2225.641693,2225.641693,None,None,1,1,0.6127885,,,,,,,None,,,,,,,,,,,,10,7,1,2024-10-18_15h08.49.031,uWM_experiment,2022.2.3,60.00376824
,,,,,,,,,,,,,,,,,,,,5,0,5,0,1,0,1,0,,,,,,,,,,,,,,,,,,,,,,,,,,,,,,,,,,,,,,,,,,,,,,,,,,,,,,,,,,,,,,,,,,,,,,0.015,,,,,,,,,,,,,,,,,,,,,,,,,,,,left,1,10,-30,-20,1,2233.275327,2233.275327,2233.275327,None,None,1,1,1.0592015,,,,,,,,,,,,,,,,,,,10,7,1,2024-10-18_15h08.49.031,uWM_experiment,2022.2.3,60.00376824
,,,,,,,,,,,,,,,,,,,,5,0,5,0,2,0,2,0,,,,,,,,,,,,,,,,,,,,,,,,,,,,,,,,,,,,,,,,,,,,,,,,,,,,,,,,,,,,,,,,,,,,,,0.025,,,,,,,,,,,,,,,,,,,,,,,,,,,,left,0,130,30,160,1,2240.542266,2240.542266,2240.542266,None,None,1,1,3.184103,,,,,,,,,,,,,,,,,,,10,7,1,2024-10-18_15h08.49.031,uWM_experiment,2022.2.3,60.00376824
,,,,,,,,,,,,,,,,,,,,5,0,5,0,3,0,3,0,,,,,,,,,,,,,,,,,,,,,,,,,,,,,,,,,,,,,,,,,,,,,,,,,,,,,,,,,,,,,,,,,,,,,,0.035,,,,,,,,,,,,,,,,,,,,,,,,,,,,left,0,70,30,100,1,2249.759296,2249.759296,2249.759296,None,None,2,0,0.9672066,,,,,,,,,,,,,,,,,,,10,7,1,2024-10-18_15h08.49.031,uWM_experiment,2022.2.3,60.00376824
,,,,,,,,,,,,,,,,,,,,5,0,5,0,4,0,4,0,,,,,,,,,,,,,,,,,,,,,,,,,,,,,,,,,,,,,,,,,,,,,,,,,,,,,,,,,,,,,,,,,,,,,,0.1,,,,,,,,,,,,,,,,,,,,,,,,,,,,left,1,40,-30,10,2,2256.776235,2256.776235,2256.776235,None,None,4,0,0.8941424,,,,,,,,,,,,,,,,,,,10,7,1,2024-10-18_15h08.49.031,uWM_experiment,2022.2.3,60.00376824
,,,,,,,,,,,,,,,,,,,,5,0,5,0,5,0,5,0,,,,,,,,,,,,,,,,,,,,,,,,,,,,,,,,,,,,,,,,,,,,,,,,,,,,,,,,,,,,,,,,,,,,,,0.025,,,,,,,,,,,,,,,,,,,,,,,,,,,,left,1,40,-30,10,1,2264.393209,2264.393209,2264.393209,None,None,3,0,0.9890984,,,,,,,,,,,,,,,,,,,10,7,1,2024-10-18_15h08.49.031,uWM_experiment,2022.2.3,60.00376824
,,,,,,,,,,,,,,,,,,,,5,0,5,0,6,0,6,0,,,,,,,,,,,,,,,,,,,,,,,,,,,,,,,,,,,,,,,,,,,,,,,,,,,,,,,,,,,,,,,,,,,,,,0,,,,,,,,,,,,,,,,,,,,,,,,,,,,left,0,160,30,190,0,2271.460177,2271.460177,2271.460177,None,None,2,0,0.9141297,,,,,,,,,,,,,,,,,,,10,7,1,2024-10-18_15h08.49.031,uWM_experiment,2022.2.3,60.00376824
,,,,,,,,,,,,,,,,,,,,5,0,5,0,7,0,7,0,,,,,,,,,,,,,,,,,,,,,,,,,,,,,,,,,,,,,,,,,,,,,,,,,,,,,,,,,,,,,,,,,,,,,,0.015,,,,,,,,,,,,,,,,,,,,,,,,,,,,right,0,40,-30,10,1,2278.660439,2278.660439,2278.660439,None,None,3,0,2.417719,,,,,,,,,,,,,,,,,,,10,7,1,2024-10-18_15h08.49.031,uWM_experiment,2022.2.3,60.00376824
,,,,,,,,,,,,,,,,,,,,5,0,5,0,8,0,8,0,,,,,,,,,,,,,,,,,,,,,,,,,,,,,,,,,,,,,,,,,,,,,,,,,,,,,,,,,,,,,,,,,,,,,,0.005,,,,,,,,,,,,,,,,,,,,,,,,,,,,right,1,40,30,70,1,2287.160793,2287.160793,2287.160793,None,None,3,0,2.0693419,,,,,,,,,,,,,,,,,,,10,7,1,2024-10-18_15h08.49.031,uWM_experiment,2022.2.3,60.00376824
,,,,,,,,,,,,,,,,,,,,5,0,5,0,9,0,9,0,,,,,,,,,,,,,,,,,,,,,,,,,,,,,,,,,,,,,,,,,,,,,,,,,,,,,,,,,,,,,,,,,,,,,,0.005,,,,,,,,,,,,,,,,,,,,,,,,,,,,right,1,160,30,190,1,2295.511097,2295.511097,2295.511097,None,None,3,0,2.4951223,,,,,,,,,,,,,,,,,,,10,7,1,2024-10-18_15h08.49.031,uWM_experiment,2022.2.3,60.00376824
,,,,,,,,,,,,,,,,,,,,5,0,5,0,10,0,10,0,,,,,,,,,,,,,,,,,,,,,,,,,,,,,,,,,,,,,,,,,,,,,,,,,,,,,,,,,,,,,,,,,,,,,,0,,,,,,,,,,,,,,,,,,,,,,,,,,,,right,1,10,30,40,0,2303.66145,2303.66145,2303.66145,None,None,4,0,0.9526199,,,,,,,,,,,,,,,,,,,10,7,1,2024-10-18_15h08.49.031,uWM_experiment,2022.2.3,60.00376824
,,,,,,,,,,,,,,,,,,,,5,0,5,0,11,0,11,0,,,,,,,,,,,,,,,,,,,,,,,,,,,,,,,,,,,,,,,,,,,,,,,,,,,,,,,,,,,,,,,,,,,,,,0.1,,,,,,,,,,,,,,,,,,,,,,,,,,,,left,1,160,-30,130,2,2310.59504,2310.59504,2310.59504,None,None,4,0,0.7550256,,,,,,,,,,,,,,,,,,,10,7,1,2024-10-18_15h08.49.031,uWM_experiment,2022.2.3,60.00376824
,,,,,,,,,,,,,,,,,,,,5,0,5,0,12,0,12,0,,,,,,,,,,,,,,,,,,,,,,,,,,,,,,,,,,,,,,,,,,,,,,,,,,,,,,,,,,,,,,,,,,,,,,0.005,,,,,,,,,,,,,,,,,,,,,,,,,,,,left,1,160,-30,130,1,2318.111992,2318.111992,2318.111992,None,None,3,0,5.2141775,,,,,,,,,,,,,,,,,,,10,7,1,2024-10-18_15h08.49.031,uWM_experiment,2022.2.3,60.00376824
,,,,,,,,,,,,,,,,,,,,5,0,5,0,13,0,13,0,,,,,,,,,,,,,,,,,,,,,,,,,,,,,,,,,,,,,,,,,,,,,,,,,,,,,,,,,,,,,,,,,,,,,,0,,,,,,,,,,,,,,,,,,,,,,,,,,,,left,1,130,-30,100,0,2328.962438,2328.962438,2328.962438,None,None,3,0,4.8515106,,,,,,,,,,,,,,,,,,,10,7,1,2024-10-18_15h08.49.031,uWM_experiment,2022.2.3,60.00376824
,,,,,,,,,,,,,,,,,,,,5,0,5,0,14,0,14,0,,,,,,,,,,,,,,,,,,,,,,,,,,,,,,,,,,,,,,,,,,,,,,,,,,,,,,,,,,,,,,,,,,,,,,0,,,,,,,,,,,,,,,,,,,,,,,,,,,,right,0,100,-30,70,0,2339.512883,2339.512883,2339.512883,None,None,2,0,1.3890679,,,,,,,,,,,,,,,,,,,10,7,1,2024-10-18_15h08.49.031,uWM_experiment,2022.2.3,60.00376824
,,,,,,,,,,,,,,,,,,,,5,0,5,0,15,0,15,0,,,,,,,,,,,,,,,,,,,,,,,,,,,,,,,,,,,,,,,,,,,,,,,,,,,,,,,,,,,,,,,,,,,,,,0.005,,,,,,,,,,,,,,,,,,,,,,,,,,,,right,0,40,-30,10,1,2346.596479,2346.596479,2346.596479,None,None,2,0,3.3935169,,,,,,,,,,,,,,,,,,,10,7,1,2024-10-18_15h08.49.031,uWM_experiment,2022.2.3,60.00376824
,,,,,,,,,,,,,,,,,,,,5,0,5,0,16,0,16,0,,,,,,,,,,,,,,,,,,,,,,,,,,,,,,,,,,,,,,,,,,,,,,,,,,,,,,,,,,,,,,,,,,,,,,0.005,,,,,,,,,,,,,,,,,,,,,,,,,,,,right,0,100,-30,70,1,2355.463491,2355.463491,2355.463491,None,None,4,0,0.7023519,,,,,,,,,,,,,,,,,,,10,7,1,2024-10-18_15h08.49.031,uWM_experiment,2022.2.3,60.00376824
,,,,,,,,,,,,,,,,,,,,5,0,5,0,17,0,17,0,,,,,,,,,,,,,,,,,,,,,,,,,,,,,,,,,,,,,,,,,,,,,,,,,,,,,,,,,,,,,,,,,,,,,,0.005,,,,,,,,,,,,,,,,,,,,,,,,,,,,right,0,40,-30,10,1,2363.997148,2363.997148,2363.997148,None,None,2,0,1.888722,,,,,,,,,,,,,,,,,,,10,7,1,2024-10-18_15h08.49.031,uWM_experiment,2022.2.3,60.00376824
,,,,,,,,,,,,,,,,,,,,5,0,5,0,18,0,18,0,,,,,,,,,,,,,,,,,,,,,,,,,,,,,,,,,,,,,,,,,,,,,,,,,,,,,,,,,,,,,,,,,,,,,,0.005,,,,,,,,,,,,,,,,,,,,,,,,,,,,right,1,40,30,70,1,2373.114166,2373.114166,2373.114166,None,None,2,0,2.2757386,,,,,,,,,,,,,,,,,,,10,7,1,2024-10-18_15h08.49.031,uWM_experiment,2022.2.3,60.00376824
,,,,,,,,,,,,,,,,,,,,5,0,5,0,19,0,19,0,,,,,,,,,,,,,,,,,,,,,,,,,,,,,,,,,,,,,,,,,,,,,,,,,,,,,,,,,,,,,,,,,,,,,,0.005,,,,,,,,,,,,,,,,,,,,,,,,,,,,left,0,70,30,100,1,2381.147832,2381.147832,2381.147832,None,None,2,0,0.6579887,,,,,,,,,,,,,,,,,,,10,7,1,2024-10-18_15h08.49.031,uWM_experiment,2022.2.3,60.00376824
,,,,,,,,,,,,,,,,,,,,5,0,5,0,20,0,20,0,,,,,,,,,,,,,,,,,,,,,,,,,,,,,,,,,,,,,,,,,,,,,,,,,,,,,,,,,,,,,,,,,,,,,,0,,,,,,,,,,,,,,,,,,,,,,,,,,,,left,1,40,-30,10,0,2388.481451,2388.481451,2388.481451,None,None,2,0,1.7323759,,,,,,,,,,,,,,,,,,,10,7,1,2024-10-18_15h08.49.031,uWM_experiment,2022.2.3,60.00376824
,,,,,,,,,,,,,,,,,,,,5,0,5,0,21,0,21,0,,,,,,,,,,,,,,,,,,,,,,,,,,,,,,,,,,,,,,,,,,,,,,,,,,,,,,,,,,,,,,,,,,,,,,0.005,,,,,,,,,,,,,,,,,,,,,,,,,,,,left,1,10,-30,-20,1,2395.748403,2395.748403,2395.748403,None,None,2,0,0.6573291,,,,,,,,,,,,,,,,,,,10,7,1,2024-10-18_15h08.49.031,uWM_experiment,2022.2.3,60.00376824
,,,,,,,,,,,,,,,,,,,,5,0,5,0,22,0,22,0,,,,,,,,,,,,,,,,,,,,,,,,,,,,,,,,,,,,,,,,,,,,,,,,,,,,,,,,,,,,,,,,,,,,,,0,,,,,,,,,,,,,,,,,,,,,,,,,,,,left,0,100,30,130,0,2401.98199,2401.98199,2401.98199,None,None,3,0,1.1036843,,,,,,,,,,,,,,,,,,,10,7,1,2024-10-18_15h08.49.031,uWM_experiment,2022.2.3,60.00376824
,,,,,,,,,,,,,,,,,,,,5,0,5,0,23,0,23,0,,,,,,,,,,,,,,,,,,,,,,,,,,,,,,,,,,,,,,,,,,,,,,,,,,,,,,,,,,,,,,,,,,,,,,0.005,,,,,,,,,,,,,,,,,,,,,,,,,,,,left,1,10,-30,-20,1,2408.932248,2408.932248,2408.932248,None,None,2,0,2.1053458,,,,,,,,,,,,,,,,,,,10,7,1,2024-10-18_15h08.49.031,uWM_experiment,2022.2.3,60.00376824
,,,,,,,,,,,,,,,,,,,,5,0,5,0,,,,,0,0,0,0,,,,,,,,,,,,,,,,,,,,,,,,,,,,,,,,,,,,,,,,,,,,,,,,,,,,,,,,,,,,,,,,,,,,,,,,,,,,,,,,,,,,,,,,,,,,,,,,,,,,,,,,,,,,2411.065655,2411.065655,space,50.6277857,space,None,,2461.717667,2461.717667,2.9117746,,,,,,,,,10,7,1,2024-10-18_15h08.49.031,uWM_experiment,2022.2.3,60.00376824
,,,,,,,,,,,,,,,,,,,,5,0,5,0,,,,,1,0,1,0,,,,,,,,,,,,,,,,,,,,,,,,,,,,,,,,,,,,,,,,,,,,,,,,,,,,,,,,,,,,,,,,,,,,,,,,,,,,,,,,,,,,,,,,,,,,,,,,,,,,,,,,,,,,,,,,,,,,,,,,,,,,,,10,7,1,2024-10-18_15h08.49.031,uWM_experiment,2022.2.3,60.00376824
,,,,,,,,,,,,,,,,,,,,5,0,5,0,,,,,2,0,2,0,,,,,,,,,,,,,,,,,,,,,,,,,,,,,,,,,,,,,,,,,,,,,,,,,,,,,,,,,,,,,,,,,,,,,,,,,,,,,,,,,,,,,,,,,,,,,,,,,,,,,,,,,,,,,,,,,,,,,,,,,,,,,,10,7,1,2024-10-18_15h08.49.031,uWM_experiment,2022.2.3,60.00376824
,,,,,,,,,,,,,,,,,,,,6,0,6,0,0,0,0,0,,,,,,,,,,,,,,,,,,,,,,,,,,,,,,,,,,,,,,,,,,,,,,,,,,,,,,,,,,,,,,,,,,,,,,0.005,,,,,,,,,,,,,,,,,,,,2464.651127,2465.351143,2465.651158,2466.351188,2466.651197,2467.351223,2467.351223,2467.667916,left,1,160,-30,130,1,2472.134759,2472.134759,2472.134759,None,None,1,1,1.3426449,,,,,,,None,,,,,,,,,,,,10,7,1,2024-10-18_15h08.49.031,uWM_experiment,2022.2.3,60.00376824
,,,,,,,,,,,,,,,,,,,,6,0,6,0,1,0,1,0,,,,,,,,,,,,,,,,,,,,,,,,,,,,,,,,,,,,,,,,,,,,,,,,,,,,,,,,,,,,,,,,,,,,,,0.015,,,,,,,,,,,,,,,,,,,,,,,,,,,,left,0,70,30,100,1,2479.118376,2479.118376,2479.118376,None,None,1,1,0.7349048,,,,,,,,,,,,,,,,,,,10,7,1,2024-10-18_15h08.49.031,uWM_experiment,2022.2.3,60.00376824
,,,,,,,,,,,,,,,,,,,,6,0,6,0,2,0,2,0,,,,,,,,,,,,,,,,,,,,,,,,,,,,,,,,,,,,,,,,,,,,,,,,,,,,,,,,,,,,,,,,,,,,,,0,,,,,,,,,,,,,,,,,,,,,,,,,,,,right,1,100,30,130,0,2487.368681,2487.368681,2487.368681,None,None,1,1,1.0846052,,,,,,,,,,,,,,,,,,,10,7,1,2024-10-18_15h08.49.031,uWM_experiment,2022.2.3,60.00376824
,,,,,,,,,,,,,,,,,,,,6,0,6,0,3,0,3,0,,,,,,,,,,,,,,,,,,,,,,,,,,,,,,,,,,,,,,,,,,,,,,,,,,,,,,,,,,,,,,,,,,,,,,0.025,,,,,,,,,,,,,,,,,,,,,,,,,,,,left,0,10,30,40,1,2496.385739,2496.385739,2496.385739,None,None,1,1,2.107605,,,,,,,,,,,,,,,,,,,10,7,1,2024-10-18_15h08.49.031,uWM_experiment,2022.2.3,60.00376824
,,,,,,,,,,,,,,,,,,,,6,0,6,0,4,0,4,0,,,,,,,,,,,,,,,,,,,,,,,,,,,,,,,,,,,,,,,,,,,,,,,,,,,,,,,,,,,,,,,,,,,,,,0.035,,,,,,,,,,,,,,,,,,,,,,,,,,,,left,1,40,-30,10,1,2504.536028,2504.536028,2504.536028,None,None,2,0,0.701142,,,,,,,,,,,,,,,,,,,10,7,1,2024-10-18_15h08.49.031,uWM_experiment,2022.2.3,60.00376824
,,,,,,,,,,,,,,,,,,,,6,0,6,0,5,0,5,0,,,,,,,,,,,,,,,,,,,,,,,,,,,,,,,,,,,,,,,,,,,,,,,,,,,,,,,,,,,,,,,,,,,,,,0.025,,,,,,,,,,,,,,,,,,,,,,,,,,,,left,1,100,-30,70,1,2511.33632,2511.33632,2511.33632,None,None,2,0,0.6768802,,,,,,,,,,,,,,,,,,,10,7,1,2024-10-18_15h08.49.031,uWM_experiment,2022.2.3,60.00376824
,,,,,,,,,,,,,,,,,,,,6,0,6,0,6,0,6,0,,,,,,,,,,,,,,,,,,,,,,,,,,,,,,,,,,,,,,,,,,,,,,,,,,,,,,,,,,,,,,,,,,,,,,0,,,,,,,,,,,,,,,,,,,,,,,,,,,,left,0,70,30,100,0,2519.036627,2519.036627,2519.036627,None,None,2,0,1.7766084,,,,,,,,,,,,,,,,,,,10,7,1,2024-10-18_15h08.49.031,uWM_experiment,2022.2.3,60.00376824
,,,,,,,,,,,,,,,,,,,,6,0,6,0,7,0,7,0,,,,,,,,,,,,,,,,,,,,,,,,,,,,,,,,,,,,,,,,,,,,,,,,,,,,,,,,,,,,,,,,,,,,,,0.015,,,,,,,,,,,,,,,,,,,,,,,,,,,,right,0,10,-30,-20,1,2528.103642,2528.103642,2528.103642,None,None,3,0,1.8935245,,,,,,,,,,,,,,,,,,,10,7,1,2024-10-18_15h08.49.031,uWM_experiment,2022.2.3,60.00376824
,,,,,,,,,,,,,,,,,,,,6,0,6,0,8,0,8,0,,,,,,,,,,,,,,,,,,,,,,,,,,,,,,,,,,,,,,,,,,,,,,,,,,,,,,,,,,,,,,,,,,,,,,0.005,,,,,,,,,,,,,,,,,,,,,,,,,,,,left,0,160,30,190,1,2535.920612,2535.920612,2535.920612,None,None,3,0,0.8285554,,,,,,,,,,,,,,,,,,,10,7,1,2024-10-18_15h08.49.031,uWM_experiment,2022.2.3,60.00376824
,,,,,,,,,,,,,,,,,,,,6,0,6,0,9,0,9,0,,,,,,,,,,,,,,,,,,,,,,,,,,,,,,,,,,,,,,,,,,,,,,,,,,,,,,,,,,,,,,,,,,,,,,0.005,,,,,,,,,,,,,,,,,,,,,,,,,,,,left,0,10,30,40,1,2544.787638,2544.787638,2544.787638,None,None,3,0,3.1293956,,,,,,,,,,,,,,,,,,,10,7,1,2024-10-18_15h08.49.031,uWM_experiment,2022.2.3,60.00376824
,,,,,,,,,,,,,,,,,,,,6,0,6,0,10,0,10,0,,,,,,,,,,,,,,,,,,,,,,,,,,,,,,,,,,,,,,,,,,,,,,,,,,,,,,,,,,,,,,,,,,,,,,0.1,,,,,,,,,,,,,,,,,,,,,,,,,,,,right,1,40,30,70,2,2553.837995,2553.837995,2553.837995,None,None,4,0,0.823012,,,,,,,,,,,,,,,,,,,10,7,1,2024-10-18_15h08.49.031,uWM_experiment,2022.2.3,60.00376824
,,,,,,,,,,,,,,,,,,,,6,0,6,0,11,0,11,0,,,,,,,,,,,,,,,,,,,,,,,,,,,,,,,,,,,,,,,,,,,,,,,,,,,,,,,,,,,,,,,,,,,,,,0,,,,,,,,,,,,,,,,,,,,,,,,,,,,left,0,130,30,160,0,2560.238254,2560.238254,2560.238254,None,None,1,1,0.9907289,,,,,,,,,,,,,,,,,,,10,7,1,2024-10-18_15h08.49.031,uWM_experiment,2022.2.3,60.00376824
,,,,,,,,,,,,,,,,,,,,6,0,6,0,12,0,12,0,,,,,,,,,,,,,,,,,,,,,,,,,,,,,,,,,,,,,,,,,,,,,,,,,,,,,,,,,,,,,,,,,,,,,,0.005,,,,,,,,,,,,,,,,,,,,,,,,,,,,right,0,70,-30,40,1,2567.688561,2567.688561,2567.688561,None,None,1,1,1.2284031,,,,,,,,,,,,,,,,,,,10,7,1,2024-10-18_15h08.49.031,uWM_experiment,2022.2.3,60.00376824
,,,,,,,,,,,,,,,,,,,,6,0,6,0,13,0,13,0,,,,,,,,,,,,,,,,,,,,,,,,,,,,,,,,,,,,,,,,,,,,,,,,,,,,,,,,,,,,,,,,,,,,,,0.015,,,,,,,,,,,,,,,,,,,,,,,,,,,,left,1,100,-30,70,1,2575.28885,2575.28885,2575.28885,None,None,2,0,1.8840748,,,,,,,,,,,,,,,,,,,10,7,1,2024-10-18_15h08.49.031,uWM_experiment,2022.2.3,60.00376824
,,,,,,,,,,,,,,,,,,,,6,0,6,0,14,0,14,0,,,,,,,,,,,,,,,,,,,,,,,,,,,,,,,,,,,,,,,,,,,,,,,,,,,,,,,,,,,,,,,,,,,,,,0,,,,,,,,,,,,,,,,,,,,,,,,,,,,left,1,130,-30,100,0,2582.705801,2582.705801,2582.705801,None,None,3,0,1.0671711,,,,,,,,,,,,,,,,,,,10,7,1,2024-10-18_15h08.49.031,uWM_experiment,2022.2.3,60.00376824
,,,,,,,,,,,,,,,,,,,,6,0,6,0,15,0,15,0,,,,,,,,,,,,,,,,,,,,,,,,,,,,,,,,,,,,,,,,,,,,,,,,,,,,,,,,,,,,,,,,,,,,,,0.005,,,,,,,,,,,,,,,,,,,,,,,,,,,,right,1,160,30,190,1,2590.456119,2590.456119,2590.456119,None,None,2,0,1.6767961,,,,,,,,,,,,,,,,,,,10,7,1,2024-10-18_15h08.49.031,uWM_experiment,2022.2.3,60.00376824
,,,,,,,,,,,,,,,,,,,,6,0,6,0,16,0,16,0,,,,,,,,,,,,,,,,,,,,,,,,,,,,,,,,,,,,,,,,,,,,,,,,,,,,,,,,,,,,,,,,,,,,,,0.005,,,,,,,,,,,,,,,,,,,,,,,,,,,,left,1,130,-30,100,1,2600.173155,2600.173155,2600.173155,None,None,1,1,0.5676038,,,,,,,,,,,,,,,,,,,10,7,1,2024-10-18_15h08.49.031,uWM_experiment,2022.2.3,60.00376824
,,,,,,,,,,,,,,,,,,,,6,0,6,0,17,0,17,0,,,,,,,,,,,,,,,,,,,,,,,,,,,,,,,,,,,,,,,,,,,,,,,,,,,,,,,,,,,,,,,,,,,,,,0.015,,,,,,,,,,,,,,,,,,,,,,,,,,,,left,0,100,30,130,1,2606.340093,2606.340093,2606.340093,None,None,3,0,1.4567182,,,,,,,,,,,,,,,,,,,10,7,1,2024-10-18_15h08.49.031,uWM_experiment,2022.2.3,60.00376824
,,,,,,,,,,,,,,,,,,,,6,0,6,0,18,0,18,0,,,,,,,,,,,,,,,,,,,,,,,,,,,,,,,,,,,,,,,,,,,,,,,,,,,,,,,,,,,,,,,,,,,,,,0,,,,,,,,,,,,,,,,,,,,,,,,,,,,left,1,70,-30,40,0,2614.490387,2614.490387,2614.490387,None,None,2,0,0.8583277,,,,,,,,,,,,,,,,,,,10,7,1,2024-10-18_15h08.49.031,uWM_experiment,2022.2.3,60.00376824
,,,,,,,,,,,,,,,,,,,,6,0,6,0,19,0,19,0,,,,,,,,,,,,,,,,,,,,,,,,,,,,,,,,,,,,,,,,,,,,,,,,,,,,,,,,,,,,,,,,,,,,,,0.005,,,,,,,,,,,,,,,,,,,,,,,,,,,,right,1,10,30,40,1,2621.273981,2621.273981,2621.273981,None,None,2,0,1.2026745,,,,,,,,,,,,,,,,,,,10,7,1,2024-10-18_15h08.49.031,uWM_experiment,2022.2.3,60.00376824
,,,,,,,,,,,,,,,,,,,,6,0,6,0,20,0,20,0,,,,,,,,,,,,,,,,,,,,,,,,,,,,,,,,,,,,,,,,,,,,,,,,,,,,,,,,,,,,,,,,,,,,,,0,,,,,,,,,,,,,,,,,,,,,,,,,,,,right,0,70,-30,40,0,2628.174255,2628.174255,2628.174255,None,None,2,0,0.8624422,,,,,,,,,,,,,,,,,,,10,7,1,2024-10-18_15h08.49.031,uWM_experiment,2022.2.3,60.00376824
,,,,,,,,,,,,,,,,,,,,6,0,6,0,21,0,21,0,,,,,,,,,,,,,,,,,,,,,,,,,,,,,,,,,,,,,,,,,,,,,,,,,,,,,,,,,,,,,,,,,,,,,,0.005,,,,,,,,,,,,,,,,,,,,,,,,,,,,left,1,160,-30,130,1,2634.85786,2634.85786,2634.85786,None,None,2,0,2.1227989,,,,,,,,,,,,,,,,,,,10,7,1,2024-10-18_15h08.49.031,uWM_experiment,2022.2.3,60.00376824
,,,,,,,,,,,,,,,,,,,,6,0,6,0,22,0,22,0,,,,,,,,,,,,,,,,,,,,,,,,,,,,,,,,,,,,,,,,,,,,,,,,,,,,,,,,,,,,,,,,,,,,,,0.005,,,,,,,,,,,,,,,,,,,,,,,,,,,,right,1,160,30,190,1,2642.658182,2642.658182,2642.658182,None,None,2,0,1.7703831,,,,,,,,,,,,,,,,,,,10,7,1,2024-10-18_15h08.49.031,uWM_experiment,2022.2.3,60.00376824
,,,,,,,,,,,,,,,,,,,,6,0,6,0,23,0,23,0,,,,,,,,,,,,,,,,,,,,,,,,,,,,,,,,,,,,,,,,,,,,,,,,,,,,,,,,,,,,,,,,,,,,,,0,,,,,,,,,,,,,,,,,,,,,,,,,,,,left,0,100,30,130,0,2649.875123,2649.875123,2649.875123,None,None,3,0,1.2335548,,,,,,,,,,,,,,,,,,,10,7,1,2024-10-18_15h08.49.031,uWM_experiment,2022.2.3,60.00376824
,,,,,,,,,,,,,,,,,,,,6,0,6,0,,,,,0,0,0,0,,,,,,,,,,,,,,,,,,,,,,,,,,,,,,,,,,,,,,,,,,,,,,,,,,,,,,,,,,,,,,,,,,,,,,,,,,,,,,,,,,,,,,,,,,,,,,,,,,,,,,,,,,,,2651.141838,2651.141838,space,69.4385114,None,space,,,,,2720.61124,2720.61124,6.2330358,,,,,,10,7,1,2024-10-18_15h08.49.031,uWM_experiment,2022.2.3,60.00376824
,,,,,,,,,,,,,,,,,,,,6,0,6,0,,,,,1,0,1,0,,,,,,,,,,,,,,,,,,,,,,,,,,,,,,,,,,,,,,,,,,,,,,,,,,,,,,,,,,,,,,,,,,,,,,,,,,,,,,,,,,,,,,,,,,,,,,,,,,,,,,,,,,,,,,,,,,,,,,,,,,,,,,10,7,1,2024-10-18_15h08.49.031,uWM_experiment,2022.2.3,60.00376824
,,,,,,,,,,,,,,,,,,,,6,0,6,0,,,,,2,0,2,0,,,,,,,,,,,,,,,,,,,,,,,,,,,,,,,,,,,,,,,,,,,,,,,,,,,,,,,,,,,,,,,,,,,,,,,,,,,,,,,,,,,,,,,,,,,,,,,,,,,,,,,,,,,,,,,,,,,,,,,,,,,,,,10,7,1,2024-10-18_15h08.49.031,uWM_experiment,2022.2.3,60.00376824
,,,,,,,,,,,,,,,,,,,,7,0,7,0,0,0,0,0,,,,,,,,,,,,,,,,,,,,,,,,,,,,,,,,,,,,,,,,,,,,,,,,,,,,,,,,,,,,,,,,,,,,,,0,,,,,,,,,,,,,,,,,,,,2739.095319,2739.795339,2740.078685,2740.778709,2741.078718,2741.778743,2741.778743,2742.095455,left,0,100,30,130,0,2747.128968,2747.128968,2747.128968,None,None,1,1,0.5870972,,,,,,,space,,,,,,,2735.49517,2735.49517,3.5730292,,,10,7,1,2024-10-18_15h08.49.031,uWM_experiment,2022.2.3,60.00376824
,,,,,,,,,,,,,,,,,,,,7,0,7,0,1,0,1,0,,,,,,,,,,,,,,,,,,,,,,,,,,,,,,,,,,,,,,,,,,,,,,,,,,,,,,,,,,,,,,,,,,,,,,0.005,,,,,,,,,,,,,,,,,,,,,,,,,,,,right,0,10,-30,-20,1,2754.079246,2754.079246,2754.079246,None,None,1,1,2.2048109,,,,,,,,,,,,,,,,,,,10,7,1,2024-10-18_15h08.49.031,uWM_experiment,2022.2.3,60.00376824
,,,,,,,,,,,,,,,,,,,,7,0,7,0,2,0,2,0,,,,,,,,,,,,,,,,,,,,,,,,,,,,,,,,,,,,,,,,,,,,,,,,,,,,,,,,,,,,,,,,,,,,,,0.015,,,,,,,,,,,,,,,,,,,,,,,,,,,,right,1,160,30,190,1,2762.112877,2762.112877,2762.112877,None,None,1,1,1.1072375,,,,,,,,,,,,,,,,,,,10,7,1,2024-10-18_15h08.49.031,uWM_experiment,2022.2.3,60.00376824
,,,,,,,,,,,,,,,,,,,,7,0,7,0,3,0,3,0,,,,,,,,,,,,,,,,,,,,,,,,,,,,,,,,,,,,,,,,,,,,,,,,,,,,,,,,,,,,,,,,,,,,,,0,,,,,,,,,,,,,,,,,,,,,,,,,,,,right,1,40,30,70,0,2768.829824,2768.829824,2768.829824,None,None,2,0,0.6462987,,,,,,,,,,,,,,,,,,,10,7,1,2024-10-18_15h08.49.031,uWM_experiment,2022.2.3,60.00376824
,,,,,,,,,,,,,,,,,,,,7,0,7,0,4,0,4,0,,,,,,,,,,,,,,,,,,,,,,,,,,,,,,,,,,,,,,,,,,,,,,,,,,,,,,,,,,,,,,,,,,,,,,0.025,,,,,,,,,,,,,,,,,,,,,,,,,,,,right,1,130,30,160,1,2777.296849,2777.296849,2777.296849,None,None,2,0,0.7071473,,,,,,,,,,,,,,,,,,,10,7,1,2024-10-18_15h08.49.031,uWM_experiment,2022.2.3,60.00376824
,,,,,,,,,,,,,,,,,,,,7,0,7,0,5,0,5,0,,,,,,,,,,,,,,,,,,,,,,,,,,,,,,,,,,,,,,,,,,,,,,,,,,,,,,,,,,,,,,,,,,,,,,0.015,,,,,,,,,,,,,,,,,,,,,,,,,,,,left,0,70,30,100,1,2783.713764,2783.713764,2783.713764,None,None,3,0,1.2504218,,,,,,,,,,,,,,,,,,,10,7,1,2024-10-18_15h08.49.031,uWM_experiment,2022.2.3,60.00376824
,,,,,,,,,,,,,,,,,,,,7,0,7,0,6,0,6,0,,,,,,,,,,,,,,,,,,,,,,,,,,,,,,,,,,,,,,,,,,,,,,,,,,,,,,,,,,,,,,,,,,,,,,0.005,,,,,,,,,,,,,,,,,,,,,,,,,,,,right,1,160,30,190,1,2790.79737,2790.79737,2790.79737,None,None,3,0,0.6066038,,,,,,,,,,,,,,,,,,,10,7,1,2024-10-18_15h08.49.031,uWM_experiment,2022.2.3,60.00376824
,,,,,,,,,,,,,,,,,,,,7,0,7,0,7,0,7,0,,,,,,,,,,,,,,,,,,,,,,,,,,,,,,,,,,,,,,,,,,,,,,,,,,,,,,,,,,,,,,,,,,,,,,0,,,,,,,,,,,,,,,,,,,,,,,,,,,,right,0,100,-30,70,0,2796.964289,2796.964289,2796.964289,None,None,4,0,1.1996937,,,,,,,,,,,,,,,,,,,10,7,1,2024-10-18_15h08.49.031,uWM_experiment,2022.2.3,60.00376824
,,,,,,,,,,,,,,,,,,,,7,0,7,0,8,0,8,0,,,,,,,,,,,,,,,,,,,,,,,,,,,,,,,,,,,,,,,,,,,,,,,,,,,,,,,,,,,,,,,,,,,,,,0,,,,,,,,,,,,,,,,,,,,,,,,,,,,left,0,10,30,40,0,2804.214574,2804.214574,2804.214574,None,None,3,0,1.0052358,,,,,,,,,,,,,,,,,,,10,7,1,2024-10-18_15h08.49.031,uWM_experiment,2022.2.3,60.00376824
,,,,,,,,,,,,,,,,,,,,7,0,7,0,9,0,9,0,,,,,,,,,,,,,,,,,,,,,,,,,,,,,,,,,,,,,,,,,,,,,,,,,,,,,,,,,,,,,,,,,,,,,,0.005,,,,,,,,,,,,,,,,,,,,,,,,,,,,left,0,100,30,130,1,2810.864833,2810.864833,2810.864833,None,None,2,0,1.05094,,,,,,,,,,,,,,,,,,,10,7,1,2024-10-18_15h08.49.031,uWM_experiment,2022.2.3,60.00376824
,,,,,,,,,,,,,,,,,,,,7,0,7,0,10,0,10,0,,,,,,,,,,,,,,,,,,,,,,,,,,,,,,,,,,,,,,,,,,,,,,,,,,,,,,,,,,,,,,,,,,,,,,0.005,,,,,,,,,,,,,,,,,,,,,,,,,,,,left,0,100,30,130,1,2817.4651,2817.4651,2817.4651,None,None,2,0,0.8026451,,,,,,,,,,,,,,,,,,,10,7,1,2024-10-18_15h08.49.031,uWM_experiment,2022.2.3,60.00376824
,,,,,,,,,,,,,,,,,,,,7,0,7,0,11,0,11,0,,,,,,,,,,,,,,,,,,,,,,,,,,,,,,,,,,,,,,,,,,,,,,,,,,,,,,,,,,,,,,,,,,,,,,0.005,,,,,,,,,,,,,,,,,,,,,,,,,,,,left,1,160,-30,130,1,2823.681998,2823.681998,2823.681998,None,None,3,0,1.2017263,,,,,,,,,,,,,,,,,,,10,7,1,2024-10-18_15h08.49.031,uWM_experiment,2022.2.3,60.00376824
,,,,,,,,,,,,,,,,,,,,7,0,7,0,12,0,12,0,,,,,,,,,,,,,,,,,,,,,,,,,,,,,,,,,,,,,,,,,,,,,,,,,,,,,,,,,,,,,,,,,,,,,,0.005,,,,,,,,,,,,,,,,,,,,,,,,,,,,right,1,10,30,40,1,2830.515601,2830.515601,2830.515601,None,None,3,0,1.6721227,,,,,,,,,,,,,,,,,,,10,7,1,2024-10-18_15h08.49.031,uWM_experiment,2022.2.3,60.00376824
,,,,,,,,,,,,,,,,,,,,7,0,7,0,13,0,13,0,,,,,,,,,,,,,,,,,,,,,,,,,,,,,,,,,,,,,,,,,,,,,,,,,,,,,,,,,,,,,,,,,,,,,,0,,,,,,,,,,,,,,,,,,,,,,,,,,,,left,0,130,30,160,0,2837.932564,2837.932564,2837.932564,None,None,2,0,0.9271561,,,,,,,,,,,,,,,,,,,10,7,1,2024-10-18_15h08.49.031,uWM_experiment,2022.2.3,60.00376824
,,,,,,,,,,,,,,,,,,,,7,0,7,0,14,0,14,0,,,,,,,,,,,,,,,,,,,,,,,,,,,,,,,,,,,,,,,,,,,,,,,,,,,,,,,,,,,,,,,,,,,,,,0.005,,,,,,,,,,,,,,,,,,,,,,,,,,,,left,1,160,-30,130,1,2844.432827,2844.432827,2844.432827,None,None,2,0,0.9309674,,,,,,,,,,,,,,,,,,,10,7,1,2024-10-18_15h08.49.031,uWM_experiment,2022.2.3,60.00376824
,,,,,,,,,,,,,,,,,,,,7,0,7,0,15,0,15,0,,,,,,,,,,,,,,,,,,,,,,,,,,,,,,,,,,,,,,,,,,,,,,,,,,,,,,,,,,,,,,,,,,,,,,0.005,,,,,,,,,,,,,,,,,,,,,,,,,,,,right,0,70,-30,40,1,2851.349768,2851.349768,2851.349768,None,None,2,0,0.8619715,,,,,,,,,,,,,,,,,,,10,7,1,2024-10-18_15h08.49.031,uWM_experiment,2022.2.3,60.00376824
,,,,,,,,,,,,,,,,,,,,7,0,7,0,16,0,16,0,,,,,,,,,,,,,,,,,,,,,,,,,,,,,,,,,,,,,,,,,,,,,,,,,,,,,,,,,,,,,,,,,,,,,,0,,,,,,,,,,,,,,,,,,,,,,,,,,,,left,1,10,-30,-20,0,2858.350134,2858.350134,2858.350134,None,None,2,0,0.8615686,,,,,,,,,,,,,,,,,,,10,7,1,2024-10-18_15h08.49.031,uWM_experiment,2022.2.3,60.00376824
,,,,,,,,,,,,,,,,,,,,7,0,7,0,17,0,17,0,,,,,,,,,,,,,,,,,,,,,,,,,,,,,,,,,,,,,,,,,,,,,,,,,,,,,,,,,,,,,,,,,,,,,,0.005,,,,,,,,,,,,,,,,,,,,,,,,,,,,right,0,70,-30,40,1,2865.533663,2865.533663,2865.533663,None,None,2,0,1.2378688,,,,,,,,,,,,,,,,,,,10,7,1,2024-10-18_15h08.49.031,uWM_experiment,2022.2.3,60.00376824
,,,,,,,,,,,,,,,,,,,,7,0,7,0,18,0,18,0,,,,,,,,,,,,,,,,,,,,,,,,,,,,,,,,,,,,,,,,,,,,,,,,,,,,,,,,,,,,,,,,,,,,,,0,,,,,,,,,,,,,,,,,,,,,,,,,,,,left,0,100,30,130,0,2872.400592,2872.400592,2872.400592,None,None,3,0,1.1869287,,,,,,,,,,,,,,,,,,,10,7,1,2024-10-18_15h08.49.031,uWM_experiment,2022.2.3,60.00376824
,,,,,,,,,,,,,,,,,,,,7,0,7,0,19,0,19,0,,,,,,,,,,,,,,,,,,,,,,,,,,,,,,,,,,,,,,,,,,,,,,,,,,,,,,,,,,,,,,,,,,,,,,0.005,,,,,,,,,,,,,,,,,,,,,,,,,,,,left,0,100,30,130,1,2879.267535,2879.267535,2879.267535,None,None,3,0,0.9519517,,,,,,,,,,,,,,,,,,,10,7,1,2024-10-18_15h08.49.031,uWM_experiment,2022.2.3,60.00376824
,,,,,,,,,,,,,,,,,,,,7,0,7,0,20,0,20,0,,,,,,,,,,,,,,,,,,,,,,,,,,,,,,,,,,,,,,,,,,,,,,,,,,,,,,,,,,,,,,,,,,,,,,0.1,,,,,,,,,,,,,,,,,,,,,,,,,,,,left,1,70,-30,40,2,2886.401155,2886.401155,2886.401155,None,None,4,0,0.5623741,,,,,,,,,,,,,,,,,,,10,7,1,2024-10-18_15h08.49.031,uWM_experiment,2022.2.3,60.00376824
,,,,,,,,,,,,,,,,,,,,7,0,7,0,21,0,21,0,,,,,,,,,,,,,,,,,,,,,,,,,,,,,,,,,,,,,,,,,,,,,,,,,,,,,,,,,,,,,,,,,,,,,,0.005,,,,,,,,,,,,,,,,,,,,,,,,,,,,left,1,100,-30,70,1,2893.751432,2893.751432,2893.751432,None,None,1,1,0.732088,,,,,,,,,,,,,,,,,,,10,7,1,2024-10-18_15h08.49.031,uWM_experiment,2022.2.3,60.00376824
,,,,,,,,,,,,,,,,,,,,7,0,7,0,22,0,22,0,,,,,,,,,,,,,,,,,,,,,,,,,,,,,,,,,,,,,,,,,,,,,,,,,,,,,,,,,,,,,,,,,,,,,,0.015,,,,,,,,,,,,,,,,,,,,,,,,,,,,left,0,130,30,160,1,2900.835061,2900.835061,2900.835061,None,None,1,1,1.0883037,,,,,,,,,,,,,,,,,,,10,7,1,2024-10-18_15h08.49.031,uWM_experiment,2022.2.3,60.00376824
,,,,,,,,,,,,,,,,,,,,7,0,7,0,23,0,23,0,,,,,,,,,,,,,,,,,,,,,,,,,,,,,,,,,,,,,,,,,,,,,,,,,,,,,,,,,,,,,,,,,,,,,,0,,,,,,,,,,,,,,,,,,,,,,,,,,,,left,0,100,30,130,0,2908.268682,2908.268682,2908.268682,None,None,1,1,1.1907938,,,,,,,,,,,,,,,,,,,10,7,1,2024-10-18_15h08.49.031,uWM_experiment,2022.2.3,60.00376824
,,,,,,,,,,,,,,,,,,,,7,0,7,0,,,,,0,0,0,0,,,,,,,,,,,,,,,,,,,,,,,,,,,,,,,,,,,,,,,,,,,,,,,,,,,,,,,,,,,,,,,,,,,,,,,,,,,,,,,,,,,,,,,,,,,,,,,,,,,,,,,,,,,,2909.485369,2909.485369,space,2.6941013,None,None,,,,,,,,,,,,,10,7,1,2024-10-18_15h08.49.031,uWM_experiment,2022.2.3,60.00376824
,,,,,,,,,,,,,,,,,,,,7,0,7,0,,,,,1,0,1,0,,,,,,,,,,,,,,,,,,,,,,,,,,,,,,,,,,,,,,,,,,,,,,,,,,,,,,,,,,,,,,,,,,,,,,,,,,,,,,,,,,,,,,,,,,,,,,,,,,,,,,,,,,,,,,,,,,,,,,,,,,,,,,10,7,1,2024-10-18_15h08.49.031,uWM_experiment,2022.2.3,60.00376824
,,,,,,,,,,,,,,,,,,,,7,0,7,0,,,,,2,0,2,0,,,,,,,,,,,,,,,,,,,,,,,,,,,,,,,,,,,,,,,,,,,,,,,,,,,,,,,,,,,,,,,,,,,,,,,,,,,,,,,,,,,,,,,,,,,,,,,,,,,,,,,,,,,,,,,,,,,,,,,,,,,,,,10,7,1,2024-10-18_15h08.49.031,uWM_experiment,2022.2.3,60.00376824
,,,,,,,,,,,,,,,,,,,,8,0,8,0,0,0,0,0,,,,,,,,,,,,,,,,,,,,,,,,,,,,,,,,,,,,,,,,,,,,,,,,,,,,,,,,,,,,,,,,,,,,,,0,,,,,,,,,,,,,,,,,,,,2912.202156,2912.902181,2913.20221,2913.902219,2914.202231,2914.902261,2914.902261,2915.218948,left,1,10,-30,-20,0,2919.885794,2919.885794,2919.885794,None,None,1,1,0.7496179,,,,,,,None,,,,,,,,,,,,10,7,1,2024-10-18_15h08.49.031,uWM_experiment,2022.2.3,60.00376824
,,,,,,,,,,,,,,,,,,,,8,0,8,0,1,0,1,0,,,,,,,,,,,,,,,,,,,,,,,,,,,,,,,,,,,,,,,,,,,,,,,,,,,,,,,,,,,,,,,,,,,,,,0.025,,,,,,,,,,,,,,,,,,,,,,,,,,,,right,0,100,-30,70,1,2926.386076,2926.386076,2926.386076,None,None,3,0,1.193246,,,,,,,,,,,,,,,,,,,10,7,1,2024-10-18_15h08.49.031,uWM_experiment,2022.2.3,60.00376824
,,,,,,,,,,,,,,,,,,,,8,0,8,0,2,0,2,0,,,,,,,,,,,,,,,,,,,,,,,,,,,,,,,,,,,,,,,,,,,,,,,,,,,,,,,,,,,,,,,,,,,,,,0.015,,,,,,,,,,,,,,,,,,,,,,,,,,,,left,0,70,30,100,1,2933.169667,2933.169667,2933.169667,None,None,2,0,0.481678,,,,,,,,,,,,,,,,,,,10,7,1,2024-10-18_15h08.49.031,uWM_experiment,2022.2.3,60.00376824
,,,,,,,,,,,,,,,,,,,,8,0,8,0,3,0,3,0,,,,,,,,,,,,,,,,,,,,,,,,,,,,,,,,,,,,,,,,,,,,,,,,,,,,,,,,,,,,,,,,,,,,,,0.005,,,,,,,,,,,,,,,,,,,,,,,,,,,,left,1,160,-30,130,1,2939.236557,2939.236557,2939.236557,None,None,2,0,0.8707723,,,,,,,,,,,,,,,,,,,10,7,1,2024-10-18_15h08.49.031,uWM_experiment,2022.2.3,60.00376824
,,,,,,,,,,,,,,,,,,,,8,0,8,0,4,0,4,0,,,,,,,,,,,,,,,,,,,,,,,,,,,,,,,,,,,,,,,,,,,,,,,,,,,,,,,,,,,,,,,,,,,,,,0,,,,,,,,,,,,,,,,,,,,,,,,,,,,left,0,160,30,190,0,2947.203546,2947.203546,2947.203546,None,None,3,0,0.8876148,,,,,,,,,,,,,,,,,,,10,7,1,2024-10-18_15h08.49.031,uWM_experiment,2022.2.3,60.00376824
,,,,,,,,,,,,,,,,,,,,8,0,8,0,5,0,5,0,,,,,,,,,,,,,,,,,,,,,,,,,,,,,,,,,,,,,,,,,,,,,,,,,,,,,,,,,,,,,,,,,,,,,,0,,,,,,,,,,,,,,,,,,,,,,,,,,,,left,1,70,-30,40,0,2954.22048,2954.22048,2954.22048,None,None,2,0,0.758741,,,,,,,,,,,,,,,,,,,10,7,1,2024-10-18_15h08.49.031,uWM_experiment,2022.2.3,60.00376824
,,,,,,,,,,,,,,,,,,,,8,0,8,0,6,0,6,0,,,,,,,,,,,,,,,,,,,,,,,,,,,,,,,,,,,,,,,,,,,,,,,,,,,,,,,,,,,,,,,,,,,,,,0,,,,,,,,,,,,,,,,,,,,,,,,,,,,left,0,130,30,160,0,2960.837408,2960.837408,2960.837408,None,None,2,0,0.8298344,,,,,,,,,,,,,,,,,,,10,7,1,2024-10-18_15h08.49.031,uWM_experiment,2022.2.3,60.00376824
,,,,,,,,,,,,,,,,,,,,8,0,8,0,7,0,7,0,,,,,,,,,,,,,,,,,,,,,,,,,,,,,,,,,,,,,,,,,,,,,,,,,,,,,,,,,,,,,,,,,,,,,,0.005,,,,,,,,,,,,,,,,,,,,,,,,,,,,right,0,40,-30,10,1,2967.971029,2967.971029,2967.971029,None,None,3,0,1.6561738,,,,,,,,,,,,,,,,,,,10,7,1,2024-10-18_15h08.49.031,uWM_experiment,2022.2.3,60.00376824
,,,,,,,,,,,,,,,,,,,,8,0,8,0,8,0,8,0,,,,,,,,,,,,,,,,,,,,,,,,,,,,,,,,,,,,,,,,,,,,,,,,,,,,,,,,,,,,,,,,,,,,,,0.005,,,,,,,,,,,,,,,,,,,,,,,,,,,,left,1,130,-30,100,1,2975.80468,2975.80468,2975.80468,None,None,2,0,0.9023611,,,,,,,,,,,,,,,,,,,10,7,1,2024-10-18_15h08.49.031,uWM_experiment,2022.2.3,60.00376824
,,,,,,,,,,,,,,,,,,,,8,0,8,0,9,0,9,0,,,,,,,,,,,,,,,,,,,,,,,,,,,,,,,,,,,,,,,,,,,,,,,,,,,,,,,,,,,,,,,,,,,,,,0.005,,,,,,,,,,,,,,,,,,,,,,,,,,,,left,0,130,30,160,1,2984.638363,2984.638363,2984.638363,None,None,2,0,0.6846448,,,,,,,,,,,,,,,,,,,10,7,1,2024-10-18_15h08.49.031,uWM_experiment,2022.2.3,60.00376824
,,,,,,,,,,,,,,,,,,,,8,0,8,0,10,0,10,0,,,,,,,,,,,,,,,,,,,,,,,,,,,,,,,,,,,,,,,,,,,,,,,,,,,,,,,,,,,,,,,,,,,,,,0.005,,,,,,,,,,,,,,,,,,,,,,,,,,,,left,1,100,-30,70,1,2991.838654,2991.838654,2991.838654,None,None,2,0,0.6683244,,,,,,,,,,,,,,,,,,,10,7,1,2024-10-18_15h08.49.031,uWM_experiment,2022.2.3,60.00376824
,,,,,,,,,,,,,,,,,,,,8,0,8,0,11,0,11,0,,,,,,,,,,,,,,,,,,,,,,,,,,,,,,,,,,,,,,,,,,,,,,,,,,,,,,,,,,,,,,,,,,,,,,0.005,,,,,,,,,,,,,,,,,,,,,,,,,,,,left,0,100,30,130,1,2999.455618,2999.455618,2999.455618,None,None,2,0,1.835298,,,,,,,,,,,,,,,,,,,10,7,1,2024-10-18_15h08.49.031,uWM_experiment,2022.2.3,60.00376824
,,,,,,,,,,,,,,,,,,,,8,0,8,0,12,0,12,0,,,,,,,,,,,,,,,,,,,,,,,,,,,,,,,,,,,,,,,,,,,,,,,,,,,,,,,,,,,,,,,,,,,,,,0.005,,,,,,,,,,,,,,,,,,,,,,,,,,,,left,1,130,-30,100,1,3007.87261,3007.87261,3007.87261,None,None,2,0,0.754278,,,,,,,,,,,,,,,,,,,10,7,1,2024-10-18_15h08.49.031,uWM_experiment,2022.2.3,60.00376824
,,,,,,,,,,,,,,,,,,,,8,0,8,0,13,0,13,0,,,,,,,,,,,,,,,,,,,,,,,,,,,,,,,,,,,,,,,,,,,,,,,,,,,,,,,,,,,,,,,,,,,,,,0.005,,,,,,,,,,,,,,,,,,,,,,,,,,,,left,1,100,-30,70,1,3016.039587,3016.039587,3016.039587,None,None,2,0,2.8274393,,,,,,,,,,,,,,,,,,,10,7,1,2024-10-18_15h08.49.031,uWM_experiment,2022.2.3,60.00376824
,,,,,,,,,,,,,,,,,,,,8,0,8,0,14,0,14,0,,,,,,,,,,,,,,,,,,,,,,,,,,,,,,,,,,,,,,,,,,,,,,,,,,,,,,,,,,,,,,,,,,,,,,0,,,,,,,,,,,,,,,,,,,,,,,,,,,,left,1,70,-30,40,0,3025.123276,3025.123276,3025.123276,None,None,2,0,1.183698,,,,,,,,,,,,,,,,,,,10,7,1,2024-10-18_15h08.49.031,uWM_experiment,2022.2.3,60.00376824
,,,,,,,,,,,,,,,,,,,,8,0,8,0,15,0,15,0,,,,,,,,,,,,,,,,,,,,,,,,,,,,,,,,,,,,,,,,,,,,,,,,,,,,,,,,,,,,,,,,,,,,,,0,,,,,,,,,,,,,,,,,,,,,,,,,,,,left,0,130,30,160,0,3032.456925,3032.456925,3032.456925,None,None,2,0,0.7698768,,,,,,,,,,,,,,,,,,,10,7,1,2024-10-18_15h08.49.031,uWM_experiment,2022.2.3,60.00376824
,,,,,,,,,,,,,,,,,,,,8,0,8,0,16,0,16,0,,,,,,,,,,,,,,,,,,,,,,,,,,,,,,,,,,,,,,,,,,,,,,,,,,,,,,,,,,,,,,,,,,,,,,0.005,,,,,,,,,,,,,,,,,,,,,,,,,,,,left,1,130,-30,100,1,3039.840532,3039.840532,3039.840532,None,None,3,0,1.3463314,,,,,,,,,,,,,,,,,,,10,7,1,2024-10-18_15h08.49.031,uWM_experiment,2022.2.3,60.00376824
,,,,,,,,,,,,,,,,,,,,8,0,8,0,17,0,17,0,,,,,,,,,,,,,,,,,,,,,,,,,,,,,,,,,,,,,,,,,,,,,,,,,,,,,,,,,,,,,,,,,,,,,,0.005,,,,,,,,,,,,,,,,,,,,,,,,,,,,right,0,70,-30,40,1,3047.657585,3047.657585,3047.657585,None,None,2,0,1.5931794,,,,,,,,,,,,,,,,,,,10,7,1,2024-10-18_15h08.49.031,uWM_experiment,2022.2.3,60.00376824
,,,,,,,,,,,,,,,,,,,,8,0,8,0,18,0,18,0,,,,,,,,,,,,,,,,,,,,,,,,,,,,,,,,,,,,,,,,,,,,,,,,,,,,,,,,,,,,,,,,,,,,,,0.005,,,,,,,,,,,,,,,,,,,,,,,,,,,,left,0,10,30,40,1,3055.641176,3055.641176,3055.641176,None,None,3,0,1.3215277,,,,,,,,,,,,,,,,,,,10,7,1,2024-10-18_15h08.49.031,uWM_experiment,2022.2.3,60.00376824
,,,,,,,,,,,,,,,,,,,,8,0,8,0,19,0,19,0,,,,,,,,,,,,,,,,,,,,,,,,,,,,,,,,,,,,,,,,,,,,,,,,,,,,,,,,,,,,,,,,,,,,,,0.005,,,,,,,,,,,,,,,,,,,,,,,,,,,,left,0,130,30,160,1,3063.00813,3063.00813,3063.00813,None,None,3,0,0.6585809,,,,,,,,,,,,,,,,,,,10,7,1,2024-10-18_15h08.49.031,uWM_experiment,2022.2.3,60.00376824
,,,,,,,,,,,,,,,,,,,,8,0,8,0,20,0,20,0,,,,,,,,,,,,,,,,,,,,,,,,,,,,,,,,,,,,,,,,,,,,,,,,,,,,,,,,,,,,,,,,,,,,,,0,,,,,,,,,,,,,,,,,,,,,,,,,,,,left,1,100,-30,70,0,3071.341766,3071.341766,3071.341766,None,None,2,0,1.8129743,,,,,,,,,,,,,,,,,,,10,7,1,2024-10-18_15h08.49.031,uWM_experiment,2022.2.3,60.00376824
,,,,,,,,,,,,,,,,,,,,8,0,8,0,21,0,21,0,,,,,,,,,,,,,,,,,,,,,,,,,,,,,,,,,,,,,,,,,,,,,,,,,,,,,,,,,,,,,,,,,,,,,,0.005,,,,,,,,,,,,,,,,,,,,,,,,,,,,left,0,70,30,100,1,3079.258779,3079.258779,3079.258779,None,None,3,0,0.5438752,,,,,,,,,,,,,,,,,,,10,7,1,2024-10-18_15h08.49.031,uWM_experiment,2022.2.3,60.00376824
,,,,,,,,,,,,,,,,,,,,8,0,8,0,22,0,22,0,,,,,,,,,,,,,,,,,,,,,,,,,,,,,,,,,,,,,,,,,,,,,,,,,,,,,,,,,,,,,,,,,,,,,,0.005,,,,,,,,,,,,,,,,,,,,,,,,,,,,left,1,100,-30,70,1,3085.659007,3085.659007,3085.659007,None,None,1,1,0.5756668,,,,,,,,,,,,,,,,,,,10,7,1,2024-10-18_15h08.49.031,uWM_experiment,2022.2.3,60.00376824
,,,,,,,,,,,,,,,,,,,,8,0,8,0,23,0,23,0,,,,,,,,,,,,,,,,,,,,,,,,,,,,,,,,,,,,,,,,,,,,,,,,,,,,,,,,,,,,,,,,,,,,,,0.015,,,,,,,,,,,,,,,,,,,,,,,,,,,,left,1,160,-30,130,1,3091.775961,3091.775961,3091.775961,None,None,1,1,0.3385242,,,,,,,,,,,,,,,,,,,10,7,1,2024-10-18_15h08.49.031,uWM_experiment,2022.2.3,60.00376824
,,,,,,,,,,,,,,,,,,,,8,0,8,0,,,,,0,0,0,0,,,,,,,,,,,,,,,,,,,,,,,,,,,,,,,,,,,,,,,,,,,,,,,,,,,,,,,,,,,,,,,,,,,,,,,,,,,,,,,,,,,,,,,,,,,,,,,,,,,,,,,,,,,,3092.142581,3092.142581,space,110.9795724,space,None,,3203.146988,3203.146988,2.991115,,,,,,,,,10,7,1,2024-10-18_15h08.49.031,uWM_experiment,2022.2.3,60.00376824
,,,,,,,,,,,,,,,,,,,,8,0,8,0,,,,,1,0,1,0,,,,,,,,,,,,,,,,,,,,,,,,,,,,,,,,,,,,,,,,,,,,,,,,,,,,,,,,,,,,,,,,,,,,,,,,,,,,,,,,,,,,,,,,,,,,,,,,,,,,,,,,,,,,,,,,,,,,,,,,,,,,,,10,7,1,2024-10-18_15h08.49.031,uWM_experiment,2022.2.3,60.00376824
,,,,,,,,,,,,,,,,,,,,8,0,8,0,,,,,2,0,2,0,,,,,,,,,,,,,,,,,,,,,,,,,,,,,,,,,,,,,,,,,,,,,,,,,,,,,,,,,,,,,,,,,,,,,,,,,,,,,,,,,,,,,,,,,,,,,,,,,,,,,,,,,,,,,,,,,,,,,,,,,,,,,,10,7,1,2024-10-18_15h08.49.031,uWM_experiment,2022.2.3,60.00376824
,,,,,,,,,,,,,,,,,,,,9,0,9,0,0,0,0,0,,,,,,,,,,,,,,,,,,,,,,,,,,,,,,,,,,,,,,,,,,,,,,,,,,,,,,,,,,,,,,,,,,,,,,0.025,,,,,,,,,,,,,,,,,,,,3206.163769,3206.863799,3207.163794,3207.863835,3208.163851,3208.863876,3208.863876,3209.180565,left,1,70,-30,40,1,3214.364123,3214.364123,3214.364123,None,None,2,0,0.3739783,,,,,,,None,,,,,,,,,,,,10,7,1,2024-10-18_15h08.49.031,uWM_experiment,2022.2.3,60.00376824
,,,,,,,,,,,,,,,,,,,,9,0,9,0,1,0,1,0,,,,,,,,,,,,,,,,,,,,,,,,,,,,,,,,,,,,,,,,,,,,,,,,,,,,,,,,,,,,,,,,,,,,,,0.015,,,,,,,,,,,,,,,,,,,,,,,,,,,,left,0,100,30,130,1,3220.464366,3220.464366,3220.464366,None,None,3,0,0.7775934,,,,,,,,,,,,,,,,,,,10,7,1,2024-10-18_15h08.49.031,uWM_experiment,2022.2.3,60.00376824
,,,,,,,,,,,,,,,,,,,,9,0,9,0,2,0,2,0,,,,,,,,,,,,,,,,,,,,,,,,,,,,,,,,,,,,,,,,,,,,,,,,,,,,,,,,,,,,,,,,,,,,,,0,,,,,,,,,,,,,,,,,,,,,,,,,,,,left,1,100,-30,70,0,3227.281283,3227.281283,3227.281283,None,None,2,0,0.9846195,,,,,,,,,,,,,,,,,,,10,7,1,2024-10-18_15h08.49.031,uWM_experiment,2022.2.3,60.00376824
,,,,,,,,,,,,,,,,,,,,9,0,9,0,3,0,3,0,,,,,,,,,,,,,,,,,,,,,,,,,,,,,,,,,,,,,,,,,,,,,,,,,,,,,,,,,,,,,,,,,,,,,,0.005,,,,,,,,,,,,,,,,,,,,,,,,,,,,left,0,40,30,70,1,3234.398246,3234.398246,3234.398246,None,None,2,0,0.6676558,,,,,,,,,,,,,,,,,,,10,7,1,2024-10-18_15h08.49.031,uWM_experiment,2022.2.3,60.00376824
,,,,,,,,,,,,,,,,,,,,9,0,9,0,4,0,4,0,,,,,,,,,,,,,,,,,,,,,,,,,,,,,,,,,,,,,,,,,,,,,,,,,,,,,,,,,,,,,,,,,,,,,,0,,,,,,,,,,,,,,,,,,,,,,,,,,,,left,1,100,-30,70,0,3240.815161,3240.815161,3240.815161,None,None,2,0,1.6187383,,,,,,,,,,,,,,,,,,,10,7,1,2024-10-18_15h08.49.031,uWM_experiment,2022.2.3,60.00376824
,,,,,,,,,,,,,,,,,,,,9,0,9,0,5,0,5,0,,,,,,,,,,,,,,,,,,,,,,,,,,,,,,,,,,,,,,,,,,,,,,,,,,,,,,,,,,,,,,,,,,,,,,0,,,,,,,,,,,,,,,,,,,,,,,,,,,,left,1,130,-30,100,0,3248.382092,3248.382092,3248.382092,None,None,2,0,0.8517476,,,,,,,,,,,,,,,,,,,10,7,1,2024-10-18_15h08.49.031,uWM_experiment,2022.2.3,60.00376824
,,,,,,,,,,,,,,,,,,,,9,0,9,0,6,0,6,0,,,,,,,,,,,,,,,,,,,,,,,,,,,,,,,,,,,,,,,,,,,,,,,,,,,,,,,,,,,,,,,,,,,,,,0.005,,,,,,,,,,,,,,,,,,,,,,,,,,,,left,1,160,-30,130,1,3255.44908,3255.44908,3255.44908,None,None,3,0,1.6328257,,,,,,,,,,,,,,,,,,,10,7,1,2024-10-18_15h08.49.031,uWM_experiment,2022.2.3,60.00376824
,,,,,,,,,,,,,,,,,,,,9,0,9,0,7,0,7,0,,,,,,,,,,,,,,,,,,,,,,,,,,,,,,,,,,,,,,,,,,,,,,,,,,,,,,,,,,,,,,,,,,,,,,0.005,,,,,,,,,,,,,,,,,,,,,,,,,,,,left,0,10,30,40,1,3262.916071,3262.916071,3262.916071,None,None,2,0,0.7256909,,,,,,,,,,,,,,,,,,,10,7,1,2024-10-18_15h08.49.031,uWM_experiment,2022.2.3,60.00376824
,,,,,,,,,,,,,,,,,,,,9,0,9,0,8,0,8,0,,,,,,,,,,,,,,,,,,,,,,,,,,,,,,,,,,,,,,,,,,,,,,,,,,,,,,,,,,,,,,,,,,,,,,0.005,,,,,,,,,,,,,,,,,,,,,,,,,,,,left,1,100,-30,70,1,3269.366277,3269.366277,3269.366277,None,None,2,0,0.6836474,,,,,,,,,,,,,,,,,,,10,7,1,2024-10-18_15h08.49.031,uWM_experiment,2022.2.3,60.00376824
,,,,,,,,,,,,,,,,,,,,9,0,9,0,9,0,9,0,,,,,,,,,,,,,,,,,,,,,,,,,,,,,,,,,,,,,,,,,,,,,,,,,,,,,,,,,,,,,,,,,,,,,,0.005,,,,,,,,,,,,,,,,,,,,,,,,,,,,left,0,160,30,190,1,3275.68319,3275.68319,3275.68319,None,None,1,1,0.3184755,,,,,,,,,,,,,,,,,,,10,7,1,2024-10-18_15h08.49.031,uWM_experiment,2022.2.3,60.00376824
,,,,,,,,,,,,,,,,,,,,9,0,9,0,10,0,10,0,,,,,,,,,,,,,,,,,,,,,,,,,,,,,,,,,,,,,,,,,,,,,,,,,,,,,,,,,,,,,,,,,,,,,,0.015,,,,,,,,,,,,,,,,,,,,,,,,,,,,left,1,10,-30,-20,1,3281.800112,3281.800112,3281.800112,None,None,2,0,0.5455894,,,,,,,,,,,,,,,,,,,10,7,1,2024-10-18_15h08.49.031,uWM_experiment,2022.2.3,60.00376824
,,,,,,,,,,,,,,,,,,,,9,0,9,0,11,0,11,0,,,,,,,,,,,,,,,,,,,,,,,,,,,,,,,,,,,,,,,,,,,,,,,,,,,,,,,,,,,,,,,,,,,,,,0.005,,,,,,,,,,,,,,,,,,,,,,,,,,,,left,1,40,-30,10,1,3288.283705,3288.283705,3288.283705,None,None,2,0,0.4460579,,,,,,,,,,,,,,,,,,,10,7,1,2024-10-18_15h08.49.031,uWM_experiment,2022.2.3,60.00376824
,,,,,,,,,,,,,,,,,,,,9,0,9,0,12,0,12,0,,,,,,,,,,,,,,,,,,,,,,,,,,,,,,,,,,,,,,,,,,,,,,,,,,,,,,,,,,,,,,,,,,,,,,0.005,,,,,,,,,,,,,,,,,,,,,,,,,,,,right,0,10,-30,-20,1,3293.900578,3293.900578,3293.900578,None,None,1,1,1.0370511,,,,,,,,,,,,,,,,,,,10,7,1,2024-10-18_15h08.49.031,uWM_experiment,2022.2.3,60.00376824
,,,,,,,,,,,,,,,,,,,,9,0,9,0,13,0,13,0,,,,,,,,,,,,,,,,,,,,,,,,,,,,,,,,,,,,,,,,,,,,,,,,,,,,,,,,,,,,,,,,,,,,,,0.015,,,,,,,,,,,,,,,,,,,,,,,,,,,,left,0,130,30,160,1,3300.08416,3300.08416,3300.08416,None,None,2,0,1.4534222,,,,,,,,,,,,,,,,,,,10,7,1,2024-10-18_15h08.49.031,uWM_experiment,2022.2.3,60.00376824
,,,,,,,,,,,,,,,,,,,,9,0,9,0,14,0,14,0,,,,,,,,,,,,,,,,,,,,,,,,,,,,,,,,,,,,,,,,,,,,,,,,,,,,,,,,,,,,,,,,,,,,,,0.005,,,,,,,,,,,,,,,,,,,,,,,,,,,,left,1,130,-30,100,1,3307.217795,3307.217795,3307.217795,None,None,2,0,0.4238978,,,,,,,,,,,,,,,,,,,10,7,1,2024-10-18_15h08.49.031,uWM_experiment,2022.2.3,60.00376824
,,,,,,,,,,,,,,,,,,,,9,0,9,0,15,0,15,0,,,,,,,,,,,,,,,,,,,,,,,,,,,,,,,,,,,,,,,,,,,,,,,,,,,,,,,,,,,,,,,,,,,,,,0.005,,,,,,,,,,,,,,,,,,,,,,,,,,,,left,0,70,30,100,1,3313.451368,3313.451368,3313.451368,None,None,3,0,1.2062257,,,,,,,,,,,,,,,,,,,10,7,1,2024-10-18_15h08.49.031,uWM_experiment,2022.2.3,60.00376824
,,,,,,,,,,,,,,,,,,,,9,0,9,0,16,0,16,0,,,,,,,,,,,,,,,,,,,,,,,,,,,,,,,,,,,,,,,,,,,,,,,,,,,,,,,,,,,,,,,,,,,,,,0.005,,,,,,,,,,,,,,,,,,,,,,,,,,,,left,0,130,30,160,1,3320.484972,3320.484972,3320.484972,None,None,3,0,0.8205028,,,,,,,,,,,,,,,,,,,10,7,1,2024-10-18_15h08.49.031,uWM_experiment,2022.2.3,60.00376824
,,,,,,,,,,,,,,,,,,,,9,0,9,0,17,0,17,0,,,,,,,,,,,,,,,,,,,,,,,,,,,,,,,,,,,,,,,,,,,,,,,,,,,,,,,,,,,,,,,,,,,,,,0.005,,,,,,,,,,,,,,,,,,,,,,,,,,,,right,0,100,-30,70,1,3326.968549,3326.968549,3326.968549,None,None,2,0,0.9450452,,,,,,,,,,,,,,,,,,,10,7,1,2024-10-18_15h08.49.031,uWM_experiment,2022.2.3,60.00376824
,,,,,,,,,,,,,,,,,,,,9,0,9,0,18,0,18,0,,,,,,,,,,,,,,,,,,,,,,,,,,,,,,,,,,,,,,,,,,,,,,,,,,,,,,,,,,,,,,,,,,,,,,0.005,,,,,,,,,,,,,,,,,,,,,,,,,,,,left,1,40,-30,10,1,3333.802149,3333.802149,3333.802149,None,None,3,0,0.7192925,,,,,,,,,,,,,,,,,,,10,7,1,2024-10-18_15h08.49.031,uWM_experiment,2022.2.3,60.00376824
,,,,,,,,,,,,,,,,,,,,9,0,9,0,19,0,19,0,,,,,,,,,,,,,,,,,,,,,,,,,,,,,,,,,,,,,,,,,,,,,,,,,,,,,,,,,,,,,,,,,,,,,,0.005,,,,,,,,,,,,,,,,,,,,,,,,,,,,left,0,130,30,160,1,3340.119094,3340.119094,3340.119094,None,None,2,0,0.5944434,,,,,,,,,,,,,,,,,,,10,7,1,2024-10-18_15h08.49.031,uWM_experiment,2022.2.3,60.00376824
,,,,,,,,,,,,,,,,,,,,9,0,9,0,20,0,20,0,,,,,,,,,,,,,,,,,,,,,,,,,,,,,,,,,,,,,,,,,,,,,,,,,,,,,,,,,,,,,,,,,,,,,,0,,,,,,,,,,,,,,,,,,,,,,,,,,,,left,0,10,30,40,0,3346.452675,3346.452675,3346.452675,None,None,2,0,2.6366638,,,,,,,,,,,,,,,,,,,10,7,1,2024-10-18_15h08.49.031,uWM_experiment,2022.2.3,60.00376824
,,,,,,,,,,,,,,,,,,,,9,0,9,0,21,0,21,0,,,,,,,,,,,,,,,,,,,,,,,,,,,,,,,,,,,,,,,,,,,,,,,,,,,,,,,,,,,,,,,,,,,,,,0.005,,,,,,,,,,,,,,,,,,,,,,,,,,,,left,0,70,30,100,1,3355.219662,3355.219662,3355.219662,None,None,2,0,0.5817353,,,,,,,,,,,,,,,,,,,10,7,1,2024-10-18_15h08.49.031,uWM_experiment,2022.2.3,60.00376824
,,,,,,,,,,,,,,,,,,,,9,0,9,0,22,0,22,0,,,,,,,,,,,,,,,,,,,,,,,,,,,,,,,,,,,,,,,,,,,,,,,,,,,,,,,,,,,,,,,,,,,,,,0.005,,,,,,,,,,,,,,,,,,,,,,,,,,,,left,0,160,30,190,1,3361.669926,3361.669926,3361.669926,None,None,2,0,0.7553723,,,,,,,,,,,,,,,,,,,10,7,1,2024-10-18_15h08.49.031,uWM_experiment,2022.2.3,60.00376824
