PreTrainingPAS4_loop.thisRepN,PreTrainingPAS4_loop.thisTrialN,PreTrainingPAS4_loop.thisN,PreTrainingPAS4_loop.thisIndex,PreTrainingPAS1_loop.thisRepN,PreTrainingPAS1_loop.thisTrialN,PreTrainingPAS1_loop.thisN,PreTrainingPAS1_loop.thisIndex,RepeatCV_loop.thisRepN,RepeatCV_loop.thisTrialN,RepeatCV_loop.thisN,RepeatCV_loop.thisIndex,TrainingCV_loop.thisRepN,TrainingCV_loop.thisTrialN,TrainingCV_loop.thisN,TrainingCV_loop.thisIndex,TrainingCAL_loop.thisRepN,TrainingCAL_loop.thisTrialN,TrainingCAL_loop.thisN,TrainingCAL_loop.thisIndex,blocks_loop.thisRepN,blocks_loop.thisTrialN,blocks_loop.thisN,blocks_loop.thisIndex,trials_loop.thisRepN,trials_loop.thisTrialN,trials_loop.thisN,trials_loop.thisIndex,TrainingPAS1_loop.thisRepN,TrainingPAS1_loop.thisTrialN,TrainingPAS1_loop.thisN,TrainingPAS1_loop.thisIndex,spacebarWelcome0.started,spacebarWelcome0.keys,spacebarWelcome0.rt,spacebarWelcome1.started,gaborWelcome1.started,maskWelcome1.started,textMaskWelcome1.started,spacebarWelcome1.keys,spacebarWelcome1.rt,spacebarWelcome2.started,spacebarWelcome2.keys,spacebarWelcome2.rt,textInst_PreTrainingPAS4.started,spacebarPreTrainingPAS4.started,spacebarPreTrainingPAS4.keys,spacebarPreTrainingPAS4.rt,textPreTrainingPAS1.started,spacebarPreTrainingPAS1.started,spacebarPreTrainingPAS1.keys,spacebarPreTrainingPAS1.rt,textQUEST0.started,spacebarQUEST0.started,spacebarQUEST0.keys,spacebarQUEST0.rt,spacebar0.started,spacebar0.keys,spacebar0.rt,spacebar1.started,spacebar1.keys,spacebar1.rt,textInstructions2.started,spacebar2.started,Gabor1Inst2.started,Gabor2Inst2.started,Gabor3Inst2.started,Gabor4Inst2.started,spacebar2.keys,spacebar2.rt,textInstructionsPAS.started,spacebarInstPAS.started,spacebarInstPAS.keys,spacebarInstPAS.rt,textInstructions3.started,spacebar3.started,spacebar3.keys,spacebar3.rt,WMresp_CV,WMresp_CV_acc,oriMemo_CV,gyre_CV,oriTest_CV,feedbackText.started,sliderCV.started,PAStextCV.started,PASkeyCV.started,sliderCV.response,sliderCV.rt,PASkeyCV.keys,PASkeyCV.corr,PASkeyCV.rt,feedbackText.stopped,TextInstructionsCAL.started,spacebarCAL.started,spacebarCAL.keys,spacebarCAL.rt,contrast,WMresp_CAL,WMresp_CAL_acc,oriMemo_CAL,gyre_CAL,oriTest_CAL,cue_CAL,sliderCAL.started,PAStextCAL.started,PASkeyCAL.started,sliderCAL.response,sliderCAL.rt,PASkeyCAL.keys,PASkeyCAL.corr,PASkeyCAL.rt,propUnseen_CAL,textStart.started,spacebar4.started,spacebar4.keys,spacebar4.rt,three.started,three.stopped,two.started,two.stopped,one.started,one.stopped,blank_countdown.started,blank_countdown.stopped,WMresp,WMresp_acc,oriMemo,gyre,oriTest,cue,slider.started,textPAS_firstGabor.started,PASkey.started,slider.response,slider.rt,PASkey.keys,PASkey.corr,PASkey.rt,spacebarContinue.started,textBreak.started,spacebarContinue.keys,spacebarContinue.rt,spacebar_reminder.keys,spacebar_TrainingPAS1.keys,spacebar_endpractice.keys,spacebar_reminder.started,textReminder.started,spacebar_reminder.rt,textInst_TrainingPAS1.started,spacebar_TrainingPAS1.started,spacebar_TrainingPAS1.rt,textend_practicePAS1.started,spacebar_endpractice.started,spacebar_endpractice.rt,textThanks.started,buttonURL.started,buttonURL.numClicks,buttonURL.timesOn,buttonURL.timesOff,laboratory,participant,session,date,expName,psychopyVersion,frameRate
,,,,,,,,,,,,,,,,,,,,,,,,,,,,,,,,108.5255348,space,17.6220224,,,,,,,,,,,,,,,,,,,,,,,,,,,,,,,,,,,,,,,,,,,,,,,,,,,,,,,,,,,,,,,,,,,,,,,,,,,,,,,,,,,,,,,,,,,,,,,,,,,,,,,,,,,,,,,,,,,,,,,,,,,,,,10,7,2,2024-10-20_15h03.44.445,uWM_experiment,2022.2.3,59.99142123
,,,,,,,,,,,,,,,,,,,,,,,,,,,,,,,,,,,126.1926635,126.1926635,126.1926635,126.1926635,space,2.7308815,,,,,,,,,,,,,,,,,,,,,,,,,,,,,,,,,,,,,,,,,,,,,,,,,,,,,,,,,,,,,,,,,,,,,,,,,,,,,,,,,,,,,,,,,,,,,,,,,,,,,,,,,,,,,,,,,,,,,,,,10,7,2,2024-10-20_15h03.44.445,uWM_experiment,2022.2.3,59.99142123
,,,,,,,,,,,,,,,,,,,,,,,,,,,,,,,,,,,,,,,,,128.9594586,space,0.9800315,,,,,,,,,,,,,,,,,,,,,,,,,,,,,,,,,,,,,,,,,,,,,,,,,,,,,,,,,,,,,,,,,,,,,,,,,,,,,,,,,,,,,,,,,,,,,,,,,,,,,,,,,,,,,,,,,,,,,10,7,2,2024-10-20_15h03.44.445,uWM_experiment,2022.2.3,59.99142123
,,,,,,,,,,,,,,,,,,,,,,,,,,,,,,,,,,,,,,,,,,,,129.9594979,129.9594979,space,3.1480143,,,,,,,,,,,,,,,,,,,,,,,,,,,,,,,,,,,,,,,,,,,,,,,,,,,,,,,,,,,,,,,,,,,,,,,,,,,,,,,,,,,,,,,,,,,,,,,,,,,,,,,,,,,,,,,,,10,7,2,2024-10-20_15h03.44.445,uWM_experiment,2022.2.3,59.99142123
0,0,0,0,,,,,,,,,,,,,,,,,,,,,,,,,,,,,,,,,,,,,,,,,,,,,,,,,,,,,,,,,,,,,,,,,,,,,,,,,,,,,,,,,,,,,,,,,,,,,,,,,,,,,,,,,,,,,,,,,,,,,,,,,,,,,,,,,,,,,,,,,,,,,,,,,,,,,,,,,,,,,10,7,2,2024-10-20_15h03.44.445,uWM_experiment,2022.2.3,59.99142123
1,0,1,0,,,,,,,,,,,,,,,,,,,,,,,,,,,,,,,,,,,,,,,,,,,,,,,,,,,,,,,,,,,,,,,,,,,,,,,,,,,,,,,,,,,,,,,,,,,,,,,,,,,,,,,,,,,,,,,,,,,,,,,,,,,,,,,,,,,,,,,,,,,,,,,,,,,,,,,,,,,,,10,7,2,2024-10-20_15h03.44.445,uWM_experiment,2022.2.3,59.99142123
2,0,2,0,,,,,,,,,,,,,,,,,,,,,,,,,,,,,,,,,,,,,,,,,,,,,,,,,,,,,,,,,,,,,,,,,,,,,,,,,,,,,,,,,,,,,,,,,,,,,,,,,,,,,,,,,,,,,,,,,,,,,,,,,,,,,,,,,,,,,,,,,,,,,,,,,,,,,,,,,,,,,10,7,2,2024-10-20_15h03.44.445,uWM_experiment,2022.2.3,59.99142123
,,,,,,,,,,,,,,,,,,,,,,,,,,,,,,,,,,,,,,,,,,,,,,,,143.5100524,143.5100524,space,1.4934154,,,,,,,,,,,,,,,,,,,,,,,,,,,,,,,,,,,,,,,,,,,,,,,,,,,,,,,,,,,,,,,,,,,,,,,,,,,,,,,,,,,,,,,,,,,,,,,,,,,,,,,,,,,,,10,7,2,2024-10-20_15h03.44.445,uWM_experiment,2022.2.3,59.99142123
,,,,0,0,0,0,,,,,,,,,,,,,,,,,,,,,,,,,,,,,,,,,,,,,,,,,,,,,,,,,,,,,,,,,,,,,,,,,,,,,,,,,,,,,,,,,,,,,,,,,,,,,,,,,,,,,,,,,,,,,,,,,,,,,,,,,,,,,,,,,,,,,,,,,,,,,,,,,,,,,,,,,10,7,2,2024-10-20_15h03.44.445,uWM_experiment,2022.2.3,59.99142123
,,,,1,0,1,0,,,,,,,,,,,,,,,,,,,,,,,,,,,,,,,,,,,,,,,,,,,,,,,,,,,,,,,,,,,,,,,,,,,,,,,,,,,,,,,,,,,,,,,,,,,,,,,,,,,,,,,,,,,,,,,,,,,,,,,,,,,,,,,,,,,,,,,,,,,,,,,,,,,,,,,,,10,7,2,2024-10-20_15h03.44.445,uWM_experiment,2022.2.3,59.99142123
,,,,2,0,2,0,,,,,,,,,,,,,,,,,,,,,,,,,,,,,,,,,,,,,,,,,,,,,,,,,,,,,,,,,,,,,,,,,,,,,,,,,,,,,,,,,,,,,,,,,,,,,,,,,,,,,,,,,,,,,,,,,,,,,,,,,,,,,,,,,,,,,,,,,,,,,,,,,,,,,,,,,10,7,2,2024-10-20_15h03.44.445,uWM_experiment,2022.2.3,59.99142123
,,,,,,,,,,,,,,,,,,,,,,,,,,,,,,,,,,,,,,,,,,,,,,,,,,,,152.2437319,152.2437319,space,1.111727,,,,,,,,,,,,,,,,,,,,,,,,,,,,,,,,,,,,,,,,,,,,,,,,,,,,,,,,,,,,,,,,,,,,,,,,,,,,,,,,,,,,,,,,,,,,,,,,,,,,,,,,,10,7,2,2024-10-20_15h03.44.445,uWM_experiment,2022.2.3,59.99142123
,,,,,,,,,,,,,,,,,,,,,,,,,,,,,,,,,,,,,,,,,,,,,,,,,,,,,,,,285.832491,space,2.4265705,,,,,,,,,,,,,,,,,,,,,,,,,,,,,,,,,,,,,,,,,,,,,,,,,,,,,,,,,,,,,,,,,,,,,,,,,,,,,,,,,,,,,,,,,,,,,,,,,,,,,,10,7,2,2024-10-20_15h03.44.445,uWM_experiment,2022.2.3,59.99142123
,,,,,,,,,,,,,,,,,,,,,,,,,,,,,,,,,,,,,,,,,,,,,,,,,,,,,,,,,,,288.2825906,space,1.6964054,,,,,,,,,,,,,,,,,,,,,,,,,,,,,,,,,,,,,,,,,,,,,,,,,,,,,,,,,,,,,,,,,,,,,,,,,,,,,,,,,,,,,,,,,,,,,,,,,,,10,7,2,2024-10-20_15h03.44.445,uWM_experiment,2022.2.3,59.99142123
,,,,,,,,,,,,,,,,,,,,,,,,,,,,,,,,,,,,,,,,,,,,,,,,,,,,,,,,,,,,,,289.999334,289.999334,289.999334,289.999334,289.999334,289.999334,space,9.4116311,,,,,,,,,,,,,,,,,,,,,,,,,,,,,,,,,,,,,,,,,,,,,,,,,,,,,,,,,,,,,,,,,,,,,,,,,,,,,,,,,,,,,,,,,,,10,7,2,2024-10-20_15h03.44.445,uWM_experiment,2022.2.3,59.99142123
,,,,,,,,,,,,,,,,,,,,,,,,,,,,,,,,,,,,,,,,,,,,,,,,,,,,,,,,,,,,,,,,,,,,,,299.4330386,299.4330386,space,1.362002,,,,,,,,,,,,,,,,,,,,,,,,,,,,,,,,,,,,,,,,,,,,,,,,,,,,,,,,,,,,,,,,,,,,,,,,,,,,,,,,,,,,,,,10,7,2,2024-10-20_15h03.44.445,uWM_experiment,2022.2.3,59.99142123
,,,,,,,,,,,,,,,,,,,,,,,,,,,,,,,,,,,,,,,,,,,,,,,,,,,,,,,,,,,,,,,,,,,,,,,,,,300.8164264,300.8164264,space,3.106564,,,,,,,,,,,,,,,,,,,,,,,,,,,,,,,,,,,,,,,,,,,,,,,,,,,,,,,,,,,,,,,,,,,,,,,,,,,,,,,,,,,10,7,2,2024-10-20_15h03.44.445,uWM_experiment,2022.2.3,59.99142123
,,,,,,,,0,0,0,0,0,0,0,0,,,,,,,,,,,,,,,,,,,,,,,,,,,,,,,,,,,,,,,,,,,,,,,,,,,,,,,,,,,,,,,right,1,40,30,70,311.6668816,312.6669319,312.6669319,312.6669319,None,None,4,0,0.592036,,,,,,,,,,,,,,,,,,,,,,,,,,,,,,,,,,,,,,,,,,,,,,,,,,,,,,,,,,,,,,,,,,,,,10,7,2,2024-10-20_15h03.44.445,uWM_experiment,2022.2.3,59.99142123
,,,,,,,,0,0,0,0,1,0,1,0,,,,,,,,,,,,,,,,,,,,,,,,,,,,,,,,,,,,,,,,,,,,,,,,,,,,,,,,,,,,,,,left,1,130,-30,100,319.4838647,320.4839032,320.4839032,320.4839032,None,None,4,0,0.4869048,320.4839032,,,,,,,,,,,,,,,,,,,,,,,,,,,,,,,,,,,,,,,,,,,,,,,,,,,,,,,,,,,,,,,,,,,,10,7,2,2024-10-20_15h03.44.445,uWM_experiment,2022.2.3,59.99142123
,,,,,,,,0,0,0,0,2,0,2,0,,,,,,,,,,,,,,,,,,,,,,,,,,,,,,,,,,,,,,,,,,,,,,,,,,,,,,,,,,,,,,,left,1,160,-30,130,326.7174861,327.7175364,327.7175364,327.7175364,None,None,4,0,0.7973398,,,,,,,,,,,,,,,,,,,,,,,,,,,,,,,,,,,,,,,,,,,,,,,,,,,,,,,,,,,,,,,,,,,,,10,7,2,2024-10-20_15h03.44.445,uWM_experiment,2022.2.3,59.99142123
,,,,,,,,0,0,0,0,3,0,3,0,,,,,,,,,,,,,,,,,,,,,,,,,,,,,,,,,,,,,,,,,,,,,,,,,,,,,,,,,,,,,,,right,1,100,30,130,334.1511274,335.1511956,335.1511956,335.1511956,None,None,4,0,0.4035483,335.1511956,,,,,,,,,,,,,,,,,,,,,,,,,,,,,,,,,,,,,,,,,,,,,,,,,,,,,,,,,,,,,,,,,,,,10,7,2,2024-10-20_15h03.44.445,uWM_experiment,2022.2.3,59.99142123
,,,,,,,,0,0,0,0,4,0,4,0,,,,,,,,,,,,,,,,,,,,,,,,,,,,,,,,,,,,,,,,,,,,,,,,,,,,,,,,,,,,,,,left,1,10,-30,-20,341.2347512,342.2348157,342.2348157,342.2348157,None,None,4,0,0.4000942,342.2348157,,,,,,,,,,,,,,,,,,,,,,,,,,,,,,,,,,,,,,,,,,,,,,,,,,,,,,,,,,,,,,,,,,,,10,7,2,2024-10-20_15h03.44.445,uWM_experiment,2022.2.3,59.99142123
,,,,,,,,0,0,0,0,5,0,5,0,,,,,,,,,,,,,,,,,,,,,,,,,,,,,,,,,,,,,,,,,,,,,,,,,,,,,,,,,,,,,,,right,1,130,30,160,348.4517031,349.4517916,349.4517916,349.4517916,None,None,4,0,0.5509406,349.4517916,,,,,,,,,,,,,,,,,,,,,,,,,,,,,,,,,,,,,,,,,,,,,,,,,,,,,,,,,,,,,,,,,,,,10,7,2,2024-10-20_15h03.44.445,uWM_experiment,2022.2.3,59.99142123
,,,,,,,,0,0,0,0,,,,,,,,,,,,,,,,,,,,,,,,,,,,,,,,,,,,,,,,,,,,,,,,,,,,,,,,,,,,,,,,,,,,,,,,,,,,,,,,,,,,,,,,,,,,,,,,,,,,,,,,,,,,,,,,,,,,,,,,,,,,,,,,,,,,,,,,,,,,,,,,,,,,,10,7,2,2024-10-20_15h03.44.445,uWM_experiment,2022.2.3,59.99142123
,,,,,,,,,,,,,,,,,,,,,,,,,,,,,,,,,,,,,,,,,,,,,,,,,,,,,,,,,,,,,,,,,,,,,,,,,,,,,,,,,,,,,,,,,,,,,354.1352973,354.1352973,space,2.0115105,,,,,,,,,,,,,,,,,,,,,,,,,,,,,,,,,,,,,,,,,,,,,,,,,,,,,,,,,,,,,,,,10,7,2,2024-10-20_15h03.44.445,uWM_experiment,2022.2.3,59.99142123
,,,,,,,,,,,,,,,,0,0,0,0,,,,,,,,,,,,,,,,,,,,,,,,,,,,,,,,,,,,,,,,,,,,,,,,,,,,,,,,,,,,,,,,,,,,,,,,,,,,,,0.136335981,left,1,160,-30,130,1,361.7856215,361.7856215,361.7856215,None,None,3,0,3.7370187,,,,,,,,,,,,,,,,,,,,,,,,,,,,,,,,,,,,,,,,,,,,,,,,,10,7,2,2024-10-20_15h03.44.445,uWM_experiment,2022.2.3,59.99142123
,,,,,,,,,,,,,,,,1,0,1,0,,,,,,,,,,,,,,,,,,,,,,,,,,,,,,,,,,,,,,,,,,,,,,,,,,,,,,,,,,,,,,,,,,,,,,,,,,,,,,0.1,left,1,10,-30,-20,2,371.2693114,371.2693114,371.2693114,None,None,4,0,0.7814621,0,,,,,,,,,,,,,,,,,,,,,,,,,,,,,,,,,,,,,,,,,,,,,,,,10,7,2,2024-10-20_15h03.44.445,uWM_experiment,2022.2.3,59.99142123
,,,,,,,,,,,,,,,,2,0,2,0,,,,,,,,,,,,,,,,,,,,,,,,,,,,,,,,,,,,,,,,,,,,,,,,,,,,,,,,,,,,,,,,,,,,,,,,,,,,,,0.1,right,1,40,30,70,2,377.7862734,377.7862734,377.7862734,None,None,4,0,0.6004682,0,,,,,,,,,,,,,,,,,,,,,,,,,,,,,,,,,,,,,,,,,,,,,,,,10,7,2,2024-10-20_15h03.44.445,uWM_experiment,2022.2.3,59.99142123
,,,,,,,,,,,,,,,,3,0,3,0,,,,,,,,,,,,,,,,,,,,,,,,,,,,,,,,,,,,,,,,,,,,,,,,,,,,,,,,,,,,,,,,,,,,,,,,,,,,,,0.126335981,left,0,100,30,130,1,383.8864891,383.8864891,383.8864891,None,None,4,0,0.7721333,0,,,,,,,,,,,,,,,,,,,,,,,,,,,,,,,,,,,,,,,,,,,,,,,,10,7,2,2024-10-20_15h03.44.445,uWM_experiment,2022.2.3,59.99142123
,,,,,,,,,,,,,,,,4,0,4,0,,,,,,,,,,,,,,,,,,,,,,,,,,,,,,,,,,,,,,,,,,,,,,,,,,,,,,,,,,,,,,,,,,,,,,,,,,,,,,0.1,right,1,130,30,160,2,390.4367731,390.4367731,390.4367731,None,None,4,0,0.3978362,0,,,,,,,,,,,,,,,,,,,,,,,,,,,,,,,,,,,,,,,,,,,,,,,,10,7,2,2024-10-20_15h03.44.445,uWM_experiment,2022.2.3,59.99142123
,,,,,,,,,,,,,,,,5,0,5,0,,,,,,,,,,,,,,,,,,,,,,,,,,,,,,,,,,,,,,,,,,,,,,,,,,,,,,,,,,,,,,,,,,,,,,,,,,,,,,0.116335981,left,1,70,-30,40,1,396.5203517,396.5203517,396.5203517,None,None,3,0,0.6743317,0,,,,,,,,,,,,,,,,,,,,,,,,,,,,,,,,,,,,,,,,,,,,,,,,10,7,2,2024-10-20_15h03.44.445,uWM_experiment,2022.2.3,59.99142123
,,,,,,,,,,,,,,,,,,,,,,,,,,,,,,,,,,,,,,,,,,,,,,,,,,,,,,,,,,,,,,,,,,,,,,,,,,,,,,,,,,,,,,,,,,,,,,,,,,,,,,,,,,,,,,,,,397.2203636,398.2037397,space,10.9749594,,,,,,,,,,,,,,,,,,,,,,,,,,,,,,,,,,,,,,,,,,,,10,7,2,2024-10-20_15h03.44.445,uWM_experiment,2022.2.3,59.99142123
,,,,,,,,,,,,,,,,,,,,0,0,0,0,0,0,0,0,,,,,,,,,,,,,,,,,,,,,,,,,,,,,,,,,,,,,,,,,,,,,,,,,,,,,,,,,,,,,,,,,,,,,,0.116335981,,,,,,,,,,,,,,,,,,,,409.2041986,409.9042215,410.1875914,410.8875902,411.1876119,411.8876249,411.8876249,412.2376557,right,1,40,30,70,1,417.0711908,417.0711908,417.0711908,None,None,3,0,0.9553788,,,,,,,,,,,,,,,,,,,,,,10,7,2,2024-10-20_15h03.44.445,uWM_experiment,2022.2.3,59.99142123
,,,,,,,,,,,,,,,,,,,,0,0,0,0,1,0,1,0,,,,,,,,,,,,,,,,,,,,,,,,,,,,,,,,,,,,,,,,,,,,,,,,,,,,,,,,,,,,,,,,,,,,,,0.106335981,,,,,,,,,,,,,,,,,,,,,,,,,,,,left,0,160,30,190,1,423.6381386,423.6381386,423.6381386,None,None,3,0,1.2284257,,,,,,,,,,,,,,,,,,,,,,10,7,2,2024-10-20_15h03.44.445,uWM_experiment,2022.2.3,59.99142123
,,,,,,,,,,,,,,,,,,,,0,0,0,0,2,0,2,0,,,,,,,,,,,,,,,,,,,,,,,,,,,,,,,,,,,,,,,,,,,,,,,,,,,,,,,,,,,,,,,,,,,,,,0.096335981,,,,,,,,,,,,,,,,,,,,,,,,,,,,right,0,160,-30,130,1,431.8384566,431.8384566,431.8384566,None,None,2,0,2.0601557,,,,,,,,,,,,,,,,,,,,,,10,7,2,2024-10-20_15h03.44.445,uWM_experiment,2022.2.3,59.99142123
,,,,,,,,,,,,,,,,,,,,0,0,0,0,3,0,3,0,,,,,,,,,,,,,,,,,,,,,,,,,,,,,,,,,,,,,,,,,,,,,,,,,,,,,,,,,,,,,,,,,,,,,,0.086335981,,,,,,,,,,,,,,,,,,,,,,,,,,,,left,1,100,-30,70,1,440.3554833,440.3554833,440.3554833,None,None,3,0,0.8709065,,,,,,,,,,,,,,,,,,,,,,10,7,2,2024-10-20_15h03.44.445,uWM_experiment,2022.2.3,59.99142123
,,,,,,,,,,,,,,,,,,,,0,0,0,0,4,0,4,0,,,,,,,,,,,,,,,,,,,,,,,,,,,,,,,,,,,,,,,,,,,,,,,,,,,,,,,,,,,,,,,,,,,,,,0.076335981,,,,,,,,,,,,,,,,,,,,,,,,,,,,right,0,40,-30,10,1,447.2557422,447.2557422,447.2557422,None,None,3,0,0.5866405,,,,,,,,,,,,,,,,,,,,,,10,7,2,2024-10-20_15h03.44.445,uWM_experiment,2022.2.3,59.99142123
,,,,,,,,,,,,,,,,,,,,0,0,0,0,5,0,5,0,,,,,,,,,,,,,,,,,,,,,,,,,,,,,,,,,,,,,,,,,,,,,,,,,,,,,,,,,,,,,,,,,,,,,,0.066335981,,,,,,,,,,,,,,,,,,,,,,,,,,,,left,1,40,-30,10,1,454.1393613,454.1393613,454.1393613,None,None,2,0,0.8550008,,,,,,,,,,,,,,,,,,,,,,10,7,2,2024-10-20_15h03.44.445,uWM_experiment,2022.2.3,59.99142123
,,,,,,,,,,,,,,,,,,,,0,0,0,0,6,0,6,0,,,,,,,,,,,,,,,,,,,,,,,,,,,,,,,,,,,,,,,,,,,,,,,,,,,,,,,,,,,,,,,,,,,,,,0.056335981,,,,,,,,,,,,,,,,,,,,,,,,,,,,left,0,40,30,70,1,461.2063393,461.2063393,461.2063393,None,None,1,1,0.8680141,,,,,,,,,,,,,,,,,,,,,,10,7,2,2024-10-20_15h03.44.445,uWM_experiment,2022.2.3,59.99142123
,,,,,,,,,,,,,,,,,,,,0,0,0,0,7,0,7,0,,,,,,,,,,,,,,,,,,,,,,,,,,,,,,,,,,,,,,,,,,,,,,,,,,,,,,,,,,,,,,,,,,,,,,0,,,,,,,,,,,,,,,,,,,,,,,,,,,,left,0,70,30,100,0,468.4066783,468.4066783,468.4066783,None,None,2,0,0.8516569,,,,,,,,,,,,,,,,,,,,,,10,7,2,2024-10-20_15h03.44.445,uWM_experiment,2022.2.3,59.99142123
,,,,,,,,,,,,,,,,,,,,0,0,0,0,8,0,8,0,,,,,,,,,,,,,,,,,,,,,,,,,,,,,,,,,,,,,,,,,,,,,,,,,,,,,,,,,,,,,,,,,,,,,,0,,,,,,,,,,,,,,,,,,,,,,,,,,,,right,1,160,30,190,0,475.6569417,475.6569417,475.6569417,None,None,3,0,1.5135268,,,,,,,,,,,,,,,,,,,,,,10,7,2,2024-10-20_15h03.44.445,uWM_experiment,2022.2.3,59.99142123
,,,,,,,,,,,,,,,,,,,,0,0,0,0,9,0,9,0,,,,,,,,,,,,,,,,,,,,,,,,,,,,,,,,,,,,,,,,,,,,,,,,,,,,,,,,,,,,,,,,,,,,,,0.066335981,,,,,,,,,,,,,,,,,,,,,,,,,,,,left,1,70,-30,40,1,482.790536,482.790536,482.790536,None,None,2,0,1.1239229,,,,,,,,,,,,,,,,,,,,,,10,7,2,2024-10-20_15h03.44.445,uWM_experiment,2022.2.3,59.99142123
,,,,,,,,,,,,,,,,,,,,0,0,0,0,10,0,10,0,,,,,,,,,,,,,,,,,,,,,,,,,,,,,,,,,,,,,,,,,,,,,,,,,,,,,,,,,,,,,,,,,,,,,,0,,,,,,,,,,,,,,,,,,,,,,,,,,,,right,0,130,-30,100,0,490.6075273,490.6075273,490.6075273,None,None,2,0,0.6268954,,,,,,,,,,,,,,,,,,,,,,10,7,2,2024-10-20_15h03.44.445,uWM_experiment,2022.2.3,59.99142123
,,,,,,,,,,,,,,,,,,,,0,0,0,0,11,0,11,0,,,,,,,,,,,,,,,,,,,,,,,,,,,,,,,,,,,,,,,,,,,,,,,,,,,,,,,,,,,,,,,,,,,,,,0.056335981,,,,,,,,,,,,,,,,,,,,,,,,,,,,left,0,100,30,130,1,498.4911828,498.4911828,498.4911828,None,None,3,0,1.4710344,,,,,,,,,,,,,,,,,,,,,,10,7,2,2024-10-20_15h03.44.445,uWM_experiment,2022.2.3,59.99142123
,,,,,,,,,,,,,,,,,,,,0,0,0,0,12,0,12,0,,,,,,,,,,,,,,,,,,,,,,,,,,,,,,,,,,,,,,,,,,,,,,,,,,,,,,,,,,,,,,,,,,,,,,0.046335981,,,,,,,,,,,,,,,,,,,,,,,,,,,,left,0,160,30,190,1,508.6749576,508.6749576,508.6749576,None,None,2,0,3.2473245,,,,,,,,,,,,,,,,,,,,,,10,7,2,2024-10-20_15h03.44.445,uWM_experiment,2022.2.3,59.99142123
,,,,,,,,,,,,,,,,,,,,0,0,0,0,13,0,13,0,,,,,,,,,,,,,,,,,,,,,,,,,,,,,,,,,,,,,,,,,,,,,,,,,,,,,,,,,,,,,,,,,,,,,,0.036335981,,,,,,,,,,,,,,,,,,,,,,,,,,,,right,0,10,-30,-20,1,520.0253875,520.0253875,520.0253875,None,None,2,0,0.5208116,,,,,,,,,,,,,,,,,,,,,,10,7,2,2024-10-20_15h03.44.445,uWM_experiment,2022.2.3,59.99142123
,,,,,,,,,,,,,,,,,,,,0,0,0,0,14,0,14,0,,,,,,,,,,,,,,,,,,,,,,,,,,,,,,,,,,,,,,,,,,,,,,,,,,,,,,,,,,,,,,,,,,,,,,0.1,,,,,,,,,,,,,,,,,,,,,,,,,,,,left,1,100,-30,70,2,526.7090206,526.7090206,526.7090206,None,None,4,0,0.8531081,,,,,,,,,,,,,,,,,,,,,,10,7,2,2024-10-20_15h03.44.445,uWM_experiment,2022.2.3,59.99142123
,,,,,,,,,,,,,,,,,,,,0,0,0,0,15,0,15,0,,,,,,,,,,,,,,,,,,,,,,,,,,,,,,,,,,,,,,,,,,,,,,,,,,,,,,,,,,,,,,,,,,,,,,0,,,,,,,,,,,,,,,,,,,,,,,,,,,,right,0,130,-30,100,0,532.7759343,532.7759343,532.7759343,None,None,1,1,0.6983179,,,,,,,,,,,,,,,,,,,,,,10,7,2,2024-10-20_15h03.44.445,uWM_experiment,2022.2.3,59.99142123
,,,,,,,,,,,,,,,,,,,,0,0,0,0,16,0,16,0,,,,,,,,,,,,,,,,,,,,,,,,,,,,,,,,,,,,,,,,,,,,,,,,,,,,,,,,,,,,,,,,,,,,,,0.026335981,,,,,,,,,,,,,,,,,,,,,,,,,,,,left,1,160,-30,130,1,539.4928476,539.4928476,539.4928476,None,None,2,0,0.3733846,,,,,,,,,,,,,,,,,,,,,,10,7,2,2024-10-20_15h03.44.445,uWM_experiment,2022.2.3,59.99142123
,,,,,,,,,,,,,,,,,,,,0,0,0,0,17,0,17,0,,,,,,,,,,,,,,,,,,,,,,,,,,,,,,,,,,,,,,,,,,,,,,,,,,,,,,,,,,,,,,,,,,,,,,0.016335981,,,,,,,,,,,,,,,,,,,,,,,,,,,,left,0,40,30,70,1,548.0265453,548.0265453,548.0265453,None,None,1,1,0.3756519,,,,,,,,,,,,,,,,,,,,,,10,7,2,2024-10-20_15h03.44.445,uWM_experiment,2022.2.3,59.99142123
,,,,,,,,,,,,,,,,,,,,0,0,0,0,18,0,18,0,,,,,,,,,,,,,,,,,,,,,,,,,,,,,,,,,,,,,,,,,,,,,,,,,,,,,,,,,,,,,,,,,,,,,,0,,,,,,,,,,,,,,,,,,,,,,,,,,,,left,1,40,-30,10,0,554.3268291,554.3268291,554.3268291,None,None,2,0,0.5952558,,,,,,,,,,,,,,,,,,,,,,10,7,2,2024-10-20_15h03.44.445,uWM_experiment,2022.2.3,59.99142123
,,,,,,,,,,,,,,,,,,,,0,0,0,0,19,0,19,0,,,,,,,,,,,,,,,,,,,,,,,,,,,,,,,,,,,,,,,,,,,,,,,,,,,,,,,,,,,,,,,,,,,,,,0,,,,,,,,,,,,,,,,,,,,,,,,,,,,right,0,40,-30,10,0,561.2604483,561.2604483,561.2604483,None,None,2,0,0.6137482,,,,,,,,,,,,,,,,,,,,,,10,7,2,2024-10-20_15h03.44.445,uWM_experiment,2022.2.3,59.99142123
,,,,,,,,,,,,,,,,,,,,0,0,0,0,20,0,20,0,,,,,,,,,,,,,,,,,,,,,,,,,,,,,,,,,,,,,,,,,,,,,,,,,,,,,,,,,,,,,,,,,,,,,,0.026335981,,,,,,,,,,,,,,,,,,,,,,,,,,,,left,1,10,-30,-20,1,567.9440207,567.9440207,567.9440207,None,None,2,0,0.5860145,,,,,,,,,,,,,,,,,,,,,,10,7,2,2024-10-20_15h03.44.445,uWM_experiment,2022.2.3,59.99142123
,,,,,,,,,,,,,,,,,,,,0,0,0,0,21,0,21,0,,,,,,,,,,,,,,,,,,,,,,,,,,,,,,,,,,,,,,,,,,,,,,,,,,,,,,,,,,,,,,,,,,,,,,0.016335981,,,,,,,,,,,,,,,,,,,,,,,,,,,,left,1,130,-30,100,1,574.4943042,574.4943042,574.4943042,None,None,2,0,0.6838457,,,,,,,,,,,,,,,,,,,,,,10,7,2,2024-10-20_15h03.44.445,uWM_experiment,2022.2.3,59.99142123
,,,,,,,,,,,,,,,,,,,,0,0,0,0,22,0,22,0,,,,,,,,,,,,,,,,,,,,,,,,,,,,,,,,,,,,,,,,,,,,,,,,,,,,,,,,,,,,,,,,,,,,,,0.006335981,,,,,,,,,,,,,,,,,,,,,,,,,,,,left,0,70,30,100,1,582.0612888,582.0612888,582.0612888,None,None,2,0,0.4928487,,,,,,,,,,,,,,,,,,,,,,10,7,2,2024-10-20_15h03.44.445,uWM_experiment,2022.2.3,59.99142123
,,,,,,,,,,,,,,,,,,,,0,0,0,0,23,0,23,0,,,,,,,,,,,,,,,,,,,,,,,,,,,,,,,,,,,,,,,,,,,,,,,,,,,,,,,,,,,,,,,,,,,,,,0,,,,,,,,,,,,,,,,,,,,,,,,,,,,left,1,160,-30,130,0,588.3117008,588.3117008,588.3117008,None,None,1,1,1.4103296,,,,,,,,,,,,,,,,,,,,,,10,7,2,2024-10-20_15h03.44.445,uWM_experiment,2022.2.3,59.99142123
,,,,,,,,,,,,,,,,,,,,0,0,0,0,,,,,0,0,0,0,,,,,,,,,,,,,,,,,,,,,,,,,,,,,,,,,,,,,,,,,,,,,,,,,,,,,,,,,,,,,,,,,,,,,,,,,,,,,,,,,,,,,,,,,,,,,,,,,,,,,,,,,,,,589.7448964,589.7448964,space,15.6330859,None,None,,,,,,,,,,,,,,,,10,7,2,2024-10-20_15h03.44.445,uWM_experiment,2022.2.3,59.99142123
,,,,,,,,,,,,,,,,,,,,0,0,0,0,,,,,1,0,1,0,,,,,,,,,,,,,,,,,,,,,,,,,,,,,,,,,,,,,,,,,,,,,,,,,,,,,,,,,,,,,,,,,,,,,,,,,,,,,,,,,,,,,,,,,,,,,,,,,,,,,,,,,,,,,,,,,,,,,,,,,,,,,,,,,10,7,2,2024-10-20_15h03.44.445,uWM_experiment,2022.2.3,59.99142123
,,,,,,,,,,,,,,,,,,,,0,0,0,0,,,,,2,0,2,0,,,,,,,,,,,,,,,,,,,,,,,,,,,,,,,,,,,,,,,,,,,,,,,,,,,,,,,,,,,,,,,,,,,,,,,,,,,,,,,,,,,,,,,,,,,,,,,,,,,,,,,,,,,,,,,,,,,,,,,,,,,,,,,,,10,7,2,2024-10-20_15h03.44.445,uWM_experiment,2022.2.3,59.99142123
,,,,,,,,,,,,,,,,,,,,1,0,1,0,0,0,0,0,,,,,,,,,,,,,,,,,,,,,,,,,,,,,,,,,,,,,,,,,,,,,,,,,,,,,,,,,,,,,,,,,,,,,,0,,,,,,,,,,,,,,,,,,,,605.3955574,606.0955882,606.3956007,607.0956257,607.3956365,608.0956654,608.0956654,608.4123519,left,1,40,-30,10,0,613.2625528,613.2625528,613.2625528,None,None,1,1,1.7634875,,,,,,,None,,,,,,,,,,,,,,,10,7,2,2024-10-20_15h03.44.445,uWM_experiment,2022.2.3,59.99142123
,,,,,,,,,,,,,,,,,,,,1,0,1,0,1,0,1,0,,,,,,,,,,,,,,,,,,,,,,,,,,,,,,,,,,,,,,,,,,,,,,,,,,,,,,,,,,,,,,,,,,,,,,0.005,,,,,,,,,,,,,,,,,,,,,,,,,,,,right,1,10,30,40,1,621.3461967,621.3461967,621.3461967,None,None,2,0,0.7437442,,,,,,,,,,,,,,,,,,,,,,10,7,2,2024-10-20_15h03.44.445,uWM_experiment,2022.2.3,59.99142123
,,,,,,,,,,,,,,,,,,,,1,0,1,0,2,0,2,0,,,,,,,,,,,,,,,,,,,,,,,,,,,,,,,,,,,,,,,,,,,,,,,,,,,,,,,,,,,,,,,,,,,,,,0.005,,,,,,,,,,,,,,,,,,,,,,,,,,,,left,0,70,30,100,1,627.9298304,627.9298304,627.9298304,None,None,1,1,0.6879825,,,,,,,,,,,,,,,,,,,,,,10,7,2,2024-10-20_15h03.44.445,uWM_experiment,2022.2.3,59.99142123
,,,,,,,,,,,,,,,,,,,,1,0,1,0,3,0,3,0,,,,,,,,,,,,,,,,,,,,,,,,,,,,,,,,,,,,,,,,,,,,,,,,,,,,,,,,,,,,,,,,,,,,,,0,,,,,,,,,,,,,,,,,,,,,,,,,,,,left,0,130,30,160,0,634.2133903,634.2133903,634.2133903,None,None,2,0,0.5485926,,,,,,,,,,,,,,,,,,,,,,10,7,2,2024-10-20_15h03.44.445,uWM_experiment,2022.2.3,59.99142123
,,,,,,,,,,,,,,,,,,,,1,0,1,0,4,0,4,0,,,,,,,,,,,,,,,,,,,,,,,,,,,,,,,,,,,,,,,,,,,,,,,,,,,,,,,,,,,,,,,,,,,,,,0.015,,,,,,,,,,,,,,,,,,,,,,,,,,,,left,0,70,30,100,1,640.4469946,640.4469946,640.4469946,None,None,2,0,1.6109219,,,,,,,,,,,,,,,,,,,,,,10,7,2,2024-10-20_15h03.44.445,uWM_experiment,2022.2.3,59.99142123
,,,,,,,,,,,,,,,,,,,,1,0,1,0,5,0,5,0,,,,,,,,,,,,,,,,,,,,,,,,,,,,,,,,,,,,,,,,,,,,,,,,,,,,,,,,,,,,,,,,,,,,,,0.005,,,,,,,,,,,,,,,,,,,,,,,,,,,,left,0,10,30,40,1,648.9639985,648.9639985,648.9639985,None,None,1,1,0.9177435,,,,,,,,,,,,,,,,,,,,,,10,7,2,2024-10-20_15h03.44.445,uWM_experiment,2022.2.3,59.99142123
,,,,,,,,,,,,,,,,,,,,1,0,1,0,6,0,6,0,,,,,,,,,,,,,,,,,,,,,,,,,,,,,,,,,,,,,,,,,,,,,,,,,,,,,,,,,,,,,,,,,,,,,,0.015,,,,,,,,,,,,,,,,,,,,,,,,,,,,left,1,160,-30,130,1,656.4809983,656.4809983,656.4809983,None,None,2,0,1.0088298,,,,,,,,,,,,,,,,,,,,,,10,7,2,2024-10-20_15h03.44.445,uWM_experiment,2022.2.3,59.99142123
,,,,,,,,,,,,,,,,,,,,1,0,1,0,7,0,7,0,,,,,,,,,,,,,,,,,,,,,,,,,,,,,,,,,,,,,,,,,,,,,,,,,,,,,,,,,,,,,,,,,,,,,,0.005,,,,,,,,,,,,,,,,,,,,,,,,,,,,right,0,40,-30,10,1,663.8979825,663.8979825,663.8979825,None,None,1,1,2.103671,,,,,,,,,,,,,,,,,,,,,,10,7,2,2024-10-20_15h03.44.445,uWM_experiment,2022.2.3,59.99142123
,,,,,,,,,,,,,,,,,,,,1,0,1,0,8,0,8,0,,,,,,,,,,,,,,,,,,,,,,,,,,,,,,,,,,,,,,,,,,,,,,,,,,,,,,,,,,,,,,,,,,,,,,0.015,,,,,,,,,,,,,,,,,,,,,,,,,,,,right,1,40,30,70,1,672.5149746,672.5149746,672.5149746,None,None,3,0,1.1027053,,,,,,,,,,,,,,,,,,,,,,10,7,2,2024-10-20_15h03.44.445,uWM_experiment,2022.2.3,59.99142123
,,,,,,,,,,,,,,,,,,,,1,0,1,0,9,0,9,0,,,,,,,,,,,,,,,,,,,,,,,,,,,,,,,,,,,,,,,,,,,,,,,,,,,,,,,,,,,,,,,,,,,,,,0.005,,,,,,,,,,,,,,,,,,,,,,,,,,,,right,0,130,-30,100,1,679.9152896,679.9152896,679.9152896,None,None,3,0,0.8304533,,,,,,,,,,,,,,,,,,,,,,10,7,2,2024-10-20_15h03.44.445,uWM_experiment,2022.2.3,59.99142123
,,,,,,,,,,,,,,,,,,,,1,0,1,0,10,0,10,0,,,,,,,,,,,,,,,,,,,,,,,,,,,,,,,,,,,,,,,,,,,,,,,,,,,,,,,,,,,,,,,,,,,,,,0.005,,,,,,,,,,,,,,,,,,,,,,,,,,,,left,1,130,-30,100,1,686.2822233,686.2822233,686.2822233,None,None,1,1,1.1114958,,,,,,,,,,,,,,,,,,,,,,10,7,2,2024-10-20_15h03.44.445,uWM_experiment,2022.2.3,59.99142123
,,,,,,,,,,,,,,,,,,,,1,0,1,0,11,0,11,0,,,,,,,,,,,,,,,,,,,,,,,,,,,,,,,,,,,,,,,,,,,,,,,,,,,,,,,,,,,,,,,,,,,,,,0,,,,,,,,,,,,,,,,,,,,,,,,,,,,right,1,10,30,40,0,695.0992205,695.0992205,695.0992205,None,None,2,0,1.6465255,,,,,,,,,,,,,,,,,,,,,,10,7,2,2024-10-20_15h03.44.445,uWM_experiment,2022.2.3,59.99142123
,,,,,,,,,,,,,,,,,,,,1,0,1,0,12,0,12,0,,,,,,,,,,,,,,,,,,,,,,,,,,,,,,,,,,,,,,,,,,,,,,,,,,,,,,,,,,,,,,,,,,,,,,0.015,,,,,,,,,,,,,,,,,,,,,,,,,,,,left,1,70,-30,40,1,704.399589,704.399589,704.399589,None,None,1,1,1.1699916,,,,,,,,,,,,,,,,,,,,,,10,7,2,2024-10-20_15h03.44.445,uWM_experiment,2022.2.3,59.99142123
,,,,,,,,,,,,,,,,,,,,1,0,1,0,13,0,13,0,,,,,,,,,,,,,,,,,,,,,,,,,,,,,,,,,,,,,,,,,,,,,,,,,,,,,,,,,,,,,,,,,,,,,,0.025,,,,,,,,,,,,,,,,,,,,,,,,,,,,left,0,70,30,100,1,712.6999427,712.6999427,712.6999427,None,None,1,1,1.3817783,,,,,,,,,,,,,,,,,,,,,,10,7,2,2024-10-20_15h03.44.445,uWM_experiment,2022.2.3,59.99142123
,,,,,,,,,,,,,,,,,,,,1,0,1,0,14,0,14,0,,,,,,,,,,,,,,,,,,,,,,,,,,,,,,,,,,,,,,,,,,,,,,,,,,,,,,,,,,,,,,,,,,,,,,0.035,,,,,,,,,,,,,,,,,,,,,,,,,,,,right,1,40,30,70,1,720.5502803,720.5502803,720.5502803,None,None,1,1,1.0032177,,,,,,,,,,,,,,,,,,,,,,10,7,2,2024-10-20_15h03.44.445,uWM_experiment,2022.2.3,59.99142123
,,,,,,,,,,,,,,,,,,,,1,0,1,0,15,0,15,0,,,,,,,,,,,,,,,,,,,,,,,,,,,,,,,,,,,,,,,,,,,,,,,,,,,,,,,,,,,,,,,,,,,,,,0,,,,,,,,,,,,,,,,,,,,,,,,,,,,left,1,10,-30,-20,0,727.1005271,727.1005271,727.1005271,None,None,1,1,0.5009962,,,,,,,,,,,,,,,,,,,,,,10,7,2,2024-10-20_15h03.44.445,uWM_experiment,2022.2.3,59.99142123
,,,,,,,,,,,,,,,,,,,,1,0,1,0,16,0,16,0,,,,,,,,,,,,,,,,,,,,,,,,,,,,,,,,,,,,,,,,,,,,,,,,,,,,,,,,,,,,,,,,,,,,,,0.045,,,,,,,,,,,,,,,,,,,,,,,,,,,,right,0,70,-30,40,1,733.8008173,733.8008173,733.8008173,None,None,1,1,1.4488364,,,,,,,,,,,,,,,,,,,,,,10,7,2,2024-10-20_15h03.44.445,uWM_experiment,2022.2.3,59.99142123
,,,,,,,,,,,,,,,,,,,,1,0,1,0,17,0,17,0,,,,,,,,,,,,,,,,,,,,,,,,,,,,,,,,,,,,,,,,,,,,,,,,,,,,,,,,,,,,,,,,,,,,,,0.055,,,,,,,,,,,,,,,,,,,,,,,,,,,,left,0,70,30,100,1,741.0510938,741.0510938,741.0510938,None,None,2,0,0.5584157,,,,,,,,,,,,,,,,,,,,,,10,7,2,2024-10-20_15h03.44.445,uWM_experiment,2022.2.3,59.99142123
,,,,,,,,,,,,,,,,,,,,1,0,1,0,18,0,18,0,,,,,,,,,,,,,,,,,,,,,,,,,,,,,,,,,,,,,,,,,,,,,,,,,,,,,,,,,,,,,,,,,,,,,,0.045,,,,,,,,,,,,,,,,,,,,,,,,,,,,right,0,100,-30,70,1,747.7513809,747.7513809,747.7513809,None,None,1,1,0.5461875,,,,,,,,,,,,,,,,,,,,,,10,7,2,2024-10-20_15h03.44.445,uWM_experiment,2022.2.3,59.99142123
,,,,,,,,,,,,,,,,,,,,1,0,1,0,19,0,19,0,,,,,,,,,,,,,,,,,,,,,,,,,,,,,,,,,,,,,,,,,,,,,,,,,,,,,,,,,,,,,,,,,,,,,,0.055,,,,,,,,,,,,,,,,,,,,,,,,,,,,left,1,70,-30,40,1,754.1683069,754.1683069,754.1683069,None,None,1,1,1.1051137,,,,,,,,,,,,,,,,,,,,,,10,7,2,2024-10-20_15h03.44.445,uWM_experiment,2022.2.3,59.99142123
,,,,,,,,,,,,,,,,,,,,1,0,1,0,20,0,20,0,,,,,,,,,,,,,,,,,,,,,,,,,,,,,,,,,,,,,,,,,,,,,,,,,,,,,,,,,,,,,,,,,,,,,,0.065,,,,,,,,,,,,,,,,,,,,,,,,,,,,right,0,160,-30,130,1,761.5519679,761.5519679,761.5519679,None,None,1,1,2.3775143,,,,,,,,,,,,,,,,,,,,,,10,7,2,2024-10-20_15h03.44.445,uWM_experiment,2022.2.3,59.99142123
,,,,,,,,,,,,,,,,,,,,1,0,1,0,21,0,21,0,,,,,,,,,,,,,,,,,,,,,,,,,,,,,,,,,,,,,,,,,,,,,,,,,,,,,,,,,,,,,,,,,,,,,,0.075,,,,,,,,,,,,,,,,,,,,,,,,,,,,right,1,10,30,40,1,770.6023288,770.6023288,770.6023288,None,None,2,0,1.183114,,,,,,,,,,,,,,,,,,,,,,10,7,2,2024-10-20_15h03.44.445,uWM_experiment,2022.2.3,59.99142123
,,,,,,,,,,,,,,,,,,,,1,0,1,0,22,0,22,0,,,,,,,,,,,,,,,,,,,,,,,,,,,,,,,,,,,,,,,,,,,,,,,,,,,,,,,,,,,,,,,,,,,,,,0.065,,,,,,,,,,,,,,,,,,,,,,,,,,,,left,1,70,-30,40,1,777.669277,777.669277,777.669277,None,None,2,0,0.6040889,,,,,,,,,,,,,,,,,,,,,,10,7,2,2024-10-20_15h03.44.445,uWM_experiment,2022.2.3,59.99142123
,,,,,,,,,,,,,,,,,,,,1,0,1,0,23,0,23,0,,,,,,,,,,,,,,,,,,,,,,,,,,,,,,,,,,,,,,,,,,,,,,,,,,,,,,,,,,,,,,,,,,,,,,0.055,,,,,,,,,,,,,,,,,,,,,,,,,,,,left,1,160,-30,130,1,783.9362085,783.9362085,783.9362085,None,None,2,0,0.537064,,,,,,,,,,,,,,,,,,,,,,10,7,2,2024-10-20_15h03.44.445,uWM_experiment,2022.2.3,59.99142123
,,,,,,,,,,,,,,,,,,,,1,0,1,0,,,,,0,0,0,0,,,,,,,,,,,,,,,,,,,,,,,,,,,,,,,,,,,,,,,,,,,,,,,,,,,,,,,,,,,,,,,,,,,,,,,,,,,,,,,,,,,,,,,,,,,,,,,,,,,,,,,,,,,,784.5028692,784.5028692,space,4.8185848,None,None,,,,,,,,,,,,,,,,10,7,2,2024-10-20_15h03.44.445,uWM_experiment,2022.2.3,59.99142123
,,,,,,,,,,,,,,,,,,,,1,0,1,0,,,,,1,0,1,0,,,,,,,,,,,,,,,,,,,,,,,,,,,,,,,,,,,,,,,,,,,,,,,,,,,,,,,,,,,,,,,,,,,,,,,,,,,,,,,,,,,,,,,,,,,,,,,,,,,,,,,,,,,,,,,,,,,,,,,,,,,,,,,,,10,7,2,2024-10-20_15h03.44.445,uWM_experiment,2022.2.3,59.99142123
,,,,,,,,,,,,,,,,,,,,1,0,1,0,,,,,2,0,2,0,,,,,,,,,,,,,,,,,,,,,,,,,,,,,,,,,,,,,,,,,,,,,,,,,,,,,,,,,,,,,,,,,,,,,,,,,,,,,,,,,,,,,,,,,,,,,,,,,,,,,,,,,,,,,,,,,,,,,,,,,,,,,,,,,10,7,2,2024-10-20_15h03.44.445,uWM_experiment,2022.2.3,59.99142123
,,,,,,,,,,,,,,,,,,,,2,0,2,0,0,0,0,0,,,,,,,,,,,,,,,,,,,,,,,,,,,,,,,,,,,,,,,,,,,,,,,,,,,,,,,,,,,,,,,,,,,,,,0.045,,,,,,,,,,,,,,,,,,,,789.3530814,790.0530989,790.3531257,791.0531401,791.3531638,792.0531881,792.0531881,792.3698817,right,0,10,-30,-20,1,798.2201291,798.2201291,798.2201291,None,None,1,1,0.7573228,,,,,,,None,,,,,,,,,,,,,,,10,7,2,2024-10-20_15h03.44.445,uWM_experiment,2022.2.3,59.99142123
,,,,,,,,,,,,,,,,,,,,2,0,2,0,1,0,1,0,,,,,,,,,,,,,,,,,,,,,,,,,,,,,,,,,,,,,,,,,,,,,,,,,,,,,,,,,,,,,,,,,,,,,,0.055,,,,,,,,,,,,,,,,,,,,,,,,,,,,right,0,40,-30,10,1,805.2037542,805.2037542,805.2037542,None,None,1,1,1.5496576,,,,,,,,,,,,,,,,,,,,,,10,7,2,2024-10-20_15h03.44.445,uWM_experiment,2022.2.3,59.99142123
,,,,,,,,,,,,,,,,,,,,2,0,2,0,2,0,2,0,,,,,,,,,,,,,,,,,,,,,,,,,,,,,,,,,,,,,,,,,,,,,,,,,,,,,,,,,,,,,,,,,,,,,,0.065,,,,,,,,,,,,,,,,,,,,,,,,,,,,left,1,160,-30,130,1,812.8373792,812.8373792,812.8373792,None,None,1,1,0.9479949,,,,,,,,,,,,,,,,,,,,,,10,7,2,2024-10-20_15h03.44.445,uWM_experiment,2022.2.3,59.99142123
,,,,,,,,,,,,,,,,,,,,2,0,2,0,3,0,3,0,,,,,,,,,,,,,,,,,,,,,,,,,,,,,,,,,,,,,,,,,,,,,,,,,,,,,,,,,,,,,,,,,,,,,,0.075,,,,,,,,,,,,,,,,,,,,,,,,,,,,right,0,160,-30,130,1,820.7710818,820.7710818,820.7710818,None,None,2,0,0.7021146,,,,,,,,,,,,,,,,,,,,,,10,7,2,2024-10-20_15h03.44.445,uWM_experiment,2022.2.3,59.99142123
,,,,,,,,,,,,,,,,,,,,2,0,2,0,4,0,4,0,,,,,,,,,,,,,,,,,,,,,,,,,,,,,,,,,,,,,,,,,,,,,,,,,,,,,,,,,,,,,,,,,,,,,,0.065,,,,,,,,,,,,,,,,,,,,,,,,,,,,left,0,10,30,40,1,827.2713025,827.2713025,827.2713025,None,None,2,0,0.385913,,,,,,,,,,,,,,,,,,,,,,10,7,2,2024-10-20_15h03.44.445,uWM_experiment,2022.2.3,59.99142123
,,,,,,,,,,,,,,,,,,,,2,0,2,0,5,0,5,0,,,,,,,,,,,,,,,,,,,,,,,,,,,,,,,,,,,,,,,,,,,,,,,,,,,,,,,,,,,,,,,,,,,,,,0.055,,,,,,,,,,,,,,,,,,,,,,,,,,,,left,1,70,-30,40,1,834.0215827,834.0215827,834.0215827,None,None,2,0,0.6675797,,,,,,,,,,,,,,,,,,,,,,10,7,2,2024-10-20_15h03.44.445,uWM_experiment,2022.2.3,59.99142123
,,,,,,,,,,,,,,,,,,,,2,0,2,0,6,0,6,0,,,,,,,,,,,,,,,,,,,,,,,,,,,,,,,,,,,,,,,,,,,,,,,,,,,,,,,,,,,,,,,,,,,,,,0.045,,,,,,,,,,,,,,,,,,,,,,,,,,,,left,0,130,30,160,1,840.8551942,840.8551942,840.8551942,None,None,2,0,1.5460672,,,,,,,,,,,,,,,,,,,,,,10,7,2,2024-10-20_15h03.44.445,uWM_experiment,2022.2.3,59.99142123
,,,,,,,,,,,,,,,,,,,,2,0,2,0,7,0,7,0,,,,,,,,,,,,,,,,,,,,,,,,,,,,,,,,,,,,,,,,,,,,,,,,,,,,,,,,,,,,,,,,,,,,,,0,,,,,,,,,,,,,,,,,,,,,,,,,,,,right,1,40,30,70,0,848.1721576,848.1721576,848.1721576,None,None,3,0,1.0130744,,,,,,,,,,,,,,,,,,,,,,10,7,2,2024-10-20_15h03.44.445,uWM_experiment,2022.2.3,59.99142123
,,,,,,,,,,,,,,,,,,,,2,0,2,0,8,0,8,0,,,,,,,,,,,,,,,,,,,,,,,,,,,,,,,,,,,,,,,,,,,,,,,,,,,,,,,,,,,,,,,,,,,,,,0.035,,,,,,,,,,,,,,,,,,,,,,,,,,,,left,0,70,30,100,1,854.7391104,854.7391104,854.7391104,None,None,2,0,0.6461274,,,,,,,,,,,,,,,,,,,,,,10,7,2,2024-10-20_15h03.44.445,uWM_experiment,2022.2.3,59.99142123
,,,,,,,,,,,,,,,,,,,,2,0,2,0,9,0,9,0,,,,,,,,,,,,,,,,,,,,,,,,,,,,,,,,,,,,,,,,,,,,,,,,,,,,,,,,,,,,,,,,,,,,,,0.025,,,,,,,,,,,,,,,,,,,,,,,,,,,,right,0,10,-30,-20,1,864.3561413,864.3561413,864.3561413,None,None,2,0,3.3170969,,,,,,,,,,,,,,,,,,,,,,10,7,2,2024-10-20_15h03.44.445,uWM_experiment,2022.2.3,59.99142123
,,,,,,,,,,,,,,,,,,,,2,0,2,0,10,0,10,0,,,,,,,,,,,,,,,,,,,,,,,,,,,,,,,,,,,,,,,,,,,,,,,,,,,,,,,,,,,,,,,,,,,,,,0,,,,,,,,,,,,,,,,,,,,,,,,,,,,right,0,70,-30,40,0,873.9565262,873.9565262,873.9565262,None,None,2,0,5.6125798,,,,,,,,,,,,,,,,,,,,,,10,7,2,2024-10-20_15h03.44.445,uWM_experiment,2022.2.3,59.99142123
,,,,,,,,,,,,,,,,,,,,2,0,2,0,11,0,11,0,,,,,,,,,,,,,,,,,,,,,,,,,,,,,,,,,,,,,,,,,,,,,,,,,,,,,,,,,,,,,,,,,,,,,,0.015,,,,,,,,,,,,,,,,,,,,,,,,,,,,left,0,100,30,130,1,886.4070586,886.4070586,886.4070586,None,None,1,1,1.2420543,,,,,,,,,,,,,,,,,,,,,,10,7,2,2024-10-20_15h03.44.445,uWM_experiment,2022.2.3,59.99142123
,,,,,,,,,,,,,,,,,,,,2,0,2,0,12,0,12,0,,,,,,,,,,,,,,,,,,,,,,,,,,,,,,,,,,,,,,,,,,,,,,,,,,,,,,,,,,,,,,,,,,,,,,0.025,,,,,,,,,,,,,,,,,,,,,,,,,,,,right,0,160,-30,130,1,894.0406994,894.0406994,894.0406994,None,None,1,1,0.8804111,,,,,,,,,,,,,,,,,,,,,,10,7,2,2024-10-20_15h03.44.445,uWM_experiment,2022.2.3,59.99142123
,,,,,,,,,,,,,,,,,,,,2,0,2,0,13,0,13,0,,,,,,,,,,,,,,,,,,,,,,,,,,,,,,,,,,,,,,,,,,,,,,,,,,,,,,,,,,,,,,,,,,,,,,0.035,,,,,,,,,,,,,,,,,,,,,,,,,,,,left,1,160,-30,130,1,901.0909858,901.0909858,901.0909858,None,None,1,1,0.4620604,,,,,,,,,,,,,,,,,,,,,,10,7,2,2024-10-20_15h03.44.445,uWM_experiment,2022.2.3,59.99142123
,,,,,,,,,,,,,,,,,,,,2,0,2,0,14,0,14,0,,,,,,,,,,,,,,,,,,,,,,,,,,,,,,,,,,,,,,,,,,,,,,,,,,,,,,,,,,,,,,,,,,,,,,0,,,,,,,,,,,,,,,,,,,,,,,,,,,,right,1,70,30,100,0,907.7079146,907.7079146,907.7079146,None,None,2,0,1.0050146,,,,,,,,,,,,,,,,,,,,,,10,7,2,2024-10-20_15h03.44.445,uWM_experiment,2022.2.3,59.99142123
,,,,,,,,,,,,,,,,,,,,2,0,2,0,15,0,15,0,,,,,,,,,,,,,,,,,,,,,,,,,,,,,,,,,,,,,,,,,,,,,,,,,,,,,,,,,,,,,,,,,,,,,,0.045,,,,,,,,,,,,,,,,,,,,,,,,,,,,right,1,70,30,100,1,914.4248877,914.4248877,914.4248877,None,None,1,1,0.9920681,,,,,,,,,,,,,,,,,,,,,,10,7,2,2024-10-20_15h03.44.445,uWM_experiment,2022.2.3,59.99142123
,,,,,,,,,,,,,,,,,,,,2,0,2,0,16,0,16,0,,,,,,,,,,,,,,,,,,,,,,,,,,,,,,,,,,,,,,,,,,,,,,,,,,,,,,,,,,,,,,,,,,,,,,0,,,,,,,,,,,,,,,,,,,,,,,,,,,,right,1,130,30,160,0,921.4751615,921.4751615,921.4751615,None,None,1,1,1.3259022,,,,,,,,,,,,,,,,,,,,,,10,7,2,2024-10-20_15h03.44.445,uWM_experiment,2022.2.3,59.99142123
,,,,,,,,,,,,,,,,,,,,2,0,2,0,17,0,17,0,,,,,,,,,,,,,,,,,,,,,,,,,,,,,,,,,,,,,,,,,,,,,,,,,,,,,,,,,,,,,,,,,,,,,,0.055,,,,,,,,,,,,,,,,,,,,,,,,,,,,right,1,130,30,160,1,928.7421126,928.7421126,928.7421126,None,None,2,0,2.0187695,,,,,,,,,,,,,,,,,,,,,,10,7,2,2024-10-20_15h03.44.445,uWM_experiment,2022.2.3,59.99142123
,,,,,,,,,,,,,,,,,,,,2,0,2,0,18,0,18,0,,,,,,,,,,,,,,,,,,,,,,,,,,,,,,,,,,,,,,,,,,,,,,,,,,,,,,,,,,,,,,,,,,,,,,0.045,,,,,,,,,,,,,,,,,,,,,,,,,,,,left,0,10,30,40,1,937.5091394,937.5091394,937.5091394,None,None,2,0,0.6357273,,,,,,,,,,,,,,,,,,,,,,10,7,2,2024-10-20_15h03.44.445,uWM_experiment,2022.2.3,59.99142123
,,,,,,,,,,,,,,,,,,,,2,0,2,0,19,0,19,0,,,,,,,,,,,,,,,,,,,,,,,,,,,,,,,,,,,,,,,,,,,,,,,,,,,,,,,,,,,,,,,,,,,,,,0.035,,,,,,,,,,,,,,,,,,,,,,,,,,,,left,0,160,30,190,1,944.0760701,944.0760701,944.0760701,None,None,2,0,0.676905,,,,,,,,,,,,,,,,,,,,,,10,7,2,2024-10-20_15h03.44.445,uWM_experiment,2022.2.3,59.99142123
,,,,,,,,,,,,,,,,,,,,2,0,2,0,20,0,20,0,,,,,,,,,,,,,,,,,,,,,,,,,,,,,,,,,,,,,,,,,,,,,,,,,,,,,,,,,,,,,,,,,,,,,,0.1,,,,,,,,,,,,,,,,,,,,,,,,,,,,left,1,160,-30,130,2,950.5763611,950.5763611,950.5763611,None,None,4,0,1.0644602,,,,,,,,,,,,,,,,,,,,,,10,7,2,2024-10-20_15h03.44.445,uWM_experiment,2022.2.3,59.99142123
,,,,,,,,,,,,,,,,,,,,2,0,2,0,21,0,21,0,,,,,,,,,,,,,,,,,,,,,,,,,,,,,,,,,,,,,,,,,,,,,,,,,,,,,,,,,,,,,,,,,,,,,,0.025,,,,,,,,,,,,,,,,,,,,,,,,,,,,left,1,100,-30,70,1,973.6773072,973.6773072,973.6773072,None,None,3,0,2.7394429,,,,,,,,,,,,,,,,,,,,,,10,7,2,2024-10-20_15h03.44.445,uWM_experiment,2022.2.3,59.99142123
,,,,,,,,,,,,,,,,,,,,2,0,2,0,22,0,22,0,,,,,,,,,,,,,,,,,,,,,,,,,,,,,,,,,,,,,,,,,,,,,,,,,,,,,,,,,,,,,,,,,,,,,,0,,,,,,,,,,,,,,,,,,,,,,,,,,,,right,0,40,-30,10,0,982.4943287,982.4943287,982.4943287,None,None,1,1,0.8584121,,,,,,,,,,,,,,,,,,,,,,10,7,2,2024-10-20_15h03.44.445,uWM_experiment,2022.2.3,59.99142123
,,,,,,,,,,,,,,,,,,,,2,0,2,0,23,0,23,0,,,,,,,,,,,,,,,,,,,,,,,,,,,,,,,,,,,,,,,,,,,,,,,,,,,,,,,,,,,,,,,,,,,,,,0.1,,,,,,,,,,,,,,,,,,,,,,,,,,,,left,1,100,-30,70,2,989.3279251,989.3279251,989.3279251,None,None,4,0,0.7207851,,,,,,,,,,,,,,,,,,,,,,10,7,2,2024-10-20_15h03.44.445,uWM_experiment,2022.2.3,59.99142123
,,,,,,,,,,,,,,,,,,,,2,0,2,0,,,,,0,0,0,0,,,,,,,,,,,,,,,,,,,,,,,,,,,,,,,,,,,,,,,,,,,,,,,,,,,,,,,,,,,,,,,,,,,,,,,,,,,,,,,,,,,,,,,,,,,,,,,,,,,,,,,,,,,,990.0779321,990.0779321,space,61.3226972,space,None,,1051.430457,1051.430457,1.6581986,,,,,,,,,,,,10,7,2,2024-10-20_15h03.44.445,uWM_experiment,2022.2.3,59.99142123
,,,,,,,,,,,,,,,,,,,,2,0,2,0,,,,,1,0,1,0,,,,,,,,,,,,,,,,,,,,,,,,,,,,,,,,,,,,,,,,,,,,,,,,,,,,,,,,,,,,,,,,,,,,,,,,,,,,,,,,,,,,,,,,,,,,,,,,,,,,,,,,,,,,,,,,,,,,,,,,,,,,,,,,,10,7,2,2024-10-20_15h03.44.445,uWM_experiment,2022.2.3,59.99142123
,,,,,,,,,,,,,,,,,,,,2,0,2,0,,,,,2,0,2,0,,,,,,,,,,,,,,,,,,,,,,,,,,,,,,,,,,,,,,,,,,,,,,,,,,,,,,,,,,,,,,,,,,,,,,,,,,,,,,,,,,,,,,,,,,,,,,,,,,,,,,,,,,,,,,,,,,,,,,,,,,,,,,,,,10,7,2,2024-10-20_15h03.44.445,uWM_experiment,2022.2.3,59.99142123
,,,,,,,,,,,,,,,,,,,,3,0,3,0,0,0,0,0,,,,,,,,,,,,,,,,,,,,,,,,,,,,,,,,,,,,,,,,,,,,,,,,,,,,,,,,,,,,,,,,,,,,,,0.015,,,,,,,,,,,,,,,,,,,,1053.113863,1053.813888,1054.113901,1054.813958,1055.113951,1055.813973,1055.813973,1056.130696,left,1,130,-30,100,1,1060.830829,1060.830829,1060.830829,None,None,2,0,0.5856789,,,,,,,None,,,,,,,,,,,,,,,10,7,2,2024-10-20_15h03.44.445,uWM_experiment,2022.2.3,59.99142123
,,,,,,,,,,,,,,,,,,,,3,0,3,0,1,0,1,0,,,,,,,,,,,,,,,,,,,,,,,,,,,,,,,,,,,,,,,,,,,,,,,,,,,,,,,,,,,,,,,,,,,,,,0.005,,,,,,,,,,,,,,,,,,,,,,,,,,,,right,1,10,30,40,1,1068.531178,1068.531178,1068.531178,None,None,1,1,0.7012585,,,,,,,,,,,,,,,,,,,,,,10,7,2,2024-10-20_15h03.44.445,uWM_experiment,2022.2.3,59.99142123
,,,,,,,,,,,,,,,,,,,,3,0,3,0,2,0,2,0,,,,,,,,,,,,,,,,,,,,,,,,,,,,,,,,,,,,,,,,,,,,,,,,,,,,,,,,,,,,,,,,,,,,,,0.015,,,,,,,,,,,,,,,,,,,,,,,,,,,,right,1,70,30,100,1,1076.014821,1076.014821,1076.014821,None,None,1,1,1.0096641,,,,,,,,,,,,,,,,,,,,,,10,7,2,2024-10-20_15h03.44.445,uWM_experiment,2022.2.3,59.99142123
,,,,,,,,,,,,,,,,,,,,3,0,3,0,3,0,3,0,,,,,,,,,,,,,,,,,,,,,,,,,,,,,,,,,,,,,,,,,,,,,,,,,,,,,,,,,,,,,,,,,,,,,,0.1,,,,,,,,,,,,,,,,,,,,,,,,,,,,right,1,160,30,190,2,1084.915181,1084.915181,1084.915181,None,None,4,0,0.7732361,,,,,,,,,,,,,,,,,,,,,,10,7,2,2024-10-20_15h03.44.445,uWM_experiment,2022.2.3,59.99142123
,,,,,,,,,,,,,,,,,,,,3,0,3,0,4,0,4,0,,,,,,,,,,,,,,,,,,,,,,,,,,,,,,,,,,,,,,,,,,,,,,,,,,,,,,,,,,,,,,,,,,,,,,0,,,,,,,,,,,,,,,,,,,,,,,,,,,,right,1,130,30,160,0,1093.482205,1093.482205,1093.482205,None,None,2,0,0.5021085,,,,,,,,,,,,,,,,,,,,,,10,7,2,2024-10-20_15h03.44.445,uWM_experiment,2022.2.3,59.99142123
,,,,,,,,,,,,,,,,,,,,3,0,3,0,5,0,5,0,,,,,,,,,,,,,,,,,,,,,,,,,,,,,,,,,,,,,,,,,,,,,,,,,,,,,,,,,,,,,,,,,,,,,,0.025,,,,,,,,,,,,,,,,,,,,,,,,,,,,left,0,40,30,70,1,1100.382457,1100.382457,1100.382457,None,None,2,0,0.7698711,,,,,,,,,,,,,,,,,,,,,,10,7,2,2024-10-20_15h03.44.445,uWM_experiment,2022.2.3,59.99142123
,,,,,,,,,,,,,,,,,,,,3,0,3,0,6,0,6,0,,,,,,,,,,,,,,,,,,,,,,,,,,,,,,,,,,,,,,,,,,,,,,,,,,,,,,,,,,,,,,,,,,,,,,0.015,,,,,,,,,,,,,,,,,,,,,,,,,,,,left,1,40,-30,10,1,1108.449473,1108.449473,1108.449473,None,None,2,0,0.7909757,,,,,,,,,,,,,,,,,,,,,,10,7,2,2024-10-20_15h03.44.445,uWM_experiment,2022.2.3,59.99142123
,,,,,,,,,,,,,,,,,,,,3,0,3,0,7,0,7,0,,,,,,,,,,,,,,,,,,,,,,,,,,,,,,,,,,,,,,,,,,,,,,,,,,,,,,,,,,,,,,,,,,,,,,0.005,,,,,,,,,,,,,,,,,,,,,,,,,,,,left,1,160,-30,130,1,1115.099754,1115.099754,1115.099754,None,None,2,0,0.7406062,,,,,,,,,,,,,,,,,,,,,,10,7,2,2024-10-20_15h03.44.445,uWM_experiment,2022.2.3,59.99142123
,,,,,,,,,,,,,,,,,,,,3,0,3,0,8,0,8,0,,,,,,,,,,,,,,,,,,,,,,,,,,,,,,,,,,,,,,,,,,,,,,,,,,,,,,,,,,,,,,,,,,,,,,0.005,,,,,,,,,,,,,,,,,,,,,,,,,,,,left,1,40,-30,10,1,1123.766771,1123.766771,1123.766771,None,None,1,1,0.5455645,,,,,,,,,,,,,,,,,,,,,,10,7,2,2024-10-20_15h03.44.445,uWM_experiment,2022.2.3,59.99142123
,,,,,,,,,,,,,,,,,,,,3,0,3,0,9,0,9,0,,,,,,,,,,,,,,,,,,,,,,,,,,,,,,,,,,,,,,,,,,,,,,,,,,,,,,,,,,,,,,,,,,,,,,0.015,,,,,,,,,,,,,,,,,,,,,,,,,,,,left,1,100,-30,70,1,1130.450376,1130.450376,1130.450376,None,None,3,0,2.6058459,,,,,,,,,,,,,,,,,,,,,,10,7,2,2024-10-20_15h03.44.445,uWM_experiment,2022.2.3,59.99142123
,,,,,,,,,,,,,,,,,,,,3,0,3,0,10,0,10,0,,,,,,,,,,,,,,,,,,,,,,,,,,,,,,,,,,,,,,,,,,,,,,,,,,,,,,,,,,,,,,,,,,,,,,0,,,,,,,,,,,,,,,,,,,,,,,,,,,,right,1,130,30,160,0,1139.334073,1139.334073,1139.334073,None,None,3,0,19.5782064,,,,,,,,,,,,,,,,,,,,,,10,7,2,2024-10-20_15h03.44.445,uWM_experiment,2022.2.3,59.99142123
,,,,,,,,,,,,,,,,,,,,3,0,3,0,11,0,11,0,,,,,,,,,,,,,,,,,,,,,,,,,,,,,,,,,,,,,,,,,,,,,,,,,,,,,,,,,,,,,,,,,,,,,,0.005,,,,,,,,,,,,,,,,,,,,,,,,,,,,left,1,130,-30,100,1,1166.535195,1166.535195,1166.535195,None,None,2,0,1.4330558,,,,,,,,,,,,,,,,,,,,,,10,7,2,2024-10-20_15h03.44.445,uWM_experiment,2022.2.3,59.99142123
,,,,,,,,,,,,,,,,,,,,3,0,3,0,12,0,12,0,,,,,,,,,,,,,,,,,,,,,,,,,,,,,,,,,,,,,,,,,,,,,,,,,,,,,,,,,,,,,,,,,,,,,,0.1,,,,,,,,,,,,,,,,,,,,,,,,,,,,right,1,70,30,100,2,1187.069326,1187.069326,1187.069326,None,None,3,0,1.2027008,,,,,,,,,,,,,,,,,,,,,,10,7,2,2024-10-20_15h03.44.445,uWM_experiment,2022.2.3,59.99142123
,,,,,,,,,,,,,,,,,,,,3,0,3,0,13,0,13,0,,,,,,,,,,,,,,,,,,,,,,,,,,,,,,,,,,,,,,,,,,,,,,,,,,,,,,,,,,,,,,,,,,,,,,0.005,,,,,,,,,,,,,,,,,,,,,,,,,,,,right,1,40,30,70,1,1196.23639,1196.23639,1196.23639,None,None,3,0,2.0918826,,,,,,,,,,,,,,,,,,,,,,10,7,2,2024-10-20_15h03.44.445,uWM_experiment,2022.2.3,59.99142123
,,,,,,,,,,,,,,,,,,,,3,0,3,0,14,0,14,0,,,,,,,,,,,,,,,,,,,,,,,,,,,,,,,,,,,,,,,,,,,,,,,,,,,,,,,,,,,,,,,,,,,,,,0.005,,,,,,,,,,,,,,,,,,,,,,,,,,,,right,1,130,30,160,1,1204.620076,1204.620076,1204.620076,None,None,1,1,0.7000046,,,,,,,,,,,,,,,,,,,,,,10,7,2,2024-10-20_15h03.44.445,uWM_experiment,2022.2.3,59.99142123
,,,,,,,,,,,,,,,,,,,,3,0,3,0,15,0,15,0,,,,,,,,,,,,,,,,,,,,,,,,,,,,,,,,,,,,,,,,,,,,,,,,,,,,,,,,,,,,,,,,,,,,,,0,,,,,,,,,,,,,,,,,,,,,,,,,,,,left,0,40,30,70,0,1211.937018,1211.937018,1211.937018,None,None,2,0,1.2150952,,,,,,,,,,,,,,,,,,,,,,10,7,2,2024-10-20_15h03.44.445,uWM_experiment,2022.2.3,59.99142123
,,,,,,,,,,,,,,,,,,,,3,0,3,0,16,0,16,0,,,,,,,,,,,,,,,,,,,,,,,,,,,,,,,,,,,,,,,,,,,,,,,,,,,,,,,,,,,,,,,,,,,,,,0,,,,,,,,,,,,,,,,,,,,,,,,,,,,left,0,130,30,160,0,1219.137317,1219.137317,1219.137317,None,None,3,0,1.4546181,,,,,,,,,,,,,,,,,,,,,,10,7,2,2024-10-20_15h03.44.445,uWM_experiment,2022.2.3,59.99142123
,,,,,,,,,,,,,,,,,,,,3,0,3,0,17,0,17,0,,,,,,,,,,,,,,,,,,,,,,,,,,,,,,,,,,,,,,,,,,,,,,,,,,,,,,,,,,,,,,,,,,,,,,0.015,,,,,,,,,,,,,,,,,,,,,,,,,,,,left,1,10,-30,-20,1,1226.170946,1226.170946,1226.170946,None,None,2,0,0.6530032,,,,,,,,,,,,,,,,,,,,,,10,7,2,2024-10-20_15h03.44.445,uWM_experiment,2022.2.3,59.99142123
,,,,,,,,,,,,,,,,,,,,3,0,3,0,18,0,18,0,,,,,,,,,,,,,,,,,,,,,,,,,,,,,,,,,,,,,,,,,,,,,,,,,,,,,,,,,,,,,,,,,,,,,,0.005,,,,,,,,,,,,,,,,,,,,,,,,,,,,left,0,160,30,190,1,1233.371259,1233.371259,1233.371259,None,None,2,0,0.8367002,,,,,,,,,,,,,,,,,,,,,,10,7,2,2024-10-20_15h03.44.445,uWM_experiment,2022.2.3,59.99142123
,,,,,,,,,,,,,,,,,,,,3,0,3,0,19,0,19,0,,,,,,,,,,,,,,,,,,,,,,,,,,,,,,,,,,,,,,,,,,,,,,,,,,,,,,,,,,,,,,,,,,,,,,0.005,,,,,,,,,,,,,,,,,,,,,,,,,,,,right,0,100,-30,70,1,1240.304843,1240.304843,1240.304843,None,None,2,0,0.5190093,,,,,,,,,,,,,,,,,,,,,,10,7,2,2024-10-20_15h03.44.445,uWM_experiment,2022.2.3,59.99142123
,,,,,,,,,,,,,,,,,,,,3,0,3,0,20,0,20,0,,,,,,,,,,,,,,,,,,,,,,,,,,,,,,,,,,,,,,,,,,,,,,,,,,,,,,,,,,,,,,,,,,,,,,0,,,,,,,,,,,,,,,,,,,,,,,,,,,,left,0,130,30,160,0,1246.588432,1246.588432,1246.588432,None,None,2,0,0.9794948,,,,,,,,,,,,,,,,,,,,,,10,7,2,2024-10-20_15h03.44.445,uWM_experiment,2022.2.3,59.99142123
,,,,,,,,,,,,,,,,,,,,3,0,3,0,21,0,21,0,,,,,,,,,,,,,,,,,,,,,,,,,,,,,,,,,,,,,,,,,,,,,,,,,,,,,,,,,,,,,,,,,,,,,,0.005,,,,,,,,,,,,,,,,,,,,,,,,,,,,left,0,100,30,130,1,1256.188835,1256.188835,1256.188835,None,None,2,0,0.8831773,,,,,,,,,,,,,,,,,,,,,,10,7,2,2024-10-20_15h03.44.445,uWM_experiment,2022.2.3,59.99142123
,,,,,,,,,,,,,,,,,,,,3,0,3,0,22,0,22,0,,,,,,,,,,,,,,,,,,,,,,,,,,,,,,,,,,,,,,,,,,,,,,,,,,,,,,,,,,,,,,,,,,,,,,0,,,,,,,,,,,,,,,,,,,,,,,,,,,,left,1,100,-30,70,0,1264.10584,1264.10584,1264.10584,None,None,2,0,0.9660317,,,,,,,,,,,,,,,,,,,,,,10,7,2,2024-10-20_15h03.44.445,uWM_experiment,2022.2.3,59.99142123
,,,,,,,,,,,,,,,,,,,,3,0,3,0,23,0,23,0,,,,,,,,,,,,,,,,,,,,,,,,,,,,,,,,,,,,,,,,,,,,,,,,,,,,,,,,,,,,,,,,,,,,,,0.005,,,,,,,,,,,,,,,,,,,,,,,,,,,,right,1,130,30,160,1,1271.372812,1271.372812,1271.372812,None,None,3,0,0.7310221,,,,,,,,,,,,,,,,,,,,,,10,7,2,2024-10-20_15h03.44.445,uWM_experiment,2022.2.3,59.99142123
,,,,,,,,,,,,,,,,,,,,3,0,3,0,,,,,0,0,0,0,,,,,,,,,,,,,,,,,,,,,,,,,,,,,,,,,,,,,,,,,,,,,,,,,,,,,,,,,,,,,,,,,,,,,,,,,,,,,,,,,,,,,,,,,,,,,,,,,,,,,,,,,,,,1272.122803,1272.122803,space,33.8529527,None,None,,,,,,,,,,,,,,,,10,7,2,2024-10-20_15h03.44.445,uWM_experiment,2022.2.3,59.99142123
,,,,,,,,,,,,,,,,,,,,3,0,3,0,,,,,1,0,1,0,,,,,,,,,,,,,,,,,,,,,,,,,,,,,,,,,,,,,,,,,,,,,,,,,,,,,,,,,,,,,,,,,,,,,,,,,,,,,,,,,,,,,,,,,,,,,,,,,,,,,,,,,,,,,,,,,,,,,,,,,,,,,,,,,10,7,2,2024-10-20_15h03.44.445,uWM_experiment,2022.2.3,59.99142123
,,,,,,,,,,,,,,,,,,,,3,0,3,0,,,,,2,0,2,0,,,,,,,,,,,,,,,,,,,,,,,,,,,,,,,,,,,,,,,,,,,,,,,,,,,,,,,,,,,,,,,,,,,,,,,,,,,,,,,,,,,,,,,,,,,,,,,,,,,,,,,,,,,,,,,,,,,,,,,,,,,,,,,,,10,7,2,2024-10-20_15h03.44.445,uWM_experiment,2022.2.3,59.99142123
,,,,,,,,,,,,,,,,,,,,4,0,4,0,0,0,0,0,,,,,,,,,,,,,,,,,,,,,,,,,,,,,,,,,,,,,,,,,,,,,,,,,,,,,,,,,,,,,,,,,,,,,,0.005,,,,,,,,,,,,,,,,,,,,1306.007532,1306.707576,1307.007573,1307.707602,1308.007612,1308.707643,1308.707643,1309.024324,right,1,10,30,40,1,1315.624609,1315.624609,1315.624609,None,None,2,0,1.0071075,,,,,,,None,,,,,,,,,,,,,,,10,7,2,2024-10-20_15h03.44.445,uWM_experiment,2022.2.3,59.99142123
,,,,,,,,,,,,,,,,,,,,4,0,4,0,1,0,1,0,,,,,,,,,,,,,,,,,,,,,,,,,,,,,,,,,,,,,,,,,,,,,,,,,,,,,,,,,,,,,,,,,,,,,,0.005,,,,,,,,,,,,,,,,,,,,,,,,,,,,left,1,130,-30,100,1,1322.224872,1322.224872,1322.224872,None,None,2,0,0.6627547,,,,,,,,,,,,,,,,,,,,,,10,7,2,2024-10-20_15h03.44.445,uWM_experiment,2022.2.3,59.99142123
,,,,,,,,,,,,,,,,,,,,4,0,4,0,2,0,2,0,,,,,,,,,,,,,,,,,,,,,,,,,,,,,,,,,,,,,,,,,,,,,,,,,,,,,,,,,,,,,,,,,,,,,,0,,,,,,,,,,,,,,,,,,,,,,,,,,,,left,1,40,-30,10,0,1328.858454,1328.858454,1328.858454,None,None,1,1,0.7492527,,,,,,,,,,,,,,,,,,,,,,10,7,2,2024-10-20_15h03.44.445,uWM_experiment,2022.2.3,59.99142123
,,,,,,,,,,,,,,,,,,,,4,0,4,0,3,0,3,0,,,,,,,,,,,,,,,,,,,,,,,,,,,,,,,,,,,,,,,,,,,,,,,,,,,,,,,,,,,,,,,,,,,,,,0.005,,,,,,,,,,,,,,,,,,,,,,,,,,,,right,1,40,30,70,1,1336.308772,1336.308772,1336.308772,None,None,1,1,0.7949666,,,,,,,,,,,,,,,,,,,,,,10,7,2,2024-10-20_15h03.44.445,uWM_experiment,2022.2.3,59.99142123
,,,,,,,,,,,,,,,,,,,,4,0,4,0,4,0,4,0,,,,,,,,,,,,,,,,,,,,,,,,,,,,,,,,,,,,,,,,,,,,,,,,,,,,,,,,,,,,,,,,,,,,,,0.015,,,,,,,,,,,,,,,,,,,,,,,,,,,,left,0,160,30,190,1,1344.125776,1344.125776,1344.125776,None,None,2,0,2.2017414,,,,,,,,,,,,,,,,,,,,,,10,7,2,2024-10-20_15h03.44.445,uWM_experiment,2022.2.3,59.99142123
,,,,,,,,,,,,,,,,,,,,4,0,4,0,5,0,5,0,,,,,,,,,,,,,,,,,,,,,,,,,,,,,,,,,,,,,,,,,,,,,,,,,,,,,,,,,,,,,,,,,,,,,,0,,,,,,,,,,,,,,,,,,,,,,,,,,,,left,0,130,30,160,0,1352.309441,1352.309441,1352.309441,None,None,2,0,0.6821115,,,,,,,,,,,,,,,,,,,,,,10,7,2,2024-10-20_15h03.44.445,uWM_experiment,2022.2.3,59.99142123
,,,,,,,,,,,,,,,,,,,,4,0,4,0,6,0,6,0,,,,,,,,,,,,,,,,,,,,,,,,,,,,,,,,,,,,,,,,,,,,,,,,,,,,,,,,,,,,,,,,,,,,,,0.005,,,,,,,,,,,,,,,,,,,,,,,,,,,,left,0,10,30,40,1,1359.626392,1359.626392,1359.626392,None,None,1,1,0.6211262,,,,,,,,,,,,,,,,,,,,,,10,7,2,2024-10-20_15h03.44.445,uWM_experiment,2022.2.3,59.99142123
,,,,,,,,,,,,,,,,,,,,4,0,4,0,7,0,7,0,,,,,,,,,,,,,,,,,,,,,,,,,,,,,,,,,,,,,,,,,,,,,,,,,,,,,,,,,,,,,,,,,,,,,,0.015,,,,,,,,,,,,,,,,,,,,,,,,,,,,right,1,70,30,100,1,1374.177004,1374.177004,1374.177004,None,None,2,0,1.4224313,,,,,,,,,,,,,,,,,,,,,,10,7,2,2024-10-20_15h03.44.445,uWM_experiment,2022.2.3,59.99142123
,,,,,,,,,,,,,,,,,,,,4,0,4,0,8,0,8,0,,,,,,,,,,,,,,,,,,,,,,,,,,,,,,,,,,,,,,,,,,,,,,,,,,,,,,,,,,,,,,,,,,,,,,0,,,,,,,,,,,,,,,,,,,,,,,,,,,,left,1,40,-30,10,0,1381.560616,1381.560616,1381.560616,None,None,1,1,0.470842,,,,,,,,,,,,,,,,,,,,,,10,7,2,2024-10-20_15h03.44.445,uWM_experiment,2022.2.3,59.99142123
,,,,,,,,,,,,,,,,,,,,4,0,4,0,9,0,9,0,,,,,,,,,,,,,,,,,,,,,,,,,,,,,,,,,,,,,,,,,,,,,,,,,,,,,,,,,,,,,,,,,,,,,,0.005,,,,,,,,,,,,,,,,,,,,,,,,,,,,left,1,40,-30,10,1,1388.160896,1388.160896,1388.160896,None,None,1,1,1.4785981,,,,,,,,,,,,,,,,,,,,,,10,7,2,2024-10-20_15h03.44.445,uWM_experiment,2022.2.3,59.99142123
,,,,,,,,,,,,,,,,,,,,4,0,4,0,10,0,10,0,,,,,,,,,,,,,,,,,,,,,,,,,,,,,,,,,,,,,,,,,,,,,,,,,,,,,,,,,,,,,,,,,,,,,,0.015,,,,,,,,,,,,,,,,,,,,,,,,,,,,right,1,100,30,130,1,1395.861218,1395.861218,1395.861218,None,None,1,1,1.1541548,,,,,,,,,,,,,,,,,,,,,,10,7,2,2024-10-20_15h03.44.445,uWM_experiment,2022.2.3,59.99142123
,,,,,,,,,,,,,,,,,,,,4,0,4,0,11,0,11,0,,,,,,,,,,,,,,,,,,,,,,,,,,,,,,,,,,,,,,,,,,,,,,,,,,,,,,,,,,,,,,,,,,,,,,0.025,,,,,,,,,,,,,,,,,,,,,,,,,,,,left,0,40,30,70,1,1404.344907,1404.344907,1404.344907,None,None,2,0,0.6945662,,,,,,,,,,,,,,,,,,,,,,10,7,2,2024-10-20_15h03.44.445,uWM_experiment,2022.2.3,59.99142123
,,,,,,,,,,,,,,,,,,,,4,0,4,0,12,0,12,0,,,,,,,,,,,,,,,,,,,,,,,,,,,,,,,,,,,,,,,,,,,,,,,,,,,,,,,,,,,,,,,,,,,,,,0.015,,,,,,,,,,,,,,,,,,,,,,,,,,,,left,0,100,30,130,1,1411.79519,1411.79519,1411.79519,None,None,2,0,0.532304,,,,,,,,,,,,,,,,,,,,,,10,7,2,2024-10-20_15h03.44.445,uWM_experiment,2022.2.3,59.99142123
,,,,,,,,,,,,,,,,,,,,4,0,4,0,13,0,13,0,,,,,,,,,,,,,,,,,,,,,,,,,,,,,,,,,,,,,,,,,,,,,,,,,,,,,,,,,,,,,,,,,,,,,,0.005,,,,,,,,,,,,,,,,,,,,,,,,,,,,right,1,130,30,160,1,1418.228801,1418.228801,1418.228801,None,None,3,0,1.2985931,,,,,,,,,,,,,,,,,,,,,,10,7,2,2024-10-20_15h03.44.445,uWM_experiment,2022.2.3,59.99142123
,,,,,,,,,,,,,,,,,,,,4,0,4,0,14,0,14,0,,,,,,,,,,,,,,,,,,,,,,,,,,,,,,,,,,,,,,,,,,,,,,,,,,,,,,,,,,,,,,,,,,,,,,0.005,,,,,,,,,,,,,,,,,,,,,,,,,,,,left,1,160,-30,130,1,1425.112406,1425.112406,1425.112406,None,None,1,1,0.4790078,,,,,,,,,,,,,,,,,,,,,,10,7,2,2024-10-20_15h03.44.445,uWM_experiment,2022.2.3,59.99142123
,,,,,,,,,,,,,,,,,,,,4,0,4,0,15,0,15,0,,,,,,,,,,,,,,,,,,,,,,,,,,,,,,,,,,,,,,,,,,,,,,,,,,,,,,,,,,,,,,,,,,,,,,0,,,,,,,,,,,,,,,,,,,,,,,,,,,,left,0,160,30,190,0,1431.545998,1431.545998,1431.545998,None,None,2,0,0.589269,,,,,,,,,,,,,,,,,,,,,,10,7,2,2024-10-20_15h03.44.445,uWM_experiment,2022.2.3,59.99142123
,,,,,,,,,,,,,,,,,,,,4,0,4,0,16,0,16,0,,,,,,,,,,,,,,,,,,,,,,,,,,,,,,,,,,,,,,,,,,,,,,,,,,,,,,,,,,,,,,,,,,,,,,0.015,,,,,,,,,,,,,,,,,,,,,,,,,,,,left,0,70,30,100,1,1438.062934,1438.062934,1438.062934,None,None,2,0,0.6243738,,,,,,,,,,,,,,,,,,,,,,10,7,2,2024-10-20_15h03.44.445,uWM_experiment,2022.2.3,59.99142123
,,,,,,,,,,,,,,,,,,,,4,0,4,0,17,0,17,0,,,,,,,,,,,,,,,,,,,,,,,,,,,,,,,,,,,,,,,,,,,,,,,,,,,,,,,,,,,,,,,,,,,,,,0.005,,,,,,,,,,,,,,,,,,,,,,,,,,,,left,0,10,30,40,1,1444.829872,1444.829872,1444.829872,None,None,2,0,0.4336022,,,,,,,,,,,,,,,,,,,,,,10,7,2,2024-10-20_15h03.44.445,uWM_experiment,2022.2.3,59.99142123
,,,,,,,,,,,,,,,,,,,,4,0,4,0,18,0,18,0,,,,,,,,,,,,,,,,,,,,,,,,,,,,,,,,,,,,,,,,,,,,,,,,,,,,,,,,,,,,,,,,,,,,,,0,,,,,,,,,,,,,,,,,,,,,,,,,,,,left,0,10,30,40,0,1452.446864,1452.446864,1452.446864,None,None,2,0,1.6244053,,,,,,,,,,,,,,,,,,,,,,10,7,2,2024-10-20_15h03.44.445,uWM_experiment,2022.2.3,59.99142123
,,,,,,,,,,,,,,,,,,,,4,0,4,0,19,0,19,0,,,,,,,,,,,,,,,,,,,,,,,,,,,,,,,,,,,,,,,,,,,,,,,,,,,,,,,,,,,,,,,,,,,,,,0.005,,,,,,,,,,,,,,,,,,,,,,,,,,,,left,0,70,30,100,1,1460.013825,1460.013825,1460.013825,None,None,2,0,0.8494555,,,,,,,,,,,,,,,,,,,,,,10,7,2,2024-10-20_15h03.44.445,uWM_experiment,2022.2.3,59.99142123
,,,,,,,,,,,,,,,,,,,,4,0,4,0,20,0,20,0,,,,,,,,,,,,,,,,,,,,,,,,,,,,,,,,,,,,,,,,,,,,,,,,,,,,,,,,,,,,,,,,,,,,,,0.005,,,,,,,,,,,,,,,,,,,,,,,,,,,,left,1,100,-30,70,1,1468.947526,1468.947526,1468.947526,None,None,2,0,1.0997113,,,,,,,,,,,,,,,,,,,,,,10,7,2,2024-10-20_15h03.44.445,uWM_experiment,2022.2.3,59.99142123
,,,,,,,,,,,,,,,,,,,,4,0,4,0,21,0,21,0,,,,,,,,,,,,,,,,,,,,,,,,,,,,,,,,,,,,,,,,,,,,,,,,,,,,,,,,,,,,,,,,,,,,,,0.005,,,,,,,,,,,,,,,,,,,,,,,,,,,,right,0,10,-30,-20,1,1482.014743,1482.014743,1482.014743,None,None,2,0,1.1604685,,,,,,,,,,,,,,,,,,,,,,10,7,2,2024-10-20_15h03.44.445,uWM_experiment,2022.2.3,59.99142123
,,,,,,,,,,,,,,,,,,,,4,0,4,0,22,0,22,0,,,,,,,,,,,,,,,,,,,,,,,,,,,,,,,,,,,,,,,,,,,,,,,,,,,,,,,,,,,,,,,,,,,,,,0,,,,,,,,,,,,,,,,,,,,,,,,,,,,left,1,160,-30,130,0,1489.381691,1489.381691,1489.381691,None,None,2,0,0.8575444,,,,,,,,,,,,,,,,,,,,,,10,7,2,2024-10-20_15h03.44.445,uWM_experiment,2022.2.3,59.99142123
,,,,,,,,,,,,,,,,,,,,4,0,4,0,23,0,23,0,,,,,,,,,,,,,,,,,,,,,,,,,,,,,,,,,,,,,,,,,,,,,,,,,,,,,,,,,,,,,,,,,,,,,,0,,,,,,,,,,,,,,,,,,,,,,,,,,,,right,1,100,30,130,0,1496.648649,1496.648649,1496.648649,None,None,2,0,1.2224095,,,,,,,,,,,,,,,,,,,,,,10,7,2,2024-10-20_15h03.44.445,uWM_experiment,2022.2.3,59.99142123
,,,,,,,,,,,,,,,,,,,,4,0,4,0,,,,,0,0,0,0,,,,,,,,,,,,,,,,,,,,,,,,,,,,,,,,,,,,,,,,,,,,,,,,,,,,,,,,,,,,,,,,,,,,,,,,,,,,,,,,,,,,,,,,,,,,,,,,,,,,,,,,,,,,1497.898696,1497.898696,space,38.7883426,None,None,,,,,,,,,,,,,,,,10,7,2,2024-10-20_15h03.44.445,uWM_experiment,2022.2.3,59.99142123
,,,,,,,,,,,,,,,,,,,,4,0,4,0,,,,,1,0,1,0,,,,,,,,,,,,,,,,,,,,,,,,,,,,,,,,,,,,,,,,,,,,,,,,,,,,,,,,,,,,,,,,,,,,,,,,,,,,,,,,,,,,,,,,,,,,,,,,,,,,,,,,,,,,,,,,,,,,,,,,,,,,,,,,,10,7,2,2024-10-20_15h03.44.445,uWM_experiment,2022.2.3,59.99142123
,,,,,,,,,,,,,,,,,,,,4,0,4,0,,,,,2,0,2,0,,,,,,,,,,,,,,,,,,,,,,,,,,,,,,,,,,,,,,,,,,,,,,,,,,,,,,,,,,,,,,,,,,,,,,,,,,,,,,,,,,,,,,,,,,,,,,,,,,,,,,,,,,,,,,,,,,,,,,,,,,,,,,,,,10,7,2,2024-10-20_15h03.44.445,uWM_experiment,2022.2.3,59.99142123
,,,,,,,,,,,,,,,,,,,,5,0,5,0,0,0,0,0,,,,,,,,,,,,,,,,,,,,,,,,,,,,,,,,,,,,,,,,,,,,,,,,,,,,,,,,,,,,,,,,,,,,,,0,,,,,,,,,,,,,,,,,,,,1536.716956,1537.416975,1537.716992,1538.417012,1538.717033,1539.41706,1539.41706,1539.733748,left,1,130,-30,100,0,1544.333935,1544.333935,1544.333935,None,None,1,1,0.5370063,,,,,,,None,,,,,,,,,,,,,,,10,7,2,2024-10-20_15h03.44.445,uWM_experiment,2022.2.3,59.99142123
,,,,,,,,,,,,,,,,,,,,5,0,5,0,1,0,1,0,,,,,,,,,,,,,,,,,,,,,,,,,,,,,,,,,,,,,,,,,,,,,,,,,,,,,,,,,,,,,,,,,,,,,,0.005,,,,,,,,,,,,,,,,,,,,,,,,,,,,left,1,10,-30,-20,1,1550.917535,1550.917535,1550.917535,None,None,2,0,0.4173442,,,,,,,,,,,,,,,,,,,,,,10,7,2,2024-10-20_15h03.44.445,uWM_experiment,2022.2.3,59.99142123
,,,,,,,,,,,,,,,,,,,,5,0,5,0,2,0,2,0,,,,,,,,,,,,,,,,,,,,,,,,,,,,,,,,,,,,,,,,,,,,,,,,,,,,,,,,,,,,,,,,,,,,,,0.1,,,,,,,,,,,,,,,,,,,,,,,,,,,,left,1,130,-30,100,2,1557.834485,1557.834485,1557.834485,None,None,4,0,0.6364386,,,,,,,,,,,,,,,,,,,,,,10,7,2,2024-10-20_15h03.44.445,uWM_experiment,2022.2.3,59.99142123
,,,,,,,,,,,,,,,,,,,,5,0,5,0,3,0,3,0,,,,,,,,,,,,,,,,,,,,,,,,,,,,,,,,,,,,,,,,,,,,,,,,,,,,,,,,,,,,,,,,,,,,,,0.005,,,,,,,,,,,,,,,,,,,,,,,,,,,,left,1,100,-30,70,1,1565.018111,1565.018111,1565.018111,None,None,3,0,1.5487671,,,,,,,,,,,,,,,,,,,,,,10,7,2,2024-10-20_15h03.44.445,uWM_experiment,2022.2.3,59.99142123
,,,,,,,,,,,,,,,,,,,,5,0,5,0,4,0,4,0,,,,,,,,,,,,,,,,,,,,,,,,,,,,,,,,,,,,,,,,,,,,,,,,,,,,,,,,,,,,,,,,,,,,,,0.005,,,,,,,,,,,,,,,,,,,,,,,,,,,,right,1,130,30,160,1,1573.018457,1573.018457,1573.018457,None,None,1,1,1.268403,,,,,,,,,,,,,,,,,,,,,,10,7,2,2024-10-20_15h03.44.445,uWM_experiment,2022.2.3,59.99142123
,,,,,,,,,,,,,,,,,,,,5,0,5,0,5,0,5,0,,,,,,,,,,,,,,,,,,,,,,,,,,,,,,,,,,,,,,,,,,,,,,,,,,,,,,,,,,,,,,,,,,,,,,0,,,,,,,,,,,,,,,,,,,,,,,,,,,,left,0,40,30,70,0,1580.135383,1580.135383,1580.135383,None,None,2,0,0.5354633,,,,,,,,,,,,,,,,,,,,,,10,7,2,2024-10-20_15h03.44.445,uWM_experiment,2022.2.3,59.99142123
,,,,,,,,,,,,,,,,,,,,5,0,5,0,6,0,6,0,,,,,,,,,,,,,,,,,,,,,,,,,,,,,,,,,,,,,,,,,,,,,,,,,,,,,,,,,,,,,,,,,,,,,,0.015,,,,,,,,,,,,,,,,,,,,,,,,,,,,right,1,160,30,190,1,1586.668993,1586.668993,1586.668993,None,None,2,0,0.5537825,,,,,,,,,,,,,,,,,,,,,,10,7,2,2024-10-20_15h03.44.445,uWM_experiment,2022.2.3,59.99142123
,,,,,,,,,,,,,,,,,,,,5,0,5,0,7,0,7,0,,,,,,,,,,,,,,,,,,,,,,,,,,,,,,,,,,,,,,,,,,,,,,,,,,,,,,,,,,,,,,,,,,,,,,0.005,,,,,,,,,,,,,,,,,,,,,,,,,,,,left,0,70,30,100,1,1593.069264,1593.069264,1593.069264,None,None,2,0,0.3855042,,,,,,,,,,,,,,,,,,,,,,10,7,2,2024-10-20_15h03.44.445,uWM_experiment,2022.2.3,59.99142123
,,,,,,,,,,,,,,,,,,,,5,0,5,0,8,0,8,0,,,,,,,,,,,,,,,,,,,,,,,,,,,,,,,,,,,,,,,,,,,,,,,,,,,,,,,,,,,,,,,,,,,,,,0.005,,,,,,,,,,,,,,,,,,,,,,,,,,,,left,0,160,30,190,1,1599.802874,1599.802874,1599.802874,None,None,1,1,0.7878527,,,,,,,,,,,,,,,,,,,,,,10,7,2,2024-10-20_15h03.44.445,uWM_experiment,2022.2.3,59.99142123
,,,,,,,,,,,,,,,,,,,,5,0,5,0,9,0,9,0,,,,,,,,,,,,,,,,,,,,,,,,,,,,,,,,,,,,,,,,,,,,,,,,,,,,,,,,,,,,,,,,,,,,,,0.015,,,,,,,,,,,,,,,,,,,,,,,,,,,,right,1,100,30,130,1,1607.419847,1607.419847,1607.419847,None,None,3,0,2.8670075,,,,,,,,,,,,,,,,,,,,,,10,7,2,2024-10-20_15h03.44.445,uWM_experiment,2022.2.3,59.99142123
,,,,,,,,,,,,,,,,,,,,5,0,5,0,10,0,10,0,,,,,,,,,,,,,,,,,,,,,,,,,,,,,,,,,,,,,,,,,,,,,,,,,,,,,,,,,,,,,,,,,,,,,,0,,,,,,,,,,,,,,,,,,,,,,,,,,,,left,0,10,30,40,0,1616.453533,1616.453533,1616.453533,None,None,2,0,0.817176,,,,,,,,,,,,,,,,,,,,,,10,7,2,2024-10-20_15h03.44.445,uWM_experiment,2022.2.3,59.99142123
,,,,,,,,,,,,,,,,,,,,5,0,5,0,11,0,11,0,,,,,,,,,,,,,,,,,,,,,,,,,,,,,,,,,,,,,,,,,,,,,,,,,,,,,,,,,,,,,,,,,,,,,,0.005,,,,,,,,,,,,,,,,,,,,,,,,,,,,left,1,70,-30,40,1,1625.153886,1625.153886,1625.153886,None,None,3,0,0.8047593,,,,,,,,,,,,,,,,,,,,,,10,7,2,2024-10-20_15h03.44.445,uWM_experiment,2022.2.3,59.99142123
,,,,,,,,,,,,,,,,,,,,5,0,5,0,12,0,12,0,,,,,,,,,,,,,,,,,,,,,,,,,,,,,,,,,,,,,,,,,,,,,,,,,,,,,,,,,,,,,,,,,,,,,,0.005,,,,,,,,,,,,,,,,,,,,,,,,,,,,left,1,160,-30,130,1,1632.354196,1632.354196,1632.354196,None,None,1,1,0.364589,,,,,,,,,,,,,,,,,,,,,,10,7,2,2024-10-20_15h03.44.445,uWM_experiment,2022.2.3,59.99142123
,,,,,,,,,,,,,,,,,,,,5,0,5,0,13,0,13,0,,,,,,,,,,,,,,,,,,,,,,,,,,,,,,,,,,,,,,,,,,,,,,,,,,,,,,,,,,,,,,,,,,,,,,0,,,,,,,,,,,,,,,,,,,,,,,,,,,,left,1,160,-30,130,0,1639.771178,1639.771178,1639.771178,None,None,1,1,0.7075708,,,,,,,,,,,,,,,,,,,,,,10,7,2,2024-10-20_15h03.44.445,uWM_experiment,2022.2.3,59.99142123
,,,,,,,,,,,,,,,,,,,,5,0,5,0,14,0,14,0,,,,,,,,,,,,,,,,,,,,,,,,,,,,,,,,,,,,,,,,,,,,,,,,,,,,,,,,,,,,,,,,,,,,,,0.015,,,,,,,,,,,,,,,,,,,,,,,,,,,,left,1,100,-30,70,1,1646.654795,1646.654795,1646.654795,None,None,2,0,1.0959363,,,,,,,,,,,,,,,,,,,,,,10,7,2,2024-10-20_15h03.44.445,uWM_experiment,2022.2.3,59.99142123
,,,,,,,,,,,,,,,,,,,,5,0,5,0,15,0,15,0,,,,,,,,,,,,,,,,,,,,,,,,,,,,,,,,,,,,,,,,,,,,,,,,,,,,,,,,,,,,,,,,,,,,,,0.005,,,,,,,,,,,,,,,,,,,,,,,,,,,,left,0,10,30,40,1,1654.288424,1654.288424,1654.288424,None,None,2,0,0.7821738,,,,,,,,,,,,,,,,,,,,,,10,7,2,2024-10-20_15h03.44.445,uWM_experiment,2022.2.3,59.99142123
,,,,,,,,,,,,,,,,,,,,5,0,5,0,16,0,16,0,,,,,,,,,,,,,,,,,,,,,,,,,,,,,,,,,,,,,,,,,,,,,,,,,,,,,,,,,,,,,,,,,,,,,,0.005,,,,,,,,,,,,,,,,,,,,,,,,,,,,right,0,10,-30,-20,1,1661.722061,1661.722061,1661.722061,None,None,2,0,0.740644,,,,,,,,,,,,,,,,,,,,,,10,7,2,2024-10-20_15h03.44.445,uWM_experiment,2022.2.3,59.99142123
,,,,,,,,,,,,,,,,,,,,5,0,5,0,17,0,17,0,,,,,,,,,,,,,,,,,,,,,,,,,,,,,,,,,,,,,,,,,,,,,,,,,,,,,,,,,,,,,,,,,,,,,,0.005,,,,,,,,,,,,,,,,,,,,,,,,,,,,left,0,40,30,70,1,1669.139052,1669.139052,1669.139052,None,None,2,0,0.5635687,,,,,,,,,,,,,,,,,,,,,,10,7,2,2024-10-20_15h03.44.445,uWM_experiment,2022.2.3,59.99142123
,,,,,,,,,,,,,,,,,,,,5,0,5,0,18,0,18,0,,,,,,,,,,,,,,,,,,,,,,,,,,,,,,,,,,,,,,,,,,,,,,,,,,,,,,,,,,,,,,,,,,,,,,0,,,,,,,,,,,,,,,,,,,,,,,,,,,,right,1,40,30,70,0,1676.689328,1676.689328,1676.689328,None,None,2,0,0.7011369,,,,,,,,,,,,,,,,,,,,,,10,7,2,2024-10-20_15h03.44.445,uWM_experiment,2022.2.3,59.99142123
,,,,,,,,,,,,,,,,,,,,5,0,5,0,19,0,19,0,,,,,,,,,,,,,,,,,,,,,,,,,,,,,,,,,,,,,,,,,,,,,,,,,,,,,,,,,,,,,,,,,,,,,,0.1,,,,,,,,,,,,,,,,,,,,,,,,,,,,left,0,10,30,40,2,1684.806324,1684.806324,1684.806324,None,None,4,0,0.73615,,,,,,,,,,,,,,,,,,,,,,10,7,2,2024-10-20_15h03.44.445,uWM_experiment,2022.2.3,59.99142123
,,,,,,,,,,,,,,,,,,,,5,0,5,0,20,0,20,0,,,,,,,,,,,,,,,,,,,,,,,,,,,,,,,,,,,,,,,,,,,,,,,,,,,,,,,,,,,,,,,,,,,,,,0.005,,,,,,,,,,,,,,,,,,,,,,,,,,,,right,1,40,30,70,1,1691.889968,1691.889968,1691.889968,None,None,2,0,0.7724584,,,,,,,,,,,,,,,,,,,,,,10,7,2,2024-10-20_15h03.44.445,uWM_experiment,2022.2.3,59.99142123
,,,,,,,,,,,,,,,,,,,,5,0,5,0,21,0,21,0,,,,,,,,,,,,,,,,,,,,,,,,,,,,,,,,,,,,,,,,,,,,,,,,,,,,,,,,,,,,,,,,,,,,,,0.005,,,,,,,,,,,,,,,,,,,,,,,,,,,,right,1,130,30,160,1,1698.790238,1698.790238,1698.790238,None,None,2,0,1.0402967,,,,,,,,,,,,,,,,,,,,,,10,7,2,2024-10-20_15h03.44.445,uWM_experiment,2022.2.3,59.99142123
,,,,,,,,,,,,,,,,,,,,5,0,5,0,22,0,22,0,,,,,,,,,,,,,,,,,,,,,,,,,,,,,,,,,,,,,,,,,,,,,,,,,,,,,,,,,,,,,,,,,,,,,,0.005,,,,,,,,,,,,,,,,,,,,,,,,,,,,right,1,130,30,160,1,1705.790527,1705.790527,1705.790527,None,None,1,1,0.8639109,,,,,,,,,,,,,,,,,,,,,,10,7,2,2024-10-20_15h03.44.445,uWM_experiment,2022.2.3,59.99142123
,,,,,,,,,,,,,,,,,,,,5,0,5,0,23,0,23,0,,,,,,,,,,,,,,,,,,,,,,,,,,,,,,,,,,,,,,,,,,,,,,,,,,,,,,,,,,,,,,,,,,,,,,0,,,,,,,,,,,,,,,,,,,,,,,,,,,,right,1,130,30,160,0,1712.540816,1712.540816,1712.540816,None,None,1,1,0.9056252,,,,,,,,,,,,,,,,,,,,,,10,7,2,2024-10-20_15h03.44.445,uWM_experiment,2022.2.3,59.99142123
,,,,,,,,,,,,,,,,,,,,5,0,5,0,,,,,0,0,0,0,,,,,,,,,,,,,,,,,,,,,,,,,,,,,,,,,,,,,,,,,,,,,,,,,,,,,,,,,,,,,,,,,,,,,,,,,,,,,,,,,,,,,,,,,,,,,,,,,,,,,,,,,,,,1713.474145,1713.474145,space,121.2199353,space,None,,1834.712457,1834.712457,13.1495629,,,,,,,,,,,,10,7,2,2024-10-20_15h03.44.445,uWM_experiment,2022.2.3,59.99142123
,,,,,,,,,,,,,,,,,,,,5,0,5,0,,,,,1,0,1,0,,,,,,,,,,,,,,,,,,,,,,,,,,,,,,,,,,,,,,,,,,,,,,,,,,,,,,,,,,,,,,,,,,,,,,,,,,,,,,,,,,,,,,,,,,,,,,,,,,,,,,,,,,,,,,,,,,,,,,,,,,,,,,,,,10,7,2,2024-10-20_15h03.44.445,uWM_experiment,2022.2.3,59.99142123
,,,,,,,,,,,,,,,,,,,,5,0,5,0,,,,,2,0,2,0,,,,,,,,,,,,,,,,,,,,,,,,,,,,,,,,,,,,,,,,,,,,,,,,,,,,,,,,,,,,,,,,,,,,,,,,,,,,,,,,,,,,,,,,,,,,,,,,,,,,,,,,,,,,,,,,,,,,,,,,,,,,,,,,,10,7,2,2024-10-20_15h03.44.445,uWM_experiment,2022.2.3,59.99142123
,,,,,,,,,,,,,,,,,,,,6,0,6,0,0,0,0,0,,,,,,,,,,,,,,,,,,,,,,,,,,,,,,,,,,,,,,,,,,,,,,,,,,,,,,,,,,,,,,,,,,,,,,0,,,,,,,,,,,,,,,,,,,,1847.879662,1848.579686,1848.879697,1849.579727,1849.879737,1850.579768,1850.579768,1850.896458,left,1,70,-30,40,0,1858.563437,1858.563437,1858.563437,None,None,1,1,0.7544746,,,,,,,None,,,,,,,,,,,,,,,10,7,2,2024-10-20_15h03.44.445,uWM_experiment,2022.2.3,59.99142123
,,,,,,,,,,,,,,,,,,,,6,0,6,0,1,0,1,0,,,,,,,,,,,,,,,,,,,,,,,,,,,,,,,,,,,,,,,,,,,,,,,,,,,,,,,,,,,,,,,,,,,,,,0.015,,,,,,,,,,,,,,,,,,,,,,,,,,,,left,0,10,30,40,1,1865.330363,1865.330363,1865.330363,None,None,1,1,1.1796819,,,,,,,,,,,,,,,,,,,,,,10,7,2,2024-10-20_15h03.44.445,uWM_experiment,2022.2.3,59.99142123
,,,,,,,,,,,,,,,,,,,,6,0,6,0,2,0,2,0,,,,,,,,,,,,,,,,,,,,,,,,,,,,,,,,,,,,,,,,,,,,,,,,,,,,,,,,,,,,,,,,,,,,,,0,,,,,,,,,,,,,,,,,,,,,,,,,,,,right,1,100,30,130,0,1872.480662,1872.480662,1872.480662,None,None,1,1,0.7573345,,,,,,,,,,,,,,,,,,,,,,10,7,2,2024-10-20_15h03.44.445,uWM_experiment,2022.2.3,59.99142123
,,,,,,,,,,,,,,,,,,,,6,0,6,0,3,0,3,0,,,,,,,,,,,,,,,,,,,,,,,,,,,,,,,,,,,,,,,,,,,,,,,,,,,,,,,,,,,,,,,,,,,,,,0.025,,,,,,,,,,,,,,,,,,,,,,,,,,,,right,1,130,30,160,1,1879.164269,1879.164269,1879.164269,None,None,2,0,0.9617519,,,,,,,,,,,,,,,,,,,,,,10,7,2,2024-10-20_15h03.44.445,uWM_experiment,2022.2.3,59.99142123
,,,,,,,,,,,,,,,,,,,,6,0,6,0,4,0,4,0,,,,,,,,,,,,,,,,,,,,,,,,,,,,,,,,,,,,,,,,,,,,,,,,,,,,,,,,,,,,,,,,,,,,,,0,,,,,,,,,,,,,,,,,,,,,,,,,,,,left,0,40,30,70,0,1885.931236,1885.931236,1885.931236,None,None,2,0,0.554627,,,,,,,,,,,,,,,,,,,,,,10,7,2,2024-10-20_15h03.44.445,uWM_experiment,2022.2.3,59.99142123
,,,,,,,,,,,,,,,,,,,,6,0,6,0,5,0,5,0,,,,,,,,,,,,,,,,,,,,,,,,,,,,,,,,,,,,,,,,,,,,,,,,,,,,,,,,,,,,,,,,,,,,,,0.015,,,,,,,,,,,,,,,,,,,,,,,,,,,,left,1,130,-30,100,1,1893.064837,1893.064837,1893.064837,None,None,2,0,0.5090562,,,,,,,,,,,,,,,,,,,,,,10,7,2,2024-10-20_15h03.44.445,uWM_experiment,2022.2.3,59.99142123
,,,,,,,,,,,,,,,,,,,,6,0,6,0,6,0,6,0,,,,,,,,,,,,,,,,,,,,,,,,,,,,,,,,,,,,,,,,,,,,,,,,,,,,,,,,,,,,,,,,,,,,,,0.1,,,,,,,,,,,,,,,,,,,,,,,,,,,,left,1,100,-30,70,2,1899.915159,1899.915159,1899.915159,None,None,4,0,0.5627683,,,,,,,,,,,,,,,,,,,,,,10,7,2,2024-10-20_15h03.44.445,uWM_experiment,2022.2.3,59.99142123
,,,,,,,,,,,,,,,,,,,,6,0,6,0,7,0,7,0,,,,,,,,,,,,,,,,,,,,,,,,,,,,,,,,,,,,,,,,,,,,,,,,,,,,,,,,,,,,,,,,,,,,,,0.005,,,,,,,,,,,,,,,,,,,,,,,,,,,,right,0,160,-30,130,1,1906.332065,1906.332065,1906.332065,None,None,3,0,0.6578381,,,,,,,,,,,,,,,,,,,,,,10,7,2,2024-10-20_15h03.44.445,uWM_experiment,2022.2.3,59.99142123
,,,,,,,,,,,,,,,,,,,,6,0,6,0,8,0,8,0,,,,,,,,,,,,,,,,,,,,,,,,,,,,,,,,,,,,,,,,,,,,,,,,,,,,,,,,,,,,,,,,,,,,,,0,,,,,,,,,,,,,,,,,,,,,,,,,,,,right,0,40,-30,10,0,1914.182389,1914.182389,1914.182389,None,None,2,0,1.4713413,,,,,,,,,,,,,,,,,,,,,,10,7,2,2024-10-20_15h03.44.445,uWM_experiment,2022.2.3,59.99142123
,,,,,,,,,,,,,,,,,,,,6,0,6,0,9,0,9,0,,,,,,,,,,,,,,,,,,,,,,,,,,,,,,,,,,,,,,,,,,,,,,,,,,,,,,,,,,,,,,,,,,,,,,0.005,,,,,,,,,,,,,,,,,,,,,,,,,,,,right,0,10,-30,-20,1,1922.63275,1922.63275,1922.63275,None,None,2,0,0.4849746,,,,,,,,,,,,,,,,,,,,,,10,7,2,2024-10-20_15h03.44.445,uWM_experiment,2022.2.3,59.99142123
,,,,,,,,,,,,,,,,,,,,6,0,6,0,10,0,10,0,,,,,,,,,,,,,,,,,,,,,,,,,,,,,,,,,,,,,,,,,,,,,,,,,,,,,,,,,,,,,,,,,,,,,,0.005,,,,,,,,,,,,,,,,,,,,,,,,,,,,right,1,70,30,100,1,1929.516342,1929.516342,1929.516342,None,None,2,0,0.7614799,,,,,,,,,,,,,,,,,,,,,,10,7,2,2024-10-20_15h03.44.445,uWM_experiment,2022.2.3,59.99142123
,,,,,,,,,,,,,,,,,,,,6,0,6,0,11,0,11,0,,,,,,,,,,,,,,,,,,,,,,,,,,,,,,,,,,,,,,,,,,,,,,,,,,,,,,,,,,,,,,,,,,,,,,0.005,,,,,,,,,,,,,,,,,,,,,,,,,,,,right,1,70,30,100,1,1936.91665,1936.91665,1936.91665,None,None,2,0,0.6650887,,,,,,,,,,,,,,,,,,,,,,10,7,2,2024-10-20_15h03.44.445,uWM_experiment,2022.2.3,59.99142123
,,,,,,,,,,,,,,,,,,,,6,0,6,0,12,0,12,0,,,,,,,,,,,,,,,,,,,,,,,,,,,,,,,,,,,,,,,,,,,,,,,,,,,,,,,,,,,,,,,,,,,,,,0.005,,,,,,,,,,,,,,,,,,,,,,,,,,,,right,0,130,-30,100,1,1943.900252,1943.900252,1943.900252,None,None,2,0,0.5615385,,,,,,,,,,,,,,,,,,,,,,10,7,2,2024-10-20_15h03.44.445,uWM_experiment,2022.2.3,59.99142123
,,,,,,,,,,,,,,,,,,,,6,0,6,0,13,0,13,0,,,,,,,,,,,,,,,,,,,,,,,,,,,,,,,,,,,,,,,,,,,,,,,,,,,,,,,,,,,,,,,,,,,,,,0.005,,,,,,,,,,,,,,,,,,,,,,,,,,,,right,1,130,30,160,1,1950.617177,1950.617177,1950.617177,None,None,2,0,0.5884219,,,,,,,,,,,,,,,,,,,,,,10,7,2,2024-10-20_15h03.44.445,uWM_experiment,2022.2.3,59.99142123
,,,,,,,,,,,,,,,,,,,,6,0,6,0,14,0,14,0,,,,,,,,,,,,,,,,,,,,,,,,,,,,,,,,,,,,,,,,,,,,,,,,,,,,,,,,,,,,,,,,,,,,,,0.005,,,,,,,,,,,,,,,,,,,,,,,,,,,,right,1,70,30,100,1,1960.300944,1960.300944,1960.300944,None,None,2,0,4.8407619,,,,,,,,,,,,,,,,,,,,,,10,7,2,2024-10-20_15h03.44.445,uWM_experiment,2022.2.3,59.99142123
,,,,,,,,,,,,,,,,,,,,6,0,6,0,15,0,15,0,,,,,,,,,,,,,,,,,,,,,,,,,,,,,,,,,,,,,,,,,,,,,,,,,,,,,,,,,,,,,,,,,,,,,,0.005,,,,,,,,,,,,,,,,,,,,,,,,,,,,right,0,160,-30,130,1,1971.551401,1971.551401,1971.551401,None,None,2,0,1.1341993,,,,,,,,,,,,,,,,,,,,,,10,7,2,2024-10-20_15h03.44.445,uWM_experiment,2022.2.3,59.99142123
,,,,,,,,,,,,,,,,,,,,6,0,6,0,16,0,16,0,,,,,,,,,,,,,,,,,,,,,,,,,,,,,,,,,,,,,,,,,,,,,,,,,,,,,,,,,,,,,,,,,,,,,,0,,,,,,,,,,,,,,,,,,,,,,,,,,,,left,1,130,-30,100,0,1979.085039,1979.085039,1979.085039,None,None,3,0,1.0884913,,,,,,,,,,,,,,,,,,,,,,10,7,2,2024-10-20_15h03.44.445,uWM_experiment,2022.2.3,59.99142123
,,,,,,,,,,,,,,,,,,,,6,0,6,0,17,0,17,0,,,,,,,,,,,,,,,,,,,,,,,,,,,,,,,,,,,,,,,,,,,,,,,,,,,,,,,,,,,,,,,,,,,,,,0,,,,,,,,,,,,,,,,,,,,,,,,,,,,left,1,100,-30,70,0,1986.452013,1986.452013,1986.452013,None,None,2,0,2.0816243,,,,,,,,,,,,,,,,,,,,,,10,7,2,2024-10-20_15h03.44.445,uWM_experiment,2022.2.3,59.99142123
,,,,,,,,,,,,,,,,,,,,6,0,6,0,18,0,18,0,,,,,,,,,,,,,,,,,,,,,,,,,,,,,,,,,,,,,,,,,,,,,,,,,,,,,,,,,,,,,,,,,,,,,,0.005,,,,,,,,,,,,,,,,,,,,,,,,,,,,right,0,70,-30,40,1,1994.835678,1994.835678,1994.835678,None,None,1,1,1.5779248,,,,,,,,,,,,,,,,,,,,,,10,7,2,2024-10-20_15h03.44.445,uWM_experiment,2022.2.3,59.99142123
,,,,,,,,,,,,,,,,,,,,6,0,6,0,19,0,19,0,,,,,,,,,,,,,,,,,,,,,,,,,,,,,,,,,,,,,,,,,,,,,,,,,,,,,,,,,,,,,,,,,,,,,,0,,,,,,,,,,,,,,,,,,,,,,,,,,,,right,0,70,-30,40,0,2002.236,2002.236,2002.236,None,None,1,1,1.1054282,,,,,,,,,,,,,,,,,,,,,,10,7,2,2024-10-20_15h03.44.445,uWM_experiment,2022.2.3,59.99142123
,,,,,,,,,,,,,,,,,,,,6,0,6,0,20,0,20,0,,,,,,,,,,,,,,,,,,,,,,,,,,,,,,,,,,,,,,,,,,,,,,,,,,,,,,,,,,,,,,,,,,,,,,0,,,,,,,,,,,,,,,,,,,,,,,,,,,,left,1,40,-30,10,0,2009.552934,2009.552934,2009.552934,None,None,2,0,1.284523,,,,,,,,,,,,,,,,,,,,,,10,7,2,2024-10-20_15h03.44.445,uWM_experiment,2022.2.3,59.99142123
,,,,,,,,,,,,,,,,,,,,6,0,6,0,21,0,21,0,,,,,,,,,,,,,,,,,,,,,,,,,,,,,,,,,,,,,,,,,,,,,,,,,,,,,,,,,,,,,,,,,,,,,,0.015,,,,,,,,,,,,,,,,,,,,,,,,,,,,left,1,160,-30,130,1,2017.536594,2017.536594,2017.536594,None,None,2,0,1.012939,,,,,,,,,,,,,,,,,,,,,,10,7,2,2024-10-20_15h03.44.445,uWM_experiment,2022.2.3,59.99142123
,,,,,,,,,,,,,,,,,,,,6,0,6,0,22,0,22,0,,,,,,,,,,,,,,,,,,,,,,,,,,,,,,,,,,,,,,,,,,,,,,,,,,,,,,,,,,,,,,,,,,,,,,0.005,,,,,,,,,,,,,,,,,,,,,,,,,,,,right,1,160,30,190,1,2025.30357,2025.30357,2025.30357,None,None,2,0,0.9660048,,,,,,,,,,,,,,,,,,,,,,10,7,2,2024-10-20_15h03.44.445,uWM_experiment,2022.2.3,59.99142123
,,,,,,,,,,,,,,,,,,,,6,0,6,0,23,0,23,0,,,,,,,,,,,,,,,,,,,,,,,,,,,,,,,,,,,,,,,,,,,,,,,,,,,,,,,,,,,,,,,,,,,,,,0.005,,,,,,,,,,,,,,,,,,,,,,,,,,,,left,0,10,30,40,1,2032.587207,2032.587207,2032.587207,None,None,2,0,1.6983015,,,,,,,,,,,,,,,,,,,,,,10,7,2,2024-10-20_15h03.44.445,uWM_experiment,2022.2.3,59.99142123
,,,,,,,,,,,,,,,,,,,,6,0,6,0,,,,,0,0,0,0,,,,,,,,,,,,,,,,,,,,,,,,,,,,,,,,,,,,,,,,,,,,,,,,,,,,,,,,,,,,,,,,,,,,,,,,,,,,,,,,,,,,,,,,,,,,,,,,,,,,,,,,,,,,2034.303927,2034.303927,space,204.0369231,None,space,,,,,2238.362258,2238.362258,6.8425673,,,,,,,,,10,7,2,2024-10-20_15h03.44.445,uWM_experiment,2022.2.3,59.99142123
,,,,,,,,,,,,,,,,,,,,6,0,6,0,,,,,1,0,1,0,,,,,,,,,,,,,,,,,,,,,,,,,,,,,,,,,,,,,,,,,,,,,,,,,,,,,,,,,,,,,,,,,,,,,,,,,,,,,,,,,,,,,,,,,,,,,,,,,,,,,,,,,,,,,,,,,,,,,,,,,,,,,,,,,10,7,2,2024-10-20_15h03.44.445,uWM_experiment,2022.2.3,59.99142123
,,,,,,,,,,,,,,,,,,,,6,0,6,0,,,,,2,0,2,0,,,,,,,,,,,,,,,,,,,,,,,,,,,,,,,,,,,,,,,,,,,,,,,,,,,,,,,,,,,,,,,,,,,,,,,,,,,,,,,,,,,,,,,,,,,,,,,,,,,,,,,,,,,,,,,,,,,,,,,,,,,,,,,,,10,7,2,2024-10-20_15h03.44.445,uWM_experiment,2022.2.3,59.99142123
,,,,,,,,,,,,,,,,,,,,7,0,7,0,0,0,0,0,,,,,,,,,,,,,,,,,,,,,,,,,,,,,,,,,,,,,,,,,,,,,,,,,,,,,,,,,,,,,,,,,,,,,,0,,,,,,,,,,,,,,,,,,,,2262.529912,2263.229958,2263.513316,2264.21333,2264.513342,2265.213372,2265.213372,2265.530063,left,0,70,30,100,0,2270.796936,2270.796936,2270.796936,None,None,1,1,0.4238147,,,,,,,space,,,,,,,2253.87958,2253.87958,8.6291989,,,,,,10,7,2,2024-10-20_15h03.44.445,uWM_experiment,2022.2.3,59.99142123
,,,,,,,,,,,,,,,,,,,,7,0,7,0,1,0,1,0,,,,,,,,,,,,,,,,,,,,,,,,,,,,,,,,,,,,,,,,,,,,,,,,,,,,,,,,,,,,,,,,,,,,,,0.005,,,,,,,,,,,,,,,,,,,,,,,,,,,,right,0,160,-30,130,1,2277.63054,2277.63054,2277.63054,None,None,2,0,1.5501791,,,,,,,,,,,,,,,,,,,,,,10,7,2,2024-10-20_15h03.44.445,uWM_experiment,2022.2.3,59.99142123
,,,,,,,,,,,,,,,,,,,,7,0,7,0,2,0,2,0,,,,,,,,,,,,,,,,,,,,,,,,,,,,,,,,,,,,,,,,,,,,,,,,,,,,,,,,,,,,,,,,,,,,,,0.005,,,,,,,,,,,,,,,,,,,,,,,,,,,,left,1,70,-30,40,1,2285.080854,2285.080854,2285.080854,None,None,2,0,1.1798489,,,,,,,,,,,,,,,,,,,,,,10,7,2,2024-10-20_15h03.44.445,uWM_experiment,2022.2.3,59.99142123
,,,,,,,,,,,,,,,,,,,,7,0,7,0,3,0,3,0,,,,,,,,,,,,,,,,,,,,,,,,,,,,,,,,,,,,,,,,,,,,,,,,,,,,,,,,,,,,,,,,,,,,,,0,,,,,,,,,,,,,,,,,,,,,,,,,,,,right,1,100,30,130,0,2292.214482,2292.214482,2292.214482,None,None,2,0,0.9900739,,,,,,,,,,,,,,,,,,,,,,10,7,2,2024-10-20_15h03.44.445,uWM_experiment,2022.2.3,59.99142123
,,,,,,,,,,,,,,,,,,,,7,0,7,0,4,0,4,0,,,,,,,,,,,,,,,,,,,,,,,,,,,,,,,,,,,,,,,,,,,,,,,,,,,,,,,,,,,,,,,,,,,,,,0,,,,,,,,,,,,,,,,,,,,,,,,,,,,left,1,40,-30,10,0,2300.098142,2300.098142,2300.098142,None,None,2,0,0.8424503,,,,,,,,,,,,,,,,,,,,,,10,7,2,2024-10-20_15h03.44.445,uWM_experiment,2022.2.3,59.99142123
,,,,,,,,,,,,,,,,,,,,7,0,7,0,5,0,5,0,,,,,,,,,,,,,,,,,,,,,,,,,,,,,,,,,,,,,,,,,,,,,,,,,,,,,,,,,,,,,,,,,,,,,,0.005,,,,,,,,,,,,,,,,,,,,,,,,,,,,left,0,160,30,190,1,2306.898419,2306.898419,2306.898419,None,None,1,1,3.0262387,,,,,,,,,,,,,,,,,,,,,,10,7,2,2024-10-20_15h03.44.445,uWM_experiment,2022.2.3,59.99142123
,,,,,,,,,,,,,,,,,,,,7,0,7,0,6,0,6,0,,,,,,,,,,,,,,,,,,,,,,,,,,,,,,,,,,,,,,,,,,,,,,,,,,,,,,,,,,,,,,,,,,,,,,0,,,,,,,,,,,,,,,,,,,,,,,,,,,,left,1,100,-30,70,0,2317.332162,2317.332162,2317.332162,None,None,2,0,3.4643941,,,,,,,,,,,,,,,,,,,,,,10,7,2,2024-10-20_15h03.44.445,uWM_experiment,2022.2.3,59.99142123
,,,,,,,,,,,,,,,,,,,,7,0,7,0,7,0,7,0,,,,,,,,,,,,,,,,,,,,,,,,,,,,,,,,,,,,,,,,,,,,,,,,,,,,,,,,,,,,,,,,,,,,,,0.015,,,,,,,,,,,,,,,,,,,,,,,,,,,,right,1,40,30,70,1,2327.999286,2327.999286,2327.999286,None,None,2,0,1.0612828,,,,,,,,,,,,,,,,,,,,,,10,7,2,2024-10-20_15h03.44.445,uWM_experiment,2022.2.3,59.99142123
,,,,,,,,,,,,,,,,,,,,7,0,7,0,8,0,8,0,,,,,,,,,,,,,,,,,,,,,,,,,,,,,,,,,,,,,,,,,,,,,,,,,,,,,,,,,,,,,,,,,,,,,,0.005,,,,,,,,,,,,,,,,,,,,,,,,,,,,right,1,130,30,160,1,2335.466249,2335.466249,2335.466249,None,None,3,0,1.2182097,,,,,,,,,,,,,,,,,,,,,,10,7,2,2024-10-20_15h03.44.445,uWM_experiment,2022.2.3,59.99142123
,,,,,,,,,,,,,,,,,,,,7,0,7,0,9,0,9,0,,,,,,,,,,,,,,,,,,,,,,,,,,,,,,,,,,,,,,,,,,,,,,,,,,,,,,,,,,,,,,,,,,,,,,0.1,,,,,,,,,,,,,,,,,,,,,,,,,,,,left,0,100,30,130,2,2345.716656,2345.716656,2345.716656,None,None,3,0,0.9037521,,,,,,,,,,,,,,,,,,,,,,10,7,2,2024-10-20_15h03.44.445,uWM_experiment,2022.2.3,59.99142123
,,,,,,,,,,,,,,,,,,,,7,0,7,0,10,0,10,0,,,,,,,,,,,,,,,,,,,,,,,,,,,,,,,,,,,,,,,,,,,,,,,,,,,,,,,,,,,,,,,,,,,,,,0.005,,,,,,,,,,,,,,,,,,,,,,,,,,,,right,1,70,30,100,1,2356.050424,2356.050424,2356.050424,None,None,3,0,1.2019255,,,,,,,,,,,,,,,,,,,,,,10,7,2,2024-10-20_15h03.44.445,uWM_experiment,2022.2.3,59.99142123
,,,,,,,,,,,,,,,,,,,,7,0,7,0,11,0,11,0,,,,,,,,,,,,,,,,,,,,,,,,,,,,,,,,,,,,,,,,,,,,,,,,,,,,,,,,,,,,,,,,,,,,,,0,,,,,,,,,,,,,,,,,,,,,,,,,,,,right,1,100,30,130,0,2368.984307,2368.984307,2368.984307,None,None,2,0,0.7879791,,,,,,,,,,,,,,,,,,,,,,10,7,2,2024-10-20_15h03.44.445,uWM_experiment,2022.2.3,59.99142123
,,,,,,,,,,,,,,,,,,,,7,0,7,0,12,0,12,0,,,,,,,,,,,,,,,,,,,,,,,,,,,,,,,,,,,,,,,,,,,,,,,,,,,,,,,,,,,,,,,,,,,,,,0.005,,,,,,,,,,,,,,,,,,,,,,,,,,,,left,1,130,-30,100,1,2375.617883,2375.617883,2375.617883,None,None,2,0,1.7305264,,,,,,,,,,,,,,,,,,,,,,10,7,2,2024-10-20_15h03.44.445,uWM_experiment,2022.2.3,59.99142123
,,,,,,,,,,,,,,,,,,,,7,0,7,0,13,0,13,0,,,,,,,,,,,,,,,,,,,,,,,,,,,,,,,,,,,,,,,,,,,,,,,,,,,,,,,,,,,,,,,,,,,,,,0.005,,,,,,,,,,,,,,,,,,,,,,,,,,,,right,0,160,-30,130,1,2384.751607,2384.751607,2384.751607,None,None,2,0,0.668641,,,,,,,,,,,,,,,,,,,,,,10,7,2,2024-10-20_15h03.44.445,uWM_experiment,2022.2.3,59.99142123
,,,,,,,,,,,,,,,,,,,,7,0,7,0,14,0,14,0,,,,,,,,,,,,,,,,,,,,,,,,,,,,,,,,,,,,,,,,,,,,,,,,,,,,,,,,,,,,,,,,,,,,,,0.005,,,,,,,,,,,,,,,,,,,,,,,,,,,,right,0,130,-30,100,1,2391.451869,2391.451869,2391.451869,None,None,2,0,0.800501,,,,,,,,,,,,,,,,,,,,,,10,7,2,2024-10-20_15h03.44.445,uWM_experiment,2022.2.3,59.99142123
,,,,,,,,,,,,,,,,,,,,7,0,7,0,15,0,15,0,,,,,,,,,,,,,,,,,,,,,,,,,,,,,,,,,,,,,,,,,,,,,,,,,,,,,,,,,,,,,,,,,,,,,,0,,,,,,,,,,,,,,,,,,,,,,,,,,,,right,1,160,30,190,0,2399.302185,2399.302185,2399.302185,None,None,2,0,0.7900553,,,,,,,,,,,,,,,,,,,,,,10,7,2,2024-10-20_15h03.44.445,uWM_experiment,2022.2.3,59.99142123
,,,,,,,,,,,,,,,,,,,,7,0,7,0,16,0,16,0,,,,,,,,,,,,,,,,,,,,,,,,,,,,,,,,,,,,,,,,,,,,,,,,,,,,,,,,,,,,,,,,,,,,,,0.005,,,,,,,,,,,,,,,,,,,,,,,,,,,,right,0,160,-30,130,1,2406.102468,2406.102468,2406.102468,None,None,2,0,0.5177104,,,,,,,,,,,,,,,,,,,,,,10,7,2,2024-10-20_15h03.44.445,uWM_experiment,2022.2.3,59.99142123
,,,,,,,,,,,,,,,,,,,,7,0,7,0,17,0,17,0,,,,,,,,,,,,,,,,,,,,,,,,,,,,,,,,,,,,,,,,,,,,,,,,,,,,,,,,,,,,,,,,,,,,,,0,,,,,,,,,,,,,,,,,,,,,,,,,,,,left,0,40,30,70,0,2414.319479,2414.319479,2414.319479,None,None,2,0,0.6287967,,,,,,,,,,,,,,,,,,,,,,10,7,2,2024-10-20_15h03.44.445,uWM_experiment,2022.2.3,59.99142123
,,,,,,,,,,,,,,,,,,,,7,0,7,0,18,0,18,0,,,,,,,,,,,,,,,,,,,,,,,,,,,,,,,,,,,,,,,,,,,,,,,,,,,,,,,,,,,,,,,,,,,,,,0.005,,,,,,,,,,,,,,,,,,,,,,,,,,,,left,1,100,-30,70,1,2421.669767,2421.669767,2421.669767,None,None,2,0,0.5745341,,,,,,,,,,,,,,,,,,,,,,10,7,2,2024-10-20_15h03.44.445,uWM_experiment,2022.2.3,59.99142123
,,,,,,,,,,,,,,,,,,,,7,0,7,0,19,0,19,0,,,,,,,,,,,,,,,,,,,,,,,,,,,,,,,,,,,,,,,,,,,,,,,,,,,,,,,,,,,,,,,,,,,,,,0.005,,,,,,,,,,,,,,,,,,,,,,,,,,,,left,1,100,-30,70,1,2429.52009,2429.52009,2429.52009,None,None,1,1,1.0200257,,,,,,,,,,,,,,,,,,,,,,10,7,2,2024-10-20_15h03.44.445,uWM_experiment,2022.2.3,59.99142123
,,,,,,,,,,,,,,,,,,,,7,0,7,0,20,0,20,0,,,,,,,,,,,,,,,,,,,,,,,,,,,,,,,,,,,,,,,,,,,,,,,,,,,,,,,,,,,,,,,,,,,,,,0.015,,,,,,,,,,,,,,,,,,,,,,,,,,,,left,1,10,-30,-20,1,2435.770356,2435.770356,2435.770356,None,None,1,1,0.4578327,,,,,,,,,,,,,,,,,,,,,,10,7,2,2024-10-20_15h03.44.445,uWM_experiment,2022.2.3,59.99142123
,,,,,,,,,,,,,,,,,,,,7,0,7,0,21,0,21,0,,,,,,,,,,,,,,,,,,,,,,,,,,,,,,,,,,,,,,,,,,,,,,,,,,,,,,,,,,,,,,,,,,,,,,0.025,,,,,,,,,,,,,,,,,,,,,,,,,,,,right,0,10,-30,-20,1,2442.787286,2442.787286,2442.787286,None,None,1,1,0.9128984,,,,,,,,,,,,,,,,,,,,,,10,7,2,2024-10-20_15h03.44.445,uWM_experiment,2022.2.3,59.99142123
,,,,,,,,,,,,,,,,,,,,7,0,7,0,22,0,22,0,,,,,,,,,,,,,,,,,,,,,,,,,,,,,,,,,,,,,,,,,,,,,,,,,,,,,,,,,,,,,,,,,,,,,,0.035,,,,,,,,,,,,,,,,,,,,,,,,,,,,right,0,160,-30,130,1,2449.93759,2449.93759,2449.93759,None,None,1,1,1.1945899,,,,,,,,,,,,,,,,,,,,,,10,7,2,2024-10-20_15h03.44.445,uWM_experiment,2022.2.3,59.99142123
,,,,,,,,,,,,,,,,,,,,7,0,7,0,23,0,23,0,,,,,,,,,,,,,,,,,,,,,,,,,,,,,,,,,,,,,,,,,,,,,,,,,,,,,,,,,,,,,,,,,,,,,,0.045,,,,,,,,,,,,,,,,,,,,,,,,,,,,right,1,160,30,190,1,2458.137912,2458.137912,2458.137912,None,None,2,0,0.5701314,,,,,,,,,,,,,,,,,,,,,,10,7,2,2024-10-20_15h03.44.445,uWM_experiment,2022.2.3,59.99142123
,,,,,,,,,,,,,,,,,,,,7,0,7,0,,,,,0,0,0,0,,,,,,,,,,,,,,,,,,,,,,,,,,,,,,,,,,,,,,,,,,,,,,,,,,,,,,,,,,,,,,,,,,,,,,,,,,,,,,,,,,,,,,,,,,,,,,,,,,,,,,,,,,,,2458.737934,2458.737934,space,70.7939764,None,None,,,,,,,,,,,,,,,,10,7,2,2024-10-20_15h03.44.445,uWM_experiment,2022.2.3,59.99142123
,,,,,,,,,,,,,,,,,,,,7,0,7,0,,,,,1,0,1,0,,,,,,,,,,,,,,,,,,,,,,,,,,,,,,,,,,,,,,,,,,,,,,,,,,,,,,,,,,,,,,,,,,,,,,,,,,,,,,,,,,,,,,,,,,,,,,,,,,,,,,,,,,,,,,,,,,,,,,,,,,,,,,,,,10,7,2,2024-10-20_15h03.44.445,uWM_experiment,2022.2.3,59.99142123
,,,,,,,,,,,,,,,,,,,,7,0,7,0,,,,,2,0,2,0,,,,,,,,,,,,,,,,,,,,,,,,,,,,,,,,,,,,,,,,,,,,,,,,,,,,,,,,,,,,,,,,,,,,,,,,,,,,,,,,,,,,,,,,,,,,,,,,,,,,,,,,,,,,,,,,,,,,,,,,,,,,,,,,,10,7,2,2024-10-20_15h03.44.445,uWM_experiment,2022.2.3,59.99142123
,,,,,,,,,,,,,,,,,,,,8,0,8,0,0,0,0,0,,,,,,,,,,,,,,,,,,,,,,,,,,,,,,,,,,,,,,,,,,,,,,,,,,,,,,,,,,,,,,,,,,,,,,0,,,,,,,,,,,,,,,,,,,,2529.557491,2530.257537,2530.557529,2531.257565,2531.557582,2532.257606,2532.257606,2532.574325,left,0,10,30,40,0,2537.624473,2537.624473,2537.624473,None,None,1,1,0.451305,,,,,,,None,,,,,,,,,,,,,,,10,7,2,2024-10-20_15h03.44.445,uWM_experiment,2022.2.3,59.99142123
,,,,,,,,,,,,,,,,,,,,8,0,8,0,1,0,1,0,,,,,,,,,,,,,,,,,,,,,,,,,,,,,,,,,,,,,,,,,,,,,,,,,,,,,,,,,,,,,,,,,,,,,,0,,,,,,,,,,,,,,,,,,,,,,,,,,,,right,0,160,-30,130,0,2544.124741,2544.124741,2544.124741,None,None,2,0,0.543111,,,,,,,,,,,,,,,,,,,,,,10,7,2,2024-10-20_15h03.44.445,uWM_experiment,2022.2.3,59.99142123
,,,,,,,,,,,,,,,,,,,,8,0,8,0,2,0,2,0,,,,,,,,,,,,,,,,,,,,,,,,,,,,,,,,,,,,,,,,,,,,,,,,,,,,,,,,,,,,,,,,,,,,,,0,,,,,,,,,,,,,,,,,,,,,,,,,,,,right,0,100,-30,70,0,2551.341712,2551.341712,2551.341712,None,None,3,0,0.7421705,,,,,,,,,,,,,,,,,,,,,,10,7,2,2024-10-20_15h03.44.445,uWM_experiment,2022.2.3,59.99142123
,,,,,,,,,,,,,,,,,,,,8,0,8,0,3,0,3,0,,,,,,,,,,,,,,,,,,,,,,,,,,,,,,,,,,,,,,,,,,,,,,,,,,,,,,,,,,,,,,,,,,,,,,0.035,,,,,,,,,,,,,,,,,,,,,,,,,,,,left,1,100,-30,70,1,2558.692022,2558.692022,2558.692022,None,None,2,0,0.5998126,,,,,,,,,,,,,,,,,,,,,,10,7,2,2024-10-20_15h03.44.445,uWM_experiment,2022.2.3,59.99142123
,,,,,,,,,,,,,,,,,,,,8,0,8,0,4,0,4,0,,,,,,,,,,,,,,,,,,,,,,,,,,,,,,,,,,,,,,,,,,,,,,,,,,,,,,,,,,,,,,,,,,,,,,0,,,,,,,,,,,,,,,,,,,,,,,,,,,,right,1,160,30,190,0,2566.158984,2566.158984,2566.158984,None,None,2,0,1.3488072,,,,,,,,,,,,,,,,,,,,,,10,7,2,2024-10-20_15h03.44.445,uWM_experiment,2022.2.3,59.99142123
,,,,,,,,,,,,,,,,,,,,8,0,8,0,5,0,5,0,,,,,,,,,,,,,,,,,,,,,,,,,,,,,,,,,,,,,,,,,,,,,,,,,,,,,,,,,,,,,,,,,,,,,,0.025,,,,,,,,,,,,,,,,,,,,,,,,,,,,left,0,100,30,130,1,2574.009305,2574.009305,2574.009305,None,None,2,0,0.6903905,,,,,,,,,,,,,,,,,,,,,,10,7,2,2024-10-20_15h03.44.445,uWM_experiment,2022.2.3,59.99142123
,,,,,,,,,,,,,,,,,,,,8,0,8,0,6,0,6,0,,,,,,,,,,,,,,,,,,,,,,,,,,,,,,,,,,,,,,,,,,,,,,,,,,,,,,,,,,,,,,,,,,,,,,0.015,,,,,,,,,,,,,,,,,,,,,,,,,,,,right,0,160,-30,130,1,2581.976284,2581.976284,2581.976284,None,None,2,0,0.7873248,,,,,,,,,,,,,,,,,,,,,,10,7,2,2024-10-20_15h03.44.445,uWM_experiment,2022.2.3,59.99142123
,,,,,,,,,,,,,,,,,,,,8,0,8,0,7,0,7,0,,,,,,,,,,,,,,,,,,,,,,,,,,,,,,,,,,,,,,,,,,,,,,,,,,,,,,,,,,,,,,,,,,,,,,0.005,,,,,,,,,,,,,,,,,,,,,,,,,,,,left,1,100,-30,70,1,2588.776573,2588.776573,2588.776573,None,None,3,0,0.859098,,,,,,,,,,,,,,,,,,,,,,10,7,2,2024-10-20_15h03.44.445,uWM_experiment,2022.2.3,59.99142123
,,,,,,,,,,,,,,,,,,,,8,0,8,0,8,0,8,0,,,,,,,,,,,,,,,,,,,,,,,,,,,,,,,,,,,,,,,,,,,,,,,,,,,,,,,,,,,,,,,,,,,,,,0.005,,,,,,,,,,,,,,,,,,,,,,,,,,,,right,0,10,-30,-20,1,2595.643509,2595.643509,2595.643509,None,None,3,0,0.56807,,,,,,,,,,,,,,,,,,,,,,10,7,2,2024-10-20_15h03.44.445,uWM_experiment,2022.2.3,59.99142123
,,,,,,,,,,,,,,,,,,,,8,0,8,0,9,0,9,0,,,,,,,,,,,,,,,,,,,,,,,,,,,,,,,,,,,,,,,,,,,,,,,,,,,,,,,,,,,,,,,,,,,,,,0,,,,,,,,,,,,,,,,,,,,,,,,,,,,right,0,100,-30,70,0,2602.360462,2602.360462,2602.360462,None,None,2,0,0.8112059,,,,,,,,,,,,,,,,,,,,,,10,7,2,2024-10-20_15h03.44.445,uWM_experiment,2022.2.3,59.99142123
,,,,,,,,,,,,,,,,,,,,8,0,8,0,10,0,10,0,,,,,,,,,,,,,,,,,,,,,,,,,,,,,,,,,,,,,,,,,,,,,,,,,,,,,,,,,,,,,,,,,,,,,,0.005,,,,,,,,,,,,,,,,,,,,,,,,,,,,right,0,160,-30,130,1,2609.360754,2609.360754,2609.360754,None,None,2,0,0.5388197,,,,,,,,,,,,,,,,,,,,,,10,7,2,2024-10-20_15h03.44.445,uWM_experiment,2022.2.3,59.99142123
,,,,,,,,,,,,,,,,,,,,8,0,8,0,11,0,11,0,,,,,,,,,,,,,,,,,,,,,,,,,,,,,,,,,,,,,,,,,,,,,,,,,,,,,,,,,,,,,,,,,,,,,,0.005,,,,,,,,,,,,,,,,,,,,,,,,,,,,right,1,100,30,130,1,2615.627671,2615.627671,2615.627671,None,None,2,0,0.4078655,,,,,,,,,,,,,,,,,,,,,,10,7,2,2024-10-20_15h03.44.445,uWM_experiment,2022.2.3,59.99142123
,,,,,,,,,,,,,,,,,,,,8,0,8,0,12,0,12,0,,,,,,,,,,,,,,,,,,,,,,,,,,,,,,,,,,,,,,,,,,,,,,,,,,,,,,,,,,,,,,,,,,,,,,0.005,,,,,,,,,,,,,,,,,,,,,,,,,,,,left,1,70,-30,40,1,2622.59463,2622.59463,2622.59463,None,None,2,0,0.6568911,,,,,,,,,,,,,,,,,,,,,,10,7,2,2024-10-20_15h03.44.445,uWM_experiment,2022.2.3,59.99142123
,,,,,,,,,,,,,,,,,,,,8,0,8,0,13,0,13,0,,,,,,,,,,,,,,,,,,,,,,,,,,,,,,,,,,,,,,,,,,,,,,,,,,,,,,,,,,,,,,,,,,,,,,0.005,,,,,,,,,,,,,,,,,,,,,,,,,,,,right,1,130,30,160,1,2629.0449,2629.0449,2629.0449,None,None,2,0,0.4385887,,,,,,,,,,,,,,,,,,,,,,10,7,2,2024-10-20_15h03.44.445,uWM_experiment,2022.2.3,59.99142123
,,,,,,,,,,,,,,,,,,,,8,0,8,0,14,0,14,0,,,,,,,,,,,,,,,,,,,,,,,,,,,,,,,,,,,,,,,,,,,,,,,,,,,,,,,,,,,,,,,,,,,,,,0.005,,,,,,,,,,,,,,,,,,,,,,,,,,,,right,0,10,-30,-20,1,2635.245139,2635.245139,2635.245139,None,None,2,0,0.4064526,,,,,,,,,,,,,,,,,,,,,,10,7,2,2024-10-20_15h03.44.445,uWM_experiment,2022.2.3,59.99142123
,,,,,,,,,,,,,,,,,,,,8,0,8,0,15,0,15,0,,,,,,,,,,,,,,,,,,,,,,,,,,,,,,,,,,,,,,,,,,,,,,,,,,,,,,,,,,,,,,,,,,,,,,0.005,,,,,,,,,,,,,,,,,,,,,,,,,,,,left,0,160,30,190,1,2641.828762,2641.828762,2641.828762,None,None,2,0,0.40673,,,,,,,,,,,,,,,,,,,,,,10,7,2,2024-10-20_15h03.44.445,uWM_experiment,2022.2.3,59.99142123
,,,,,,,,,,,,,,,,,,,,8,0,8,0,16,0,16,0,,,,,,,,,,,,,,,,,,,,,,,,,,,,,,,,,,,,,,,,,,,,,,,,,,,,,,,,,,,,,,,,,,,,,,0.005,,,,,,,,,,,,,,,,,,,,,,,,,,,,left,1,100,-30,70,1,2648.829027,2648.829027,2648.829027,None,None,1,1,1.3105481,,,,,,,,,,,,,,,,,,,,,,10,7,2,2024-10-20_15h03.44.445,uWM_experiment,2022.2.3,59.99142123
,,,,,,,,,,,,,,,,,,,,8,0,8,0,17,0,17,0,,,,,,,,,,,,,,,,,,,,,,,,,,,,,,,,,,,,,,,,,,,,,,,,,,,,,,,,,,,,,,,,,,,,,,0,,,,,,,,,,,,,,,,,,,,,,,,,,,,left,0,70,30,100,0,2656.796034,2656.796034,2656.796034,None,None,1,1,0.4393907,,,,,,,,,,,,,,,,,,,,,,10,7,2,2024-10-20_15h03.44.445,uWM_experiment,2022.2.3,59.99142123
,,,,,,,,,,,,,,,,,,,,8,0,8,0,18,0,18,0,,,,,,,,,,,,,,,,,,,,,,,,,,,,,,,,,,,,,,,,,,,,,,,,,,,,,,,,,,,,,,,,,,,,,,0,,,,,,,,,,,,,,,,,,,,,,,,,,,,left,1,160,-30,130,0,2663.229644,2663.229644,2663.229644,None,None,2,0,0.3418095,,,,,,,,,,,,,,,,,,,,,,10,7,2,2024-10-20_15h03.44.445,uWM_experiment,2022.2.3,59.99142123
,,,,,,,,,,,,,,,,,,,,8,0,8,0,19,0,19,0,,,,,,,,,,,,,,,,,,,,,,,,,,,,,,,,,,,,,,,,,,,,,,,,,,,,,,,,,,,,,,,,,,,,,,0.015,,,,,,,,,,,,,,,,,,,,,,,,,,,,left,0,130,30,160,1,2670.19658,2670.19658,2670.19658,None,None,2,0,0.502754,,,,,,,,,,,,,,,,,,,,,,10,7,2,2024-10-20_15h03.44.445,uWM_experiment,2022.2.3,59.99142123
,,,,,,,,,,,,,,,,,,,,8,0,8,0,20,0,20,0,,,,,,,,,,,,,,,,,,,,,,,,,,,,,,,,,,,,,,,,,,,,,,,,,,,,,,,,,,,,,,,,,,,,,,0,,,,,,,,,,,,,,,,,,,,,,,,,,,,right,0,100,-30,70,0,2681.097018,2681.097018,2681.097018,None,None,3,0,0.8584513,,,,,,,,,,,,,,,,,,,,,,10,7,2,2024-10-20_15h03.44.445,uWM_experiment,2022.2.3,59.99142123
,,,,,,,,,,,,,,,,,,,,8,0,8,0,21,0,21,0,,,,,,,,,,,,,,,,,,,,,,,,,,,,,,,,,,,,,,,,,,,,,,,,,,,,,,,,,,,,,,,,,,,,,,0.005,,,,,,,,,,,,,,,,,,,,,,,,,,,,right,0,130,-30,100,1,2688.263949,2688.263949,2688.263949,None,None,2,0,1.0673153,,,,,,,,,,,,,,,,,,,,,,10,7,2,2024-10-20_15h03.44.445,uWM_experiment,2022.2.3,59.99142123
,,,,,,,,,,,,,,,,,,,,8,0,8,0,22,0,22,0,,,,,,,,,,,,,,,,,,,,,,,,,,,,,,,,,,,,,,,,,,,,,,,,,,,,,,,,,,,,,,,,,,,,,,0.005,,,,,,,,,,,,,,,,,,,,,,,,,,,,left,0,10,30,40,1,2695.414307,2695.414307,2695.414307,None,None,2,0,0.5170237,,,,,,,,,,,,,,,,,,,,,,10,7,2,2024-10-20_15h03.44.445,uWM_experiment,2022.2.3,59.99142123
,,,,,,,,,,,,,,,,,,,,8,0,8,0,23,0,23,0,,,,,,,,,,,,,,,,,,,,,,,,,,,,,,,,,,,,,,,,,,,,,,,,,,,,,,,,,,,,,,,,,,,,,,0.005,,,,,,,,,,,,,,,,,,,,,,,,,,,,right,1,100,30,130,1,2702.364544,2702.364544,2702.364544,None,None,2,0,0.3587785,,,,,,,,,,,,,,,,,,,,,,10,7,2,2024-10-20_15h03.44.445,uWM_experiment,2022.2.3,59.99142123
,,,,,,,,,,,,,,,,,,,,8,0,8,0,,,,,0,0,0,0,,,,,,,,,,,,,,,,,,,,,,,,,,,,,,,,,,,,,,,,,,,,,,,,,,,,,,,,,,,,,,,,,,,,,,,,,,,,,,,,,,,,,,,,,,,,,,,,,,,,,,,,,,,,2702.747894,2702.747894,space,83.4151642,space,None,,2786.184628,2786.184628,12.2344253,,,,,,,,,,,,10,7,2,2024-10-20_15h03.44.445,uWM_experiment,2022.2.3,59.99142123
,,,,,,,,,,,,,,,,,,,,8,0,8,0,,,,,1,0,1,0,,,,,,,,,,,,,,,,,,,,,,,,,,,,,,,,,,,,,,,,,,,,,,,,,,,,,,,,,,,,,,,,,,,,,,,,,,,,,,,,,,,,,,,,,,,,,,,,,,,,,,,,,,,,,,,,,,,,,,,,,,,,,,,,,10,7,2,2024-10-20_15h03.44.445,uWM_experiment,2022.2.3,59.99142123
,,,,,,,,,,,,,,,,,,,,8,0,8,0,,,,,2,0,2,0,,,,,,,,,,,,,,,,,,,,,,,,,,,,,,,,,,,,,,,,,,,,,,,,,,,,,,,,,,,,,,,,,,,,,,,,,,,,,,,,,,,,,,,,,,,,,,,,,,,,,,,,,,,,,,,,,,,,,,,,,,,,,,,,,10,7,2,2024-10-20_15h03.44.445,uWM_experiment,2022.2.3,59.99142123
,,,,,,,,,,,,,,,,,,,,9,0,9,0,0,0,0,0,,,,,,,,,,,,,,,,,,,,,,,,,,,,,,,,,,,,,,,,,,,,,,,,,,,,,,,,,,,,,,,,,,,,,,0.005,,,,,,,,,,,,,,,,,,,,2798.45181,2799.151804,2799.451833,2800.151859,2800.451871,2801.151898,2801.151898,2801.468582,right,0,160,-30,130,1,2807.202168,2807.202168,2807.202168,None,None,1,1,0.7608612,,,,,,,None,,,,,,,,,,,,,,,10,7,2,2024-10-20_15h03.44.445,uWM_experiment,2022.2.3,59.99142123
,,,,,,,,,,,,,,,,,,,,9,0,9,0,1,0,1,0,,,,,,,,,,,,,,,,,,,,,,,,,,,,,,,,,,,,,,,,,,,,,,,,,,,,,,,,,,,,,,,,,,,,,,0.015,,,,,,,,,,,,,,,,,,,,,,,,,,,,right,0,160,-30,130,1,2813.735818,2813.735818,2813.735818,None,None,1,1,0.5072116,,,,,,,,,,,,,,,,,,,,,,10,7,2,2024-10-20_15h03.44.445,uWM_experiment,2022.2.3,59.99142123
,,,,,,,,,,,,,,,,,,,,9,0,9,0,2,0,2,0,,,,,,,,,,,,,,,,,,,,,,,,,,,,,,,,,,,,,,,,,,,,,,,,,,,,,,,,,,,,,,,,,,,,,,0.025,,,,,,,,,,,,,,,,,,,,,,,,,,,,right,1,40,30,70,1,2820.069333,2820.069333,2820.069333,None,None,3,0,1.0136209,,,,,,,,,,,,,,,,,,,,,,10,7,2,2024-10-20_15h03.44.445,uWM_experiment,2022.2.3,59.99142123
,,,,,,,,,,,,,,,,,,,,9,0,9,0,3,0,3,0,,,,,,,,,,,,,,,,,,,,,,,,,,,,,,,,,,,,,,,,,,,,,,,,,,,,,,,,,,,,,,,,,,,,,,0.015,,,,,,,,,,,,,,,,,,,,,,,,,,,,right,1,130,30,160,1,2827.086297,2827.086297,2827.086297,None,None,2,0,1.2926268,,,,,,,,,,,,,,,,,,,,,,10,7,2,2024-10-20_15h03.44.445,uWM_experiment,2022.2.3,59.99142123
,,,,,,,,,,,,,,,,,,,,9,0,9,0,4,0,4,0,,,,,,,,,,,,,,,,,,,,,,,,,,,,,,,,,,,,,,,,,,,,,,,,,,,,,,,,,,,,,,,,,,,,,,0.005,,,,,,,,,,,,,,,,,,,,,,,,,,,,left,1,70,-30,40,1,2834.086587,2834.086587,2834.086587,None,None,2,0,0.4123673,,,,,,,,,,,,,,,,,,,,,,10,7,2,2024-10-20_15h03.44.445,uWM_experiment,2022.2.3,59.99142123
,,,,,,,,,,,,,,,,,,,,9,0,9,0,5,0,5,0,,,,,,,,,,,,,,,,,,,,,,,,,,,,,,,,,,,,,,,,,,,,,,,,,,,,,,,,,,,,,,,,,,,,,,0.005,,,,,,,,,,,,,,,,,,,,,,,,,,,,left,0,70,30,100,1,2842.32025,2842.32025,2842.32025,None,None,3,0,0.9865524,,,,,,,,,,,,,,,,,,,,,,10,7,2,2024-10-20_15h03.44.445,uWM_experiment,2022.2.3,59.99142123
,,,,,,,,,,,,,,,,,,,,9,0,9,0,6,0,6,0,,,,,,,,,,,,,,,,,,,,,,,,,,,,,,,,,,,,,,,,,,,,,,,,,,,,,,,,,,,,,,,,,,,,,,0.005,,,,,,,,,,,,,,,,,,,,,,,,,,,,left,0,160,30,190,1,2849.687232,2849.687232,2849.687232,None,None,2,0,0.5797044,,,,,,,,,,,,,,,,,,,,,,10,7,2,2024-10-20_15h03.44.445,uWM_experiment,2022.2.3,59.99142123
,,,,,,,,,,,,,,,,,,,,9,0,9,0,7,0,7,0,,,,,,,,,,,,,,,,,,,,,,,,,,,,,,,,,,,,,,,,,,,,,,,,,,,,,,,,,,,,,,,,,,,,,,0.005,,,,,,,,,,,,,,,,,,,,,,,,,,,,right,0,100,-30,70,1,2856.554153,2856.554153,2856.554153,None,None,2,0,0.8005875,,,,,,,,,,,,,,,,,,,,,,10,7,2,2024-10-20_15h03.44.445,uWM_experiment,2022.2.3,59.99142123
,,,,,,,,,,,,,,,,,,,,9,0,9,0,8,0,8,0,,,,,,,,,,,,,,,,,,,,,,,,,,,,,,,,,,,,,,,,,,,,,,,,,,,,,,,,,,,,,,,,,,,,,,0.005,,,,,,,,,,,,,,,,,,,,,,,,,,,,left,0,100,30,130,1,2863.587784,2863.587784,2863.587784,None,None,2,0,0.6470529,,,,,,,,,,,,,,,,,,,,,,10,7,2,2024-10-20_15h03.44.445,uWM_experiment,2022.2.3,59.99142123
,,,,,,,,,,,,,,,,,,,,9,0,9,0,9,0,9,0,,,,,,,,,,,,,,,,,,,,,,,,,,,,,,,,,,,,,,,,,,,,,,,,,,,,,,,,,,,,,,,,,,,,,,0.005,,,,,,,,,,,,,,,,,,,,,,,,,,,,left,0,70,30,100,1,2870.10473,2870.10473,2870.10473,None,None,1,1,0.9380299,,,,,,,,,,,,,,,,,,,,,,10,7,2,2024-10-20_15h03.44.445,uWM_experiment,2022.2.3,59.99142123
,,,,,,,,,,,,,,,,,,,,9,0,9,0,10,0,10,0,,,,,,,,,,,,,,,,,,,,,,,,,,,,,,,,,,,,,,,,,,,,,,,,,,,,,,,,,,,,,,,,,,,,,,0.015,,,,,,,,,,,,,,,,,,,,,,,,,,,,right,1,100,30,130,1,2877.321678,2877.321678,2877.321678,None,None,1,1,0.4090995,,,,,,,,,,,,,,,,,,,,,,10,7,2,2024-10-20_15h03.44.445,uWM_experiment,2022.2.3,59.99142123
,,,,,,,,,,,,,,,,,,,,9,0,9,0,11,0,11,0,,,,,,,,,,,,,,,,,,,,,,,,,,,,,,,,,,,,,,,,,,,,,,,,,,,,,,,,,,,,,,,,,,,,,,0,,,,,,,,,,,,,,,,,,,,,,,,,,,,left,1,10,-30,-20,0,2884.288628,2884.288628,2884.288628,None,None,2,0,0.39417,,,,,,,,,,,,,,,,,,,,,,10,7,2,2024-10-20_15h03.44.445,uWM_experiment,2022.2.3,59.99142123
,,,,,,,,,,,,,,,,,,,,9,0,9,0,12,0,12,0,,,,,,,,,,,,,,,,,,,,,,,,,,,,,,,,,,,,,,,,,,,,,,,,,,,,,,,,,,,,,,,,,,,,,,0.025,,,,,,,,,,,,,,,,,,,,,,,,,,,,right,0,10,-30,-20,1,2890.488892,2890.488892,2890.488892,None,None,2,0,0.5618482,,,,,,,,,,,,,,,,,,,,,,10,7,2,2024-10-20_15h03.44.445,uWM_experiment,2022.2.3,59.99142123
,,,,,,,,,,,,,,,,,,,,9,0,9,0,13,0,13,0,,,,,,,,,,,,,,,,,,,,,,,,,,,,,,,,,,,,,,,,,,,,,,,,,,,,,,,,,,,,,,,,,,,,,,0.015,,,,,,,,,,,,,,,,,,,,,,,,,,,,left,1,160,-30,130,1,2898.039208,2898.039208,2898.039208,None,None,2,0,0.3714369,,,,,,,,,,,,,,,,,,,,,,10,7,2,2024-10-20_15h03.44.445,uWM_experiment,2022.2.3,59.99142123
,,,,,,,,,,,,,,,,,,,,9,0,9,0,14,0,14,0,,,,,,,,,,,,,,,,,,,,,,,,,,,,,,,,,,,,,,,,,,,,,,,,,,,,,,,,,,,,,,,,,,,,,,0.005,,,,,,,,,,,,,,,,,,,,,,,,,,,,right,0,160,-30,130,1,2904.722808,2904.722808,2904.722808,None,None,1,1,0.5119384,,,,,,,,,,,,,,,,,,,,,,10,7,2,2024-10-20_15h03.44.445,uWM_experiment,2022.2.3,59.99142123
,,,,,,,,,,,,,,,,,,,,9,0,9,0,15,0,15,0,,,,,,,,,,,,,,,,,,,,,,,,,,,,,,,,,,,,,,,,,,,,,,,,,,,,,,,,,,,,,,,,,,,,,,0.015,,,,,,,,,,,,,,,,,,,,,,,,,,,,left,0,100,30,130,1,2914.523198,2914.523198,2914.523198,None,None,2,0,2.0634939,,,,,,,,,,,,,,,,,,,,,,10,7,2,2024-10-20_15h03.44.445,uWM_experiment,2022.2.3,59.99142123
,,,,,,,,,,,,,,,,,,,,9,0,9,0,16,0,16,0,,,,,,,,,,,,,,,,,,,,,,,,,,,,,,,,,,,,,,,,,,,,,,,,,,,,,,,,,,,,,,,,,,,,,,0,,,,,,,,,,,,,,,,,,,,,,,,,,,,left,0,40,30,70,0,2924.640286,2924.640286,2924.640286,None,None,2,0,1.3063764,,,,,,,,,,,,,,,,,,,,,,10,7,2,2024-10-20_15h03.44.445,uWM_experiment,2022.2.3,59.99142123
,,,,,,,,,,,,,,,,,,,,9,0,9,0,17,0,17,0,,,,,,,,,,,,,,,,,,,,,,,,,,,,,,,,,,,,,,,,,,,,,,,,,,,,,,,,,,,,,,,,,,,,,,0.005,,,,,,,,,,,,,,,,,,,,,,,,,,,,left,1,40,-30,10,1,2931.273871,2931.273871,2931.273871,None,None,1,1,0.7846321,,,,,,,,,,,,,,,,,,,,,,10,7,2,2024-10-20_15h03.44.445,uWM_experiment,2022.2.3,59.99142123
,,,,,,,,,,,,,,,,,,,,9,0,9,0,18,0,18,0,,,,,,,,,,,,,,,,,,,,,,,,,,,,,,,,,,,,,,,,,,,,,,,,,,,,,,,,,,,,,,,,,,,,,,0.015,,,,,,,,,,,,,,,,,,,,,,,,,,,,right,0,100,-30,70,1,2938.407522,2938.407522,2938.407522,None,None,2,0,0.3950169,,,,,,,,,,,,,,,,,,,,,,10,7,2,2024-10-20_15h03.44.445,uWM_experiment,2022.2.3,59.99142123
,,,,,,,,,,,,,,,,,,,,9,0,9,0,19,0,19,0,,,,,,,,,,,,,,,,,,,,,,,,,,,,,,,,,,,,,,,,,,,,,,,,,,,,,,,,,,,,,,,,,,,,,,0,,,,,,,,,,,,,,,,,,,,,,,,,,,,right,0,10,-30,-20,0,2944.657768,2944.657768,2944.657768,None,None,2,0,1.7526944,,,,,,,,,,,,,,,,,,,,,,10,7,2,2024-10-20_15h03.44.445,uWM_experiment,2022.2.3,59.99142123
,,,,,,,,,,,,,,,,,,,,9,0,9,0,20,0,20,0,,,,,,,,,,,,,,,,,,,,,,,,,,,,,,,,,,,,,,,,,,,,,,,,,,,,,,,,,,,,,,,,,,,,,,0,,,,,,,,,,,,,,,,,,,,,,,,,,,,right,1,130,30,160,0,2952.9081,2952.9081,2952.9081,None,None,2,0,0.3664079,,,,,,,,,,,,,,,,,,,,,,10,7,2,2024-10-20_15h03.44.445,uWM_experiment,2022.2.3,59.99142123
,,,,,,,,,,,,,,,,,,,,9,0,9,0,21,0,21,0,,,,,,,,,,,,,,,,,,,,,,,,,,,,,,,,,,,,,,,,,,,,,,,,,,,,,,,,,,,,,,,,,,,,,,0.005,,,,,,,,,,,,,,,,,,,,,,,,,,,,right,0,40,-30,10,1,2959.591676,2959.591676,2959.591676,None,None,2,0,0.3707629,,,,,,,,,,,,,,,,,,,,,,10,7,2,2024-10-20_15h03.44.445,uWM_experiment,2022.2.3,59.99142123
,,,,,,,,,,,,,,,,,,,,9,0,9,0,22,0,22,0,,,,,,,,,,,,,,,,,,,,,,,,,,,,,,,,,,,,,,,,,,,,,,,,,,,,,,,,,,,,,,,,,,,,,,0.005,,,,,,,,,,,,,,,,,,,,,,,,,,,,right,0,40,-30,10,1,2966.891985,2966.891985,2966.891985,None,None,2,0,0.2784329,,,,,,,,,,,,,,,,,,,,,,10,7,2,2024-10-20_15h03.44.445,uWM_experiment,2022.2.3,59.99142123
,,,,,,,,,,,,,,,,,,,,9,0,9,0,23,0,23,0,,,,,,,,,,,,,,,,,,,,,,,,,,,,,,,,,,,,,,,,,,,,,,,,,,,,,,,,,,,,,,,,,,,,,,0.005,,,,,,,,,,,,,,,,,,,,,,,,,,,,left,0,70,30,100,1,2973.892293,2973.892293,2973.892293,None,None,2,0,0.2781294,,,,,,,,,,,,,,,,,,,,,,10,7,2,2024-10-20_15h03.44.445,uWM_experiment,2022.2.3,59.99142123
,,,,,,,,,,,,,,,,,,,,9,0,9,0,,,,,0,0,0,0,,,,,,,,,,,,,,,,,,,,,,,,,,,,,,,,,,,,,,,,,,,,,,,,,,,,,,,,,,,,,,,,,,,,,,,,,,,,,,,,,,,,,,,,,,,,,,,,,,,,,,,,,,,,2974.192267,2974.192267,space,36.3301032,None,None,,,,,,,,,,,,,,,,10,7,2,2024-10-20_15h03.44.445,uWM_experiment,2022.2.3,59.99142123
,,,,,,,,,,,,,,,,,,,,9,0,9,0,,,,,1,0,1,0,,,,,,,,,,,,,,,,,,,,,,,,,,,,,,,,,,,,,,,,,,,,,,,,,,,,,,,,,,,,,,,,,,,,,,,,,,,,,,,,,,,,,,,,,,,,,,,,,,,,,,,,,,,,,,,,,,,,,,,,,,,,,,,,,10,7,2,2024-10-20_15h03.44.445,uWM_experiment,2022.2.3,59.99142123
,,,,,,,,,,,,,,,,,,,,9,0,9,0,,,,,2,0,2,0,,,,,,,,,,,,,,,,,,,,,,,,,,,,,,,,,,,,,,,,,,,,,,,,,,,,,,,,,,,,,,,,,,,,,,,,,,,,,,,,,,,,,,,,,,,,,,,,,,,,,,,,,,,,,,,,,,,,,,,,,,,,,,,,,10,7,2,2024-10-20_15h03.44.445,uWM_experiment,2022.2.3,59.99142123
,,,,,,,,,,,,,,,,,,,,10,0,10,0,0,0,0,0,,,,,,,,,,,,,,,,,,,,,,,,,,,,,,,,,,,,,,,,,,,,,,,,,,,,,,,,,,,,,,,,,,,,,,0,,,,,,,,,,,,,,,,,,,,3010.543771,3011.243799,3011.54381,3012.24384,3012.543855,3013.243878,3013.243878,3013.560567,left,1,100,-30,70,0,3019.594148,3019.594148,3019.594148,None,None,1,1,0.6401702,,,,,,,None,,,,,,,,,,,,,,,10,7,2,2024-10-20_15h03.44.445,uWM_experiment,2022.2.3,59.99142123
,,,,,,,,,,,,,,,,,,,,10,0,10,0,1,0,1,0,,,,,,,,,,,,,,,,,,,,,,,,,,,,,,,,,,,,,,,,,,,,,,,,,,,,,,,,,,,,,,,,,,,,,,0.005,,,,,,,,,,,,,,,,,,,,,,,,,,,,left,0,70,30,100,1,3026.244408,3026.244408,3026.244408,None,None,1,1,1.5899824,,,,,,,,,,,,,,,,,,,,,,10,7,2,2024-10-20_15h03.44.445,uWM_experiment,2022.2.3,59.99142123
,,,,,,,,,,,,,,,,,,,,10,0,10,0,2,0,2,0,,,,,,,,,,,,,,,,,,,,,,,,,,,,,,,,,,,,,,,,,,,,,,,,,,,,,,,,,,,,,,,,,,,,,,0.015,,,,,,,,,,,,,,,,,,,,,,,,,,,,right,1,70,30,100,1,3042.095078,3042.095078,3042.095078,None,None,3,0,1.3710836,,,,,,,,,,,,,,,,,,,,,,10,7,2,2024-10-20_15h03.44.445,uWM_experiment,2022.2.3,59.99142123
,,,,,,,,,,,,,,,,,,,,10,0,10,0,3,0,3,0,,,,,,,,,,,,,,,,,,,,,,,,,,,,,,,,,,,,,,,,,,,,,,,,,,,,,,,,,,,,,,,,,,,,,,0.005,,,,,,,,,,,,,,,,,,,,,,,,,,,,left,1,100,-30,70,1,3050.912073,3050.912073,3050.912073,None,None,2,0,0.8821124,,,,,,,,,,,,,,,,,,,,,,10,7,2,2024-10-20_15h03.44.445,uWM_experiment,2022.2.3,59.99142123
,,,,,,,,,,,,,,,,,,,,10,0,10,0,4,0,4,0,,,,,,,,,,,,,,,,,,,,,,,,,,,,,,,,,,,,,,,,,,,,,,,,,,,,,,,,,,,,,,,,,,,,,,0.005,,,,,,,,,,,,,,,,,,,,,,,,,,,,left,1,70,-30,40,1,3059.112483,3059.112483,3059.112483,None,None,2,0,0.361675,,,,,,,,,,,,,,,,,,,,,,10,7,2,2024-10-20_15h03.44.445,uWM_experiment,2022.2.3,59.99142123
,,,,,,,,,,,,,,,,,,,,10,0,10,0,5,0,5,0,,,,,,,,,,,,,,,,,,,,,,,,,,,,,,,,,,,,,,,,,,,,,,,,,,,,,,,,,,,,,,,,,,,,,,0.005,,,,,,,,,,,,,,,,,,,,,,,,,,,,right,1,100,30,130,1,3065.395998,3065.395998,3065.395998,None,None,2,0,0.3340886,,,,,,,,,,,,,,,,,,,,,,10,7,2,2024-10-20_15h03.44.445,uWM_experiment,2022.2.3,59.99142123
,,,,,,,,,,,,,,,,,,,,10,0,10,0,6,0,6,0,,,,,,,,,,,,,,,,,,,,,,,,,,,,,,,,,,,,,,,,,,,,,,,,,,,,,,,,,,,,,,,,,,,,,,0.005,,,,,,,,,,,,,,,,,,,,,,,,,,,,right,0,10,-30,-20,1,3072.512985,3072.512985,3072.512985,None,None,2,0,0.4731254,,,,,,,,,,,,,,,,,,,,,,10,7,2,2024-10-20_15h03.44.445,uWM_experiment,2022.2.3,59.99142123
,,,,,,,,,,,,,,,,,,,,10,0,10,0,7,0,7,0,,,,,,,,,,,,,,,,,,,,,,,,,,,,,,,,,,,,,,,,,,,,,,,,,,,,,,,,,,,,,,,,,,,,,,0.005,,,,,,,,,,,,,,,,,,,,,,,,,,,,left,1,130,-30,100,1,3080.063272,3080.063272,3080.063272,None,None,2,0,0.4107805,,,,,,,,,,,,,,,,,,,,,,10,7,2,2024-10-20_15h03.44.445,uWM_experiment,2022.2.3,59.99142123
,,,,,,,,,,,,,,,,,,,,10,0,10,0,8,0,8,0,,,,,,,,,,,,,,,,,,,,,,,,,,,,,,,,,,,,,,,,,,,,,,,,,,,,,,,,,,,,,,,,,,,,,,0.005,,,,,,,,,,,,,,,,,,,,,,,,,,,,left,1,130,-30,100,1,3086.546873,3086.546873,3086.546873,None,None,2,0,0.2632383,,,,,,,,,,,,,,,,,,,,,,10,7,2,2024-10-20_15h03.44.445,uWM_experiment,2022.2.3,59.99142123
,,,,,,,,,,,,,,,,,,,,10,0,10,0,9,0,9,0,,,,,,,,,,,,,,,,,,,,,,,,,,,,,,,,,,,,,,,,,,,,,,,,,,,,,,,,,,,,,,,,,,,,,,0.005,,,,,,,,,,,,,,,,,,,,,,,,,,,,left,1,130,-30,100,1,3097.01397,3097.01397,3097.01397,None,None,2,0,0.9081642,,,,,,,,,,,,,,,,,,,,,,10,7,2,2024-10-20_15h03.44.445,uWM_experiment,2022.2.3,59.99142123
,,,,,,,,,,,,,,,,,,,,10,0,10,0,10,0,10,0,,,,,,,,,,,,,,,,,,,,,,,,,,,,,,,,,,,,,,,,,,,,,,,,,,,,,,,,,,,,,,,,,,,,,,0.005,,,,,,,,,,,,,,,,,,,,,,,,,,,,left,1,130,-30,100,1,3108.364433,3108.364433,3108.364433,None,None,2,0,2.9096099,,,,,,,,,,,,,,,,,,,,,,10,7,2,2024-10-20_15h03.44.445,uWM_experiment,2022.2.3,59.99142123
,,,,,,,,,,,,,,,,,,,,10,0,10,0,11,0,11,0,,,,,,,,,,,,,,,,,,,,,,,,,,,,,,,,,,,,,,,,,,,,,,,,,,,,,,,,,,,,,,,,,,,,,,0.005,,,,,,,,,,,,,,,,,,,,,,,,,,,,left,0,160,30,190,1,3117.598142,3117.598142,3117.598142,None,None,2,0,1.7959117,,,,,,,,,,,,,,,,,,,,,,10,7,2,2024-10-20_15h03.44.445,uWM_experiment,2022.2.3,59.99142123
,,,,,,,,,,,,,,,,,,,,10,0,10,0,12,0,12,0,,,,,,,,,,,,,,,,,,,,,,,,,,,,,,,,,,,,,,,,,,,,,,,,,,,,,,,,,,,,,,,,,,,,,,0.005,,,,,,,,,,,,,,,,,,,,,,,,,,,,right,0,10,-30,-20,1,3125.981823,3125.981823,3125.981823,None,None,2,0,0.3881215,,,,,,,,,,,,,,,,,,,,,,10,7,2,2024-10-20_15h03.44.445,uWM_experiment,2022.2.3,59.99142123
,,,,,,,,,,,,,,,,,,,,10,0,10,0,13,0,13,0,,,,,,,,,,,,,,,,,,,,,,,,,,,,,,,,,,,,,,,,,,,,,,,,,,,,,,,,,,,,,,,,,,,,,,0.005,,,,,,,,,,,,,,,,,,,,,,,,,,,,left,1,130,-30,100,1,3132.582103,3132.582103,3132.582103,None,None,2,0,0.4197588,,,,,,,,,,,,,,,,,,,,,,10,7,2,2024-10-20_15h03.44.445,uWM_experiment,2022.2.3,59.99142123
,,,,,,,,,,,,,,,,,,,,10,0,10,0,14,0,14,0,,,,,,,,,,,,,,,,,,,,,,,,,,,,,,,,,,,,,,,,,,,,,,,,,,,,,,,,,,,,,,,,,,,,,,0,,,,,,,,,,,,,,,,,,,,,,,,,,,,left,0,10,30,40,0,3139.199029,3139.199029,3139.199029,None,None,2,0,0.3548244,,,,,,,,,,,,,,,,,,,,,,10,7,2,2024-10-20_15h03.44.445,uWM_experiment,2022.2.3,59.99142123
,,,,,,,,,,,,,,,,,,,,10,0,10,0,15,0,15,0,,,,,,,,,,,,,,,,,,,,,,,,,,,,,,,,,,,,,,,,,,,,,,,,,,,,,,,,,,,,,,,,,,,,,,0.005,,,,,,,,,,,,,,,,,,,,,,,,,,,,right,0,160,-30,130,1,3145.715956,3145.715956,3145.715956,None,None,2,0,0.4299163,,,,,,,,,,,,,,,,,,,,,,10,7,2,2024-10-20_15h03.44.445,uWM_experiment,2022.2.3,59.99142123
,,,,,,,,,,,,,,,,,,,,10,0,10,0,16,0,16,0,,,,,,,,,,,,,,,,,,,,,,,,,,,,,,,,,,,,,,,,,,,,,,,,,,,,,,,,,,,,,,,,,,,,,,0.005,,,,,,,,,,,,,,,,,,,,,,,,,,,,right,1,100,30,130,1,3152.282878,3152.282878,3152.282878,None,None,2,0,0.3750774,,,,,,,,,,,,,,,,,,,,,,10,7,2,2024-10-20_15h03.44.445,uWM_experiment,2022.2.3,59.99142123
,,,,,,,,,,,,,,,,,,,,10,0,10,0,17,0,17,0,,,,,,,,,,,,,,,,,,,,,,,,,,,,,,,,,,,,,,,,,,,,,,,,,,,,,,,,,,,,,,,,,,,,,,0,,,,,,,,,,,,,,,,,,,,,,,,,,,,right,0,40,-30,10,0,3159.216506,3159.216506,3159.216506,None,None,2,0,2.3453163,,,,,,,,,,,,,,,,,,,,,,10,7,2,2024-10-20_15h03.44.445,uWM_experiment,2022.2.3,59.99142123
