PreTrainingPAS4_loop.thisRepN,PreTrainingPAS4_loop.thisTrialN,PreTrainingPAS4_loop.thisN,PreTrainingPAS4_loop.thisIndex,PreTrainingPAS1_loop.thisRepN,PreTrainingPAS1_loop.thisTrialN,PreTrainingPAS1_loop.thisN,PreTrainingPAS1_loop.thisIndex,RepeatCV_loop.thisRepN,RepeatCV_loop.thisTrialN,RepeatCV_loop.thisN,RepeatCV_loop.thisIndex,TrainingCV_loop.thisRepN,TrainingCV_loop.thisTrialN,TrainingCV_loop.thisN,TrainingCV_loop.thisIndex,TrainingCAL_loop.thisRepN,TrainingCAL_loop.thisTrialN,TrainingCAL_loop.thisN,TrainingCAL_loop.thisIndex,blocks_loop.thisRepN,blocks_loop.thisTrialN,blocks_loop.thisN,blocks_loop.thisIndex,trials_loop.thisRepN,trials_loop.thisTrialN,trials_loop.thisN,trials_loop.thisIndex,TrainingPAS1_loop.thisRepN,TrainingPAS1_loop.thisTrialN,TrainingPAS1_loop.thisN,TrainingPAS1_loop.thisIndex,spacebarWelcome0.started,spacebarWelcome0.keys,spacebarWelcome0.rt,spacebarWelcome1.started,gaborWelcome1.started,maskWelcome1.started,textMaskWelcome1.started,spacebarWelcome1.keys,spacebarWelcome1.rt,spacebarWelcome2.started,spacebarWelcome2.keys,spacebarWelcome2.rt,textInst_PreTrainingPAS4.started,spacebarPreTrainingPAS4.started,spacebarPreTrainingPAS4.keys,spacebarPreTrainingPAS4.rt,textPreTrainingPAS1.started,spacebarPreTrainingPAS1.started,spacebarPreTrainingPAS1.keys,spacebarPreTrainingPAS1.rt,textQUEST0.started,spacebarQUEST0.started,spacebarQUEST0.keys,spacebarQUEST0.rt,spacebar0.started,spacebar0.keys,spacebar0.rt,spacebar1.started,spacebar1.keys,spacebar1.rt,textInstructions2.started,spacebar2.started,Gabor1Inst2.started,Gabor2Inst2.started,Gabor3Inst2.started,Gabor4Inst2.started,spacebar2.keys,spacebar2.rt,textInstructionsPAS.started,spacebarInstPAS.started,spacebarInstPAS.keys,spacebarInstPAS.rt,textInstructions3.started,spacebar3.started,spacebar3.keys,spacebar3.rt,WMresp_CV,WMresp_CV_acc,oriMemo_CV,gyre_CV,oriTest_CV,feedbackText.started,feedbackText.stopped,sliderCV.started,PAStextCV.started,PASkeyCV.started,sliderCV.response,sliderCV.rt,PASkeyCV.keys,PASkeyCV.corr,PASkeyCV.rt,TextInstructionsCAL.started,spacebarCAL.started,spacebarCAL.keys,spacebarCAL.rt,contrast,WMresp_CAL,WMresp_CAL_acc,oriMemo_CAL,gyre_CAL,oriTest_CAL,cue_CAL,sliderCAL.started,PAStextCAL.started,PASkeyCAL.started,sliderCAL.response,sliderCAL.rt,PASkeyCAL.keys,PASkeyCAL.corr,PASkeyCAL.rt,propUnseen_CAL,textStart.started,spacebar4.started,spacebar4.keys,spacebar4.rt,three.started,three.stopped,two.started,two.stopped,one.started,one.stopped,blank_countdown.started,blank_countdown.stopped,WMresp,WMresp_acc,oriMemo,gyre,oriTest,cue,slider.started,textPAS_firstGabor.started,PASkey.started,slider.response,slider.rt,PASkey.keys,PASkey.corr,PASkey.rt,spacebarContinue.started,textBreak.started,spacebarContinue.keys,spacebarContinue.rt,spacebar_reminder.keys,spacebar_TrainingPAS1.keys,spacebar_endpractice.keys,spacebar_reminder.started,textReminder.started,spacebar_reminder.rt,textInst_TrainingPAS1.started,spacebar_TrainingPAS1.started,spacebar_TrainingPAS1.rt,textend_practicePAS1.started,spacebar_endpractice.started,spacebar_endpractice.rt,textThanks.started,textThanks.stopped,laboratory,participant,session,date,expName,psychopyVersion,frameRate
,,,,,,,,,,,,,,,,,,,,,,,,,,,,,,,,1508.82594,space,36.7752029,,,,,,,,,,,,,,,,,,,,,,,,,,,,,,,,,,,,,,,,,,,,,,,,,,,,,,,,,,,,,,,,,,,,,,,,,,,,,,,,,,,,,,,,,,,,,,,,,,,,,,,,,,,,,,,,,,,,,,,,,,,10,8,1,2024-10-18_17h15.29.903,uWM_experiment,2022.2.3,59.99732413
,,,,,,,,,,,,,,,,,,,,,,,,,,,,,,,,,,,1545.643865,1545.643865,1545.643865,1545.643865,space,34.2852179,,,,,,,,,,,,,,,,,,,,,,,,,,,,,,,,,,,,,,,,,,,,,,,,,,,,,,,,,,,,,,,,,,,,,,,,,,,,,,,,,,,,,,,,,,,,,,,,,,,,,,,,,,,,,,,,,,,,,10,8,1,2024-10-18_17h15.29.903,uWM_experiment,2022.2.3,59.99732413
,,,,,,,,,,,,,,,,,,,,,,,,,,,,,,,,,,,,,,,,,1579.961835,space,30.3910559,,,,,,,,,,,,,,,,,,,,,,,,,,,,,,,,,,,,,,,,,,,,,,,,,,,,,,,,,,,,,,,,,,,,,,,,,,,,,,,,,,,,,,,,,,,,,,,,,,,,,,,,,,,,,,,,,,10,8,1,2024-10-18_17h15.29.903,uWM_experiment,2022.2.3,59.99732413
,,,,,,,,,,,,,,,,,,,,,,,,,,,,,,,,,,,,,,,,,,,,1610.379719,1610.379719,space,16.4849747,,,,,,,,,,,,,,,,,,,,,,,,,,,,,,,,,,,,,,,,,,,,,,,,,,,,,,,,,,,,,,,,,,,,,,,,,,,,,,,,,,,,,,,,,,,,,,,,,,,,,,,,,,,,,,10,8,1,2024-10-18_17h15.29.903,uWM_experiment,2022.2.3,59.99732413
0,0,0,0,,,,,,,,,,,,,,,,,,,,,,,,,,,,,,,,,,,,,,,,,,,,,,,,,,,,,,,,,,,,,,,,,,,,,,,,,,,,,,,,,,,,,,,,,,,,,,,,,,,,,,,,,,,,,,,,,,,,,,,,,,,,,,,,,,,,,,,,,,,,,,,,,,,,,,,,,,10,8,1,2024-10-18_17h15.29.903,uWM_experiment,2022.2.3,59.99732413
1,0,1,0,,,,,,,,,,,,,,,,,,,,,,,,,,,,,,,,,,,,,,,,,,,,,,,,,,,,,,,,,,,,,,,,,,,,,,,,,,,,,,,,,,,,,,,,,,,,,,,,,,,,,,,,,,,,,,,,,,,,,,,,,,,,,,,,,,,,,,,,,,,,,,,,,,,,,,,,,,10,8,1,2024-10-18_17h15.29.903,uWM_experiment,2022.2.3,59.99732413
2,0,2,0,,,,,,,,,,,,,,,,,,,,,,,,,,,,,,,,,,,,,,,,,,,,,,,,,,,,,,,,,,,,,,,,,,,,,,,,,,,,,,,,,,,,,,,,,,,,,,,,,,,,,,,,,,,,,,,,,,,,,,,,,,,,,,,,,,,,,,,,,,,,,,,,,,,,,,,,,,10,8,1,2024-10-18_17h15.29.903,uWM_experiment,2022.2.3,59.99732413
,,,,,,,,,,,,,,,,,,,,,,,,,,,,,,,,,,,,,,,,,,,,,,,,1638.69752,1638.69752,space,23.2471635,,,,,,,,,,,,,,,,,,,,,,,,,,,,,,,,,,,,,,,,,,,,,,,,,,,,,,,,,,,,,,,,,,,,,,,,,,,,,,,,,,,,,,,,,,,,,,,,,,,,,,,,,,10,8,1,2024-10-18_17h15.29.903,uWM_experiment,2022.2.3,59.99732413
,,,,0,0,0,0,,,,,,,,,,,,,,,,,,,,,,,,,,,,,,,,,,,,,,,,,,,,,,,,,,,,,,,,,,,,,,,,,,,,,,,,,,,,,,,,,,,,,,,,,,,,,,,,,,,,,,,,,,,,,,,,,,,,,,,,,,,,,,,,,,,,,,,,,,,,,,,,,,,,,,10,8,1,2024-10-18_17h15.29.903,uWM_experiment,2022.2.3,59.99732413
,,,,1,0,1,0,,,,,,,,,,,,,,,,,,,,,,,,,,,,,,,,,,,,,,,,,,,,,,,,,,,,,,,,,,,,,,,,,,,,,,,,,,,,,,,,,,,,,,,,,,,,,,,,,,,,,,,,,,,,,,,,,,,,,,,,,,,,,,,,,,,,,,,,,,,,,,,,,,,,,,10,8,1,2024-10-18_17h15.29.903,uWM_experiment,2022.2.3,59.99732413
,,,,2,0,2,0,,,,,,,,,,,,,,,,,,,,,,,,,,,,,,,,,,,,,,,,,,,,,,,,,,,,,,,,,,,,,,,,,,,,,,,,,,,,,,,,,,,,,,,,,,,,,,,,,,,,,,,,,,,,,,,,,,,,,,,,,,,,,,,,,,,,,,,,,,,,,,,,,,,,,,10,8,1,2024-10-18_17h15.29.903,uWM_experiment,2022.2.3,59.99732413
,,,,,,,,,,,,,,,,,,,,,,,,,,,,,,,,,,,,,,,,,,,,,,,,,,,,1669.932064,1669.932064,space,12.1883807,,,,,,,,,,,,,,,,,,,,,,,,,,,,,,,,,,,,,,,,,,,,,,,,,,,,,,,,,,,,,,,,,,,,,,,,,,,,,,,,,,,,,,,,,,,,,,,,,,,,,,10,8,1,2024-10-18_17h15.29.903,uWM_experiment,2022.2.3,59.99732413
,,,,,,,,,,,,,,,,,,,,,,,,,,,,,,,,,,,,,,,,,,,,,,,,,,,,,,,,1830.538433,space,12.4374429,,,,,,,,,,,,,,,,,,,,,,,,,,,,,,,,,,,,,,,,,,,,,,,,,,,,,,,,,,,,,,,,,,,,,,,,,,,,,,,,,,,,,,,,,,,,,,,,,,,10,8,1,2024-10-18_17h15.29.903,uWM_experiment,2022.2.3,59.99732413
,,,,,,,,,,,,,,,,,,,,,,,,,,,,,,,,,,,,,,,,,,,,,,,,,,,,,,,,,,,1843.005594,space,95.5457338,,,,,,,,,,,,,,,,,,,,,,,,,,,,,,,,,,,,,,,,,,,,,,,,,,,,,,,,,,,,,,,,,,,,,,,,,,,,,,,,,,,,,,,,,,,,,,,,10,8,1,2024-10-18_17h15.29.903,uWM_experiment,2022.2.3,59.99732413
,,,,,,,,,,,,,,,,,,,,,,,,,,,,,,,,,,,,,,,,,,,,,,,,,,,,,,,,,,,,,,1938.576052,1938.576052,1938.576052,1938.576052,1938.576052,1938.576052,space,82.6309329,,,,,,,,,,,,,,,,,,,,,,,,,,,,,,,,,,,,,,,,,,,,,,,,,,,,,,,,,,,,,,,,,,,,,,,,,,,,,,,,,,,,,,,,10,8,1,2024-10-18_17h15.29.903,uWM_experiment,2022.2.3,59.99732413
,,,,,,,,,,,,,,,,,,,,,,,,,,,,,,,,,,,,,,,,,,,,,,,,,,,,,,,,,,,,,,,,,,,,,,2021.229323,2021.229323,space,21.4255397,,,,,,,,,,,,,,,,,,,,,,,,,,,,,,,,,,,,,,,,,,,,,,,,,,,,,,,,,,,,,,,,,,,,,,,,,,,,,,,,,,,,10,8,1,2024-10-18_17h15.29.903,uWM_experiment,2022.2.3,59.99732413
,,,,,,,,,,,,,,,,,,,,,,,,,,,,,,,,,,,,,,,,,,,,,,,,,,,,,,,,,,,,,,,,,,,,,,,,,,2042.680172,2042.680172,space,20.7026534,,,,,,,,,,,,,,,,,,,,,,,,,,,,,,,,,,,,,,,,,,,,,,,,,,,,,,,,,,,,,,,,,,,,,,,,,,,,,,,,10,8,1,2024-10-18_17h15.29.903,uWM_experiment,2022.2.3,59.99732413
,,,,,,,,0,0,0,0,0,0,0,0,,,,,,,,,,,,,,,,,,,,,,,,,,,,,,,,,,,,,,,,,,,,,,,,,,,,,,,,,,,,,,,right,1,10,30,40,2086.931943,2087.931982,2087.931982,2087.931982,2087.931982,None,None,4,0,4.6506243,,,,,,,,,,,,,,,,,,,,,,,,,,,,,,,,,,,,,,,,,,,,,,,,,,,,,,,,,,,,,,,,,10,8,1,2024-10-18_17h15.29.903,uWM_experiment,2022.2.3,59.99732413
,,,,,,,,0,0,0,0,1,0,1,0,,,,,,,,,,,,,,,,,,,,,,,,,,,,,,,,,,,,,,,,,,,,,,,,,,,,,,,,,,,,,,,left,1,160,-30,130,2099.815794,2100.81582,2100.81582,2100.81582,2100.81582,None,None,4,0,2.3186525,,,,,,,,,,,,,,,,,,,,,,,,,,,,,,,,,,,,,,,,,,,,,,,,,,,,,,,,,,,,,,,,,10,8,1,2024-10-18_17h15.29.903,uWM_experiment,2022.2.3,59.99732413
,,,,,,,,0,0,0,0,2,0,2,0,,,,,,,,,,,,,,,,,,,,,,,,,,,,,,,,,,,,,,,,,,,,,,,,,,,,,,,,,,,,,,,right,1,10,30,40,2110.699555,2111.699587,2111.699587,2111.699587,2111.699587,None,None,4,0,1.378943,,,,,,,,,,,,,,,,,,,,,,,,,,,,,,,,,,,,,,,,,,,,,,,,,,,,,,,,,,,,,,,,,10,8,1,2024-10-18_17h15.29.903,uWM_experiment,2022.2.3,59.99732413
,,,,,,,,0,0,0,0,3,0,3,0,,,,,,,,,,,,,,,,,,,,,,,,,,,,,,,,,,,,,,,,,,,,,,,,,,,,,,,,,,,,,,,left,1,130,-30,100,2121.88333,2122.883411,2122.883411,2122.883411,2122.883411,None,None,4,0,1.2270941,,,,,,,,,,,,,,,,,,,,,,,,,,,,,,,,,,,,,,,,,,,,,,,,,,,,,,,,,,,,,,,,,10,8,1,2024-10-18_17h15.29.903,uWM_experiment,2022.2.3,59.99732413
,,,,,,,,0,0,0,0,4,0,4,0,,,,,,,,,,,,,,,,,,,,,,,,,,,,,,,,,,,,,,,,,,,,,,,,,,,,,,,,,,,,,,,right,0,40,-30,10,2130.200325,,2131.200357,2131.200357,2131.200357,None,None,4,0,2.0219751,,,,,,,,,,,,,,,,,,,,,,,,,,,,,,,,,,,,,,,,,,,,,,,,,,,,,,,,,,,,,,,,,10,8,1,2024-10-18_17h15.29.903,uWM_experiment,2022.2.3,59.99732413
,,,,,,,,0,0,0,0,5,0,5,0,,,,,,,,,,,,,,,,,,,,,,,,,,,,,,,,,,,,,,,,,,,,,,,,,,,,,,,,,,,,,,,left,1,160,-30,130,2139.650711,,2140.650763,2140.650763,2140.650763,None,None,4,0,0.6355321,,,,,,,,,,,,,,,,,,,,,,,,,,,,,,,,,,,,,,,,,,,,,,,,,,,,,,,,,,,,,,,,,10,8,1,2024-10-18_17h15.29.903,uWM_experiment,2022.2.3,59.99732413
,,,,,,,,0,0,0,0,6,0,6,0,,,,,,,,,,,,,,,,,,,,,,,,,,,,,,,,,,,,,,,,,,,,,,,,,,,,,,,,,,,,,,,left,0,70,30,100,2159.93486,2160.934873,2160.934873,2160.934873,2160.934873,None,None,4,0,1.8954855,,,,,,,,,,,,,,,,,,,,,,,,,,,,,,,,,,,,,,,,,,,,,,,,,,,,,,,,,,,,,,,,,10,8,1,2024-10-18_17h15.29.903,uWM_experiment,2022.2.3,59.99732413
,,,,,,,,0,0,0,0,7,0,7,0,,,,,,,,,,,,,,,,,,,,,,,,,,,,,,,,,,,,,,,,,,,,,,,,,,,,,,,,,,,,,,,right,1,130,30,160,2170.635279,,2171.635298,2171.635298,2171.635298,None,None,4,0,1.115008,,,,,,,,,,,,,,,,,,,,,,,,,,,,,,,,,,,,,,,,,,,,,,,,,,,,,,,,,,,,,,,,,10,8,1,2024-10-18_17h15.29.903,uWM_experiment,2022.2.3,59.99732413
,,,,,,,,0,0,0,0,8,0,8,0,,,,,,,,,,,,,,,,,,,,,,,,,,,,,,,,,,,,,,,,,,,,,,,,,,,,,,,,,,,,,,,right,1,100,30,130,2179.135618,2180.13563,2180.13563,2180.13563,2180.13563,None,None,4,0,1.1905238,,,,,,,,,,,,,,,,,,,,,,,,,,,,,,,,,,,,,,,,,,,,,,,,,,,,,,,,,,,,,,,,,10,8,1,2024-10-18_17h15.29.903,uWM_experiment,2022.2.3,59.99732413
,,,,,,,,0,0,0,0,9,0,9,0,,,,,,,,,,,,,,,,,,,,,,,,,,,,,,,,,,,,,,,,,,,,,,,,,,,,,,,,,,,,,,,right,1,160,30,190,2188.21929,2189.219328,2189.219328,2189.219328,2189.219328,None,None,4,0,0.57886,,,,,,,,,,,,,,,,,,,,,,,,,,,,,,,,,,,,,,,,,,,,,,,,,,,,,,,,,,,,,,,,,10,8,1,2024-10-18_17h15.29.903,uWM_experiment,2022.2.3,59.99732413
,,,,,,,,0,0,0,0,10,0,10,0,,,,,,,,,,,,,,,,,,,,,,,,,,,,,,,,,,,,,,,,,,,,,,,,,,,,,,,,,,,,,,,left,0,70,30,100,2196.486293,2197.486311,2197.486311,2197.486311,2197.486311,None,None,4,0,1.6557847,,,,,,,,,,,,,,,,,,,,,,,,,,,,,,,,,,,,,,,,,,,,,,,,,,,,,,,,,,,,,,,,,10,8,1,2024-10-18_17h15.29.903,uWM_experiment,2022.2.3,59.99732413
,,,,,,,,0,0,0,0,11,0,11,0,,,,,,,,,,,,,,,,,,,,,,,,,,,,,,,,,,,,,,,,,,,,,,,,,,,,,,,,,,,,,,,right,1,70,30,100,2209.570159,2210.570191,2210.570191,2210.570191,2210.570191,None,None,4,0,3.0599353,,,,,,,,,,,,,,,,,,,,,,,,,,,,,,,,,,,,,,,,,,,,,,,,,,,,,,,,,,,,,,,,,10,8,1,2024-10-18_17h15.29.903,uWM_experiment,2022.2.3,59.99732413
,,,,,,,,0,0,0,0,,,,,,,,,,,,,,,,,,,,,,,,,,,,,,,,,,,,,,,,,,,,,,,,,,,,,,,,,,,,,,,,,,,,,,,,,,,,,,,,,,,,,,,,,,,,,,,,,,,,,,,,,,,,,,,,,,,,,,,,,,,,,,,,,,,,,,,,,,,,,,,,,,10,8,1,2024-10-18_17h15.29.903,uWM_experiment,2022.2.3,59.99732413
,,,,,,,,,,,,,,,,,,,,,,,,,,,,,,,,,,,,,,,,,,,,,,,,,,,,,,,,,,,,,,,,,,,,,,,,,,,,,,,,,,,,,,,,,,,,,2261.222176,2261.222176,space,4.7357062,,,,,,,,,,,,,,,,,,,,,,,,,,,,,,,,,,,,,,,,,,,,,,,,,,,,,,,,,,,,,10,8,1,2024-10-18_17h15.29.903,uWM_experiment,2022.2.3,59.99732413
,,,,,,,,,,,,,,,,0,0,0,0,,,,,,,,,,,,,,,,,,,,,,,,,,,,,,,,,,,,,,,,,,,,,,,,,,,,,,,,,,,,,,,,,,,,,,,,,,,,,,0.069646443,right,0,100,-30,70,1,2274.106041,2274.106041,2274.106041,None,None,4,0,1.1477942,,,,,,,,,,,,,,,,,,,,,,,,,,,,,,,,,,,,,,,,,,,,,,10,8,1,2024-10-18_17h15.29.903,uWM_experiment,2022.2.3,59.99732413
,,,,,,,,,,,,,,,,1,0,1,0,,,,,,,,,,,,,,,,,,,,,,,,,,,,,,,,,,,,,,,,,,,,,,,,,,,,,,,,,,,,,,,,,,,,,,,,,,,,,,0.1,right,0,130,-30,100,2,2288.489918,2288.489918,2288.489918,None,None,4,0,2.0998001,0,,,,,,,,,,,,,,,,,,,,,,,,,,,,,,,,,,,,,,,,,,,,,10,8,1,2024-10-18_17h15.29.903,uWM_experiment,2022.2.3,59.99732413
,,,,,,,,,,,,,,,,2,0,2,0,,,,,,,,,,,,,,,,,,,,,,,,,,,,,,,,,,,,,,,,,,,,,,,,,,,,,,,,,,,,,,,,,,,,,,,,,,,,,,0.059646443,right,1,10,30,40,1,2296.806928,2296.806928,2296.806928,None,None,4,0,0.6546872,0,,,,,,,,,,,,,,,,,,,,,,,,,,,,,,,,,,,,,,,,,,,,,10,8,1,2024-10-18_17h15.29.903,uWM_experiment,2022.2.3,59.99732413
,,,,,,,,,,,,,,,,3,0,3,0,,,,,,,,,,,,,,,,,,,,,,,,,,,,,,,,,,,,,,,,,,,,,,,,,,,,,,,,,,,,,,,,,,,,,,,,,,,,,,0.049646443,left,1,100,-30,70,1,2308.557402,2308.557402,2308.557402,None,None,4,0,0.4562247,0,,,,,,,,,,,,,,,,,,,,,,,,,,,,,,,,,,,,,,,,,,,,,10,8,1,2024-10-18_17h15.29.903,uWM_experiment,2022.2.3,59.99732413
,,,,,,,,,,,,,,,,4,0,4,0,,,,,,,,,,,,,,,,,,,,,,,,,,,,,,,,,,,,,,,,,,,,,,,,,,,,,,,,,,,,,,,,,,,,,,,,,,,,,,0.1,right,1,160,30,190,2,2317.9911,2317.9911,2317.9911,None,None,4,0,0.8384352,0,,,,,,,,,,,,,,,,,,,,,,,,,,,,,,,,,,,,,,,,,,,,,10,8,1,2024-10-18_17h15.29.903,uWM_experiment,2022.2.3,59.99732413
,,,,,,,,,,,,,,,,5,0,5,0,,,,,,,,,,,,,,,,,,,,,,,,,,,,,,,,,,,,,,,,,,,,,,,,,,,,,,,,,,,,,,,,,,,,,,,,,,,,,,0.1,left,1,70,-30,40,2,2326.674766,2326.674766,2326.674766,None,None,4,0,0.7707506,0,,,,,,,,,,,,,,,,,,,,,,,,,,,,,,,,,,,,,,,,,,,,,10,8,1,2024-10-18_17h15.29.903,uWM_experiment,2022.2.3,59.99732413
,,,,,,,,,,,,,,,,6,0,6,0,,,,,,,,,,,,,,,,,,,,,,,,,,,,,,,,,,,,,,,,,,,,,,,,,,,,,,,,,,,,,,,,,,,,,,,,,,,,,,0.1,right,1,40,30,70,2,2333.708363,2333.708363,2333.708363,None,None,4,0,0.2731775,0,,,,,,,,,,,,,,,,,,,,,,,,,,,,,,,,,,,,,,,,,,,,,10,8,1,2024-10-18_17h15.29.903,uWM_experiment,2022.2.3,59.99732413
,,,,,,,,,,,,,,,,7,0,7,0,,,,,,,,,,,,,,,,,,,,,,,,,,,,,,,,,,,,,,,,,,,,,,,,,,,,,,,,,,,,,,,,,,,,,,,,,,,,,,0.039646443,left,0,10,30,40,1,2340.241982,2340.241982,2340.241982,None,None,4,0,0.4354331,0,,,,,,,,,,,,,,,,,,,,,,,,,,,,,,,,,,,,,,,,,,,,,10,8,1,2024-10-18_17h15.29.903,uWM_experiment,2022.2.3,59.99732413
,,,,,,,,,,,,,,,,8,0,8,0,,,,,,,,,,,,,,,,,,,,,,,,,,,,,,,,,,,,,,,,,,,,,,,,,,,,,,,,,,,,,,,,,,,,,,,,,,,,,,0.029646443,left,1,40,-30,10,1,2346.658885,2346.658885,2346.658885,None,None,4,0,0.2986953,0,,,,,,,,,,,,,,,,,,,,,,,,,,,,,,,,,,,,,,,,,,,,,10,8,1,2024-10-18_17h15.29.903,uWM_experiment,2022.2.3,59.99732413
,,,,,,,,,,,,,,,,9,0,9,0,,,,,,,,,,,,,,,,,,,,,,,,,,,,,,,,,,,,,,,,,,,,,,,,,,,,,,,,,,,,,,,,,,,,,,,,,,,,,,0.019646443,left,1,160,-30,130,1,2353.425833,2353.425833,2353.425833,None,None,3,0,0.6195525,0,,,,,,,,,,,,,,,,,,,,,,,,,,,,,,,,,,,,,,,,,,,,,10,8,1,2024-10-18_17h15.29.903,uWM_experiment,2022.2.3,59.99732413
,,,,,,,,,,,,,,,,10,0,10,0,,,,,,,,,,,,,,,,,,,,,,,,,,,,,,,,,,,,,,,,,,,,,,,,,,,,,,,,,,,,,,,,,,,,,,,,,,,,,,0.009646443,right,0,40,-30,10,1,2362.726201,2362.726201,2362.726201,None,None,2,0,1.1112225,0,,,,,,,,,,,,,,,,,,,,,,,,,,,,,,,,,,,,,,,,,,,,,10,8,1,2024-10-18_17h15.29.903,uWM_experiment,2022.2.3,59.99732413
,,,,,,,,,,,,,,,,11,0,11,0,,,,,,,,,,,,,,,,,,,,,,,,,,,,,,,,,,,,,,,,,,,,,,,,,,,,,,,,,,,,,,,,,,,,,,,,,,,,,,0.1,right,1,40,30,70,2,2370.159812,2370.159812,2370.159812,None,None,4,0,1.1656159,0,,,,,,,,,,,,,,,,,,,,,,,,,,,,,,,,,,,,,,,,,,,,,10,8,1,2024-10-18_17h15.29.903,uWM_experiment,2022.2.3,59.99732413
,,,,,,,,,,,,,,,,12,0,12,0,,,,,,,,,,,,,,,,,,,,,,,,,,,,,,,,,,,,,,,,,,,,,,,,,,,,,,,,,,,,,,,,,,,,,,,,,,,,,,0.1,right,1,10,30,40,2,2377.54346,2377.54346,2377.54346,None,None,4,0,0.5738613,0,,,,,,,,,,,,,,,,,,,,,,,,,,,,,,,,,,,,,,,,,,,,,10,8,1,2024-10-18_17h15.29.903,uWM_experiment,2022.2.3,59.99732413
,,,,,,,,,,,,,,,,13,0,13,0,,,,,,,,,,,,,,,,,,,,,,,,,,,,,,,,,,,,,,,,,,,,,,,,,,,,,,,,,,,,,,,,,,,,,,,,,,,,,,0.1,left,1,70,-30,40,2,2384.143726,2384.143726,2384.143726,None,None,4,0,0.2776152,0,,,,,,,,,,,,,,,,,,,,,,,,,,,,,,,,,,,,,,,,,,,,,10,8,1,2024-10-18_17h15.29.903,uWM_experiment,2022.2.3,59.99732413
,,,,,,,,,,,,,,,,14,0,14,0,,,,,,,,,,,,,,,,,,,,,,,,,,,,,,,,,,,,,,,,,,,,,,,,,,,,,,,,,,,,,,,,,,,,,,,,,,,,,,0.1,right,1,100,30,130,2,2392.360712,2392.360712,2392.360712,None,None,4,0,0.9005088,0,,,,,,,,,,,,,,,,,,,,,,,,,,,,,,,,,,,,,,,,,,,,,10,8,1,2024-10-18_17h15.29.903,uWM_experiment,2022.2.3,59.99732413
,,,,,,,,,,,,,,,,15,0,15,0,,,,,,,,,,,,,,,,,,,,,,,,,,,,,,,,,,,,,,,,,,,,,,,,,,,,,,,,,,,,,,,,,,,,,,,,,,,,,,0.1,right,1,130,30,160,2,2400.277697,2400.277697,2400.277697,None,None,4,0,0.1836431,0,,,,,,,,,,,,,,,,,,,,,,,,,,,,,,,,,,,,,,,,,,,,,10,8,1,2024-10-18_17h15.29.903,uWM_experiment,2022.2.3,59.99732413
,,,,,,,,,,,,,,,,16,0,16,0,,,,,,,,,,,,,,,,,,,,,,,,,,,,,,,,,,,,,,,,,,,,,,,,,,,,,,,,,,,,,,,,,,,,,,,,,,,,,,0.005,left,0,70,30,100,1,2406.411256,2406.411256,2406.411256,None,None,3,0,2.761921,0,,,,,,,,,,,,,,,,,,,,,,,,,,,,,,,,,,,,,,,,,,,,,10,8,1,2024-10-18_17h15.29.903,uWM_experiment,2022.2.3,59.99732413
,,,,,,,,,,,,,,,,17,0,17,0,,,,,,,,,,,,,,,,,,,,,,,,,,,,,,,,,,,,,,,,,,,,,,,,,,,,,,,,,,,,,,,,,,,,,,,,,,,,,,0.1,right,1,160,30,190,2,2415.661604,2415.661604,2415.661604,None,None,4,0,1.359568,0,,,,,,,,,,,,,,,,,,,,,,,,,,,,,,,,,,,,,,,,,,,,,10,8,1,2024-10-18_17h15.29.903,uWM_experiment,2022.2.3,59.99732413
,,,,,,,,,,,,,,,,18,0,18,0,,,,,,,,,,,,,,,,,,,,,,,,,,,,,,,,,,,,,,,,,,,,,,,,,,,,,,,,,,,,,,,,,,,,,,,,,,,,,,0.005,left,1,100,-30,70,1,2428.195461,2428.195461,2428.195461,None,None,4,0,1.1695422,0,,,,,,,,,,,,,,,,,,,,,,,,,,,,,,,,,,,,,,,,,,,,,10,8,1,2024-10-18_17h15.29.903,uWM_experiment,2022.2.3,59.99732413
,,,,,,,,,,,,,,,,19,0,19,0,,,,,,,,,,,,,,,,,,,,,,,,,,,,,,,,,,,,,,,,,,,,,,,,,,,,,,,,,,,,,,,,,,,,,,,,,,,,,,0.1,left,1,130,-30,100,2,2442.712671,2442.712671,2442.712671,None,None,3,0,1.756326,0,,,,,,,,,,,,,,,,,,,,,,,,,,,,,,,,,,,,,,,,,,,,,10,8,1,2024-10-18_17h15.29.903,uWM_experiment,2022.2.3,59.99732413
,,,,,,,,,,,,,,,,20,0,20,0,,,,,,,,,,,,,,,,,,,,,,,,,,,,,,,,,,,,,,,,,,,,,,,,,,,,,,,,,,,,,,,,,,,,,,,,,,,,,,0.005,right,1,160,30,190,1,2450.763004,2450.763004,2450.763004,None,None,2,0,0.3379259,0,,,,,,,,,,,,,,,,,,,,,,,,,,,,,,,,,,,,,,,,,,,,,10,8,1,2024-10-18_17h15.29.903,uWM_experiment,2022.2.3,59.99732413
,,,,,,,,,,,,,,,,21,0,21,0,,,,,,,,,,,,,,,,,,,,,,,,,,,,,,,,,,,,,,,,,,,,,,,,,,,,,,,,,,,,,,,,,,,,,,,,,,,,,,0.005,left,1,130,-30,100,1,2458.346645,2458.346645,2458.346645,None,None,1,1,0.3063002,0,,,,,,,,,,,,,,,,,,,,,,,,,,,,,,,,,,,,,,,,,,,,,10,8,1,2024-10-18_17h15.29.903,uWM_experiment,2022.2.3,59.99732413
,,,,,,,,,,,,,,,,22,0,22,0,,,,,,,,,,,,,,,,,,,,,,,,,,,,,,,,,,,,,,,,,,,,,,,,,,,,,,,,,,,,,,,,,,,,,,,,,,,,,,0.015,left,0,10,30,40,1,2469.130409,2469.130409,2469.130409,None,None,2,0,2.05055,0.045454545,,,,,,,,,,,,,,,,,,,,,,,,,,,,,,,,,,,,,,,,,,,,,10,8,1,2024-10-18_17h15.29.903,uWM_experiment,2022.2.3,59.99732413
,,,,,,,,,,,,,,,,23,0,23,0,,,,,,,,,,,,,,,,,,,,,,,,,,,,,,,,,,,,,,,,,,,,,,,,,,,,,,,,,,,,,,,,,,,,,,,,,,,,,,0.1,left,1,70,-30,40,2,2477.630737,2477.630737,2477.630737,None,None,4,0,0.7421321,0.043478261,,,,,,,,,,,,,,,,,,,,,,,,,,,,,,,,,,,,,,,,,,,,,10,8,1,2024-10-18_17h15.29.903,uWM_experiment,2022.2.3,59.99732413
,,,,,,,,,,,,,,,,,,,,,,,,,,,,,,,,,,,,,,,,,,,,,,,,,,,,,,,,,,,,,,,,,,,,,,,,,,,,,,,,,,,,,,,,,,,,,,,,,,,,,,,,,,,,,,,,,2478.397405,2479.380773,space,10.4960151,,,,,,,,,,,,,,,,,,,,,,,,,,,,,,,,,,,,,,,,,10,8,1,2024-10-18_17h15.29.903,uWM_experiment,2022.2.3,59.99732413
,,,,,,,,,,,,,,,,,,,,0,0,0,0,0,0,0,0,,,,,,,,,,,,,,,,,,,,,,,,,,,,,,,,,,,,,,,,,,,,,,,,,,,,,,,,,,,,,,,,,,,,,,0.015,,,,,,,,,,,,,,,,,,,,2489.897913,2490.597902,2490.881243,2491.581283,2491.881412,2492.581312,2492.581312,2492.931332,left,0,10,30,40,1,2498.714904,2498.714904,2498.714904,None,None,2,0,0.9218435,,,,,,,,,,,,,,,,,,,10,8,1,2024-10-18_17h15.29.903,uWM_experiment,2022.2.3,59.99732413
,,,,,,,,,,,,,,,,,,,,0,0,0,0,1,0,1,0,,,,,,,,,,,,,,,,,,,,,,,,,,,,,,,,,,,,,,,,,,,,,,,,,,,,,,,,,,,,,,,,,,,,,,0.005,,,,,,,,,,,,,,,,,,,,,,,,,,,,left,1,160,-30,130,1,2506.965225,2506.965225,2506.965225,None,None,1,1,0.3514984,,,,,,,,,,,,,,,,,,,10,8,1,2024-10-18_17h15.29.903,uWM_experiment,2022.2.3,59.99732413
,,,,,,,,,,,,,,,,,,,,0,0,0,0,2,0,2,0,,,,,,,,,,,,,,,,,,,,,,,,,,,,,,,,,,,,,,,,,,,,,,,,,,,,,,,,,,,,,,,,,,,,,,0.015,,,,,,,,,,,,,,,,,,,,,,,,,,,,right,1,130,30,160,1,2513.998825,2513.998825,2513.998825,None,None,1,1,0.365944,,,,,,,,,,,,,,,,,,,10,8,1,2024-10-18_17h15.29.903,uWM_experiment,2022.2.3,59.99732413
,,,,,,,,,,,,,,,,,,,,0,0,0,0,3,0,3,0,,,,,,,,,,,,,,,,,,,,,,,,,,,,,,,,,,,,,,,,,,,,,,,,,,,,,,,,,,,,,,,,,,,,,,0.025,,,,,,,,,,,,,,,,,,,,,,,,,,,,right,0,100,-30,70,1,2521.73249,2521.73249,2521.73249,None,None,1,1,0.4242255,,,,,,,,,,,,,,,,,,,10,8,1,2024-10-18_17h15.29.903,uWM_experiment,2022.2.3,59.99732413
,,,,,,,,,,,,,,,,,,,,0,0,0,0,4,0,4,0,,,,,,,,,,,,,,,,,,,,,,,,,,,,,,,,,,,,,,,,,,,,,,,,,,,,,,,,,,,,,,,,,,,,,,0.035,,,,,,,,,,,,,,,,,,,,,,,,,,,,left,0,10,30,40,1,2528.982736,2528.982736,2528.982736,None,None,1,1,0.4378286,,,,,,,,,,,,,,,,,,,10,8,1,2024-10-18_17h15.29.903,uWM_experiment,2022.2.3,59.99732413
,,,,,,,,,,,,,,,,,,,,0,0,0,0,5,0,5,0,,,,,,,,,,,,,,,,,,,,,,,,,,,,,,,,,,,,,,,,,,,,,,,,,,,,,,,,,,,,,,,,,,,,,,0,,,,,,,,,,,,,,,,,,,,,,,,,,,,left,0,40,30,70,0,2537.233105,2537.233105,2537.233105,None,None,1,1,0.7074583,,,,,,,,,,,,,,,,,,,10,8,1,2024-10-18_17h15.29.903,uWM_experiment,2022.2.3,59.99732413
,,,,,,,,,,,,,,,,,,,,0,0,0,0,6,0,6,0,,,,,,,,,,,,,,,,,,,,,,,,,,,,,,,,,,,,,,,,,,,,,,,,,,,,,,,,,,,,,,,,,,,,,,0.045,,,,,,,,,,,,,,,,,,,,,,,,,,,,left,1,70,-30,40,1,2543.850006,2543.850006,2543.850006,None,None,2,0,1.0585692,,,,,,,,,,,,,,,,,,,10,8,1,2024-10-18_17h15.29.903,uWM_experiment,2022.2.3,59.99732413
,,,,,,,,,,,,,,,,,,,,0,0,0,0,7,0,7,0,,,,,,,,,,,,,,,,,,,,,,,,,,,,,,,,,,,,,,,,,,,,,,,,,,,,,,,,,,,,,,,,,,,,,,0.035,,,,,,,,,,,,,,,,,,,,,,,,,,,,right,0,160,-30,130,1,2556.033827,2556.033827,2556.033827,None,None,2,0,0.3546411,,,,,,,,,,,,,,,,,,,10,8,1,2024-10-18_17h15.29.903,uWM_experiment,2022.2.3,59.99732413
,,,,,,,,,,,,,,,,,,,,0,0,0,0,8,0,8,0,,,,,,,,,,,,,,,,,,,,,,,,,,,,,,,,,,,,,,,,,,,,,,,,,,,,,,,,,,,,,,,,,,,,,,0.025,,,,,,,,,,,,,,,,,,,,,,,,,,,,left,1,100,-30,70,1,2562.11744,2562.11744,2562.11744,None,None,1,1,0.2950487,,,,,,,,,,,,,,,,,,,10,8,1,2024-10-18_17h15.29.903,uWM_experiment,2022.2.3,59.99732413
,,,,,,,,,,,,,,,,,,,,0,0,0,0,9,0,9,0,,,,,,,,,,,,,,,,,,,,,,,,,,,,,,,,,,,,,,,,,,,,,,,,,,,,,,,,,,,,,,,,,,,,,,0,,,,,,,,,,,,,,,,,,,,,,,,,,,,right,0,160,-30,130,0,2568.851006,2568.851006,2568.851006,None,None,2,0,1.1853756,,,,,,,,,,,,,,,,,,,10,8,1,2024-10-18_17h15.29.903,uWM_experiment,2022.2.3,59.99732413
,,,,,,,,,,,,,,,,,,,,0,0,0,0,10,0,10,0,,,,,,,,,,,,,,,,,,,,,,,,,,,,,,,,,,,,,,,,,,,,,,,,,,,,,,,,,,,,,,,,,,,,,,0.1,,,,,,,,,,,,,,,,,,,,,,,,,,,,right,1,40,30,70,2,2576.351322,2576.351322,2576.351322,None,None,4,0,0.413107,,,,,,,,,,,,,,,,,,,10,8,1,2024-10-18_17h15.29.903,uWM_experiment,2022.2.3,59.99732413
,,,,,,,,,,,,,,,,,,,,0,0,0,0,11,0,11,0,,,,,,,,,,,,,,,,,,,,,,,,,,,,,,,,,,,,,,,,,,,,,,,,,,,,,,,,,,,,,,,,,,,,,,0,,,,,,,,,,,,,,,,,,,,,,,,,,,,left,1,40,-30,10,0,2582.501564,2582.501564,2582.501564,None,None,3,0,1.86288,,,,,,,,,,,,,,,,,,,10,8,1,2024-10-18_17h15.29.903,uWM_experiment,2022.2.3,59.99732413
,,,,,,,,,,,,,,,,,,,,0,0,0,0,12,0,12,0,,,,,,,,,,,,,,,,,,,,,,,,,,,,,,,,,,,,,,,,,,,,,,,,,,,,,,,,,,,,,,,,,,,,,,0.035,,,,,,,,,,,,,,,,,,,,,,,,,,,,left,1,70,-30,40,1,2590.185202,2590.185202,2590.185202,None,None,2,0,1.1391282,,,,,,,,,,,,,,,,,,,10,8,1,2024-10-18_17h15.29.903,uWM_experiment,2022.2.3,59.99732413
,,,,,,,,,,,,,,,,,,,,0,0,0,0,13,0,13,0,,,,,,,,,,,,,,,,,,,,,,,,,,,,,,,,,,,,,,,,,,,,,,,,,,,,,,,,,,,,,,,,,,,,,,0.025,,,,,,,,,,,,,,,,,,,,,,,,,,,,left,0,100,30,130,1,2599.185533,2599.185533,2599.185533,None,None,1,1,0.6908112,,,,,,,,,,,,,,,,,,,10,8,1,2024-10-18_17h15.29.903,uWM_experiment,2022.2.3,59.99732413
,,,,,,,,,,,,,,,,,,,,0,0,0,0,14,0,14,0,,,,,,,,,,,,,,,,,,,,,,,,,,,,,,,,,,,,,,,,,,,,,,,,,,,,,,,,,,,,,,,,,,,,,,0.035,,,,,,,,,,,,,,,,,,,,,,,,,,,,right,1,130,30,160,1,2605.685796,2605.685796,2605.685796,None,None,2,0,0.7745409,,,,,,,,,,,,,,,,,,,10,8,1,2024-10-18_17h15.29.903,uWM_experiment,2022.2.3,59.99732413
,,,,,,,,,,,,,,,,,,,,0,0,0,0,15,0,15,0,,,,,,,,,,,,,,,,,,,,,,,,,,,,,,,,,,,,,,,,,,,,,,,,,,,,,,,,,,,,,,,,,,,,,,0.025,,,,,,,,,,,,,,,,,,,,,,,,,,,,right,1,10,30,40,1,2615.302862,2615.302862,2615.302862,None,None,2,0,0.4533101,,,,,,,,,,,,,,,,,,,10,8,1,2024-10-18_17h15.29.903,uWM_experiment,2022.2.3,59.99732413
,,,,,,,,,,,,,,,,,,,,0,0,0,0,16,0,16,0,,,,,,,,,,,,,,,,,,,,,,,,,,,,,,,,,,,,,,,,,,,,,,,,,,,,,,,,,,,,,,,,,,,,,,0.015,,,,,,,,,,,,,,,,,,,,,,,,,,,,right,1,40,30,70,1,2621.719783,2621.719783,2621.719783,None,None,2,0,0.444474,,,,,,,,,,,,,,,,,,,10,8,1,2024-10-18_17h15.29.903,uWM_experiment,2022.2.3,59.99732413
,,,,,,,,,,,,,,,,,,,,0,0,0,0,17,0,17,0,,,,,,,,,,,,,,,,,,,,,,,,,,,,,,,,,,,,,,,,,,,,,,,,,,,,,,,,,,,,,,,,,,,,,,0.005,,,,,,,,,,,,,,,,,,,,,,,,,,,,left,1,40,-30,10,1,2628.236691,2628.236691,2628.236691,None,None,1,1,0.343508,,,,,,,,,,,,,,,,,,,10,8,1,2024-10-18_17h15.29.903,uWM_experiment,2022.2.3,59.99732413
,,,,,,,,,,,,,,,,,,,,0,0,0,0,18,0,18,0,,,,,,,,,,,,,,,,,,,,,,,,,,,,,,,,,,,,,,,,,,,,,,,,,,,,,,,,,,,,,,,,,,,,,,0.015,,,,,,,,,,,,,,,,,,,,,,,,,,,,left,0,100,30,130,1,2634.436955,2634.436955,2634.436955,None,None,1,1,0.3752407,,,,,,,,,,,,,,,,,,,10,8,1,2024-10-18_17h15.29.903,uWM_experiment,2022.2.3,59.99732413
,,,,,,,,,,,,,,,,,,,,0,0,0,0,19,0,19,0,,,,,,,,,,,,,,,,,,,,,,,,,,,,,,,,,,,,,,,,,,,,,,,,,,,,,,,,,,,,,,,,,,,,,,0.025,,,,,,,,,,,,,,,,,,,,,,,,,,,,left,1,160,-30,130,1,2640.887222,2640.887222,2640.887222,None,None,1,1,0.4609696,,,,,,,,,,,,,,,,,,,10,8,1,2024-10-18_17h15.29.903,uWM_experiment,2022.2.3,59.99732413
,,,,,,,,,,,,,,,,,,,,0,0,0,0,20,0,20,0,,,,,,,,,,,,,,,,,,,,,,,,,,,,,,,,,,,,,,,,,,,,,,,,,,,,,,,,,,,,,,,,,,,,,,0,,,,,,,,,,,,,,,,,,,,,,,,,,,,right,0,10,-30,-20,0,2648.237481,2648.237481,2648.237481,None,None,1,1,0.4146419,,,,,,,,,,,,,,,,,,,10,8,1,2024-10-18_17h15.29.903,uWM_experiment,2022.2.3,59.99732413
,,,,,,,,,,,,,,,,,,,,0,0,0,0,21,0,21,0,,,,,,,,,,,,,,,,,,,,,,,,,,,,,,,,,,,,,,,,,,,,,,,,,,,,,,,,,,,,,,,,,,,,,,0.035,,,,,,,,,,,,,,,,,,,,,,,,,,,,right,0,10,-30,-20,1,2655.071112,2655.071112,2655.071112,None,None,1,1,0.9570429,,,,,,,,,,,,,,,,,,,10,8,1,2024-10-18_17h15.29.903,uWM_experiment,2022.2.3,59.99732413
,,,,,,,,,,,,,,,,,,,,0,0,0,0,22,0,22,0,,,,,,,,,,,,,,,,,,,,,,,,,,,,,,,,,,,,,,,,,,,,,,,,,,,,,,,,,,,,,,,,,,,,,,0.045,,,,,,,,,,,,,,,,,,,,,,,,,,,,right,0,70,-30,40,1,2661.521368,2661.521368,2661.521368,None,None,2,0,0.3627143,,,,,,,,,,,,,,,,,,,10,8,1,2024-10-18_17h15.29.903,uWM_experiment,2022.2.3,59.99732413
,,,,,,,,,,,,,,,,,,,,0,0,0,0,23,0,23,0,,,,,,,,,,,,,,,,,,,,,,,,,,,,,,,,,,,,,,,,,,,,,,,,,,,,,,,,,,,,,,,,,,,,,,0.035,,,,,,,,,,,,,,,,,,,,,,,,,,,,left,1,70,-30,40,1,2668.021615,2668.021615,2668.021615,None,None,2,0,2.0064434,,,,,,,,,,,,,,,,,,,10,8,1,2024-10-18_17h15.29.903,uWM_experiment,2022.2.3,59.99732413
,,,,,,,,,,,,,,,,,,,,0,0,0,0,,,,,0,0,0,0,,,,,,,,,,,,,,,,,,,,,,,,,,,,,,,,,,,,,,,,,,,,,,,,,,,,,,,,,,,,,,,,,,,,,,,,,,,,,,,,,,,,,,,,,,,,,,,,,,,,,,,,,,,,2670.055019,2670.055019,space,15.3889739,None,None,,,,,,,,,,,,,10,8,1,2024-10-18_17h15.29.903,uWM_experiment,2022.2.3,59.99732413
,,,,,,,,,,,,,,,,,,,,0,0,0,0,,,,,1,0,1,0,,,,,,,,,,,,,,,,,,,,,,,,,,,,,,,,,,,,,,,,,,,,,,,,,,,,,,,,,,,,,,,,,,,,,,,,,,,,,,,,,,,,,,,,,,,,,,,,,,,,,,,,,,,,,,,,,,,,,,,,,,,,,,10,8,1,2024-10-18_17h15.29.903,uWM_experiment,2022.2.3,59.99732413
,,,,,,,,,,,,,,,,,,,,0,0,0,0,,,,,2,0,2,0,,,,,,,,,,,,,,,,,,,,,,,,,,,,,,,,,,,,,,,,,,,,,,,,,,,,,,,,,,,,,,,,,,,,,,,,,,,,,,,,,,,,,,,,,,,,,,,,,,,,,,,,,,,,,,,,,,,,,,,,,,,,,,10,8,1,2024-10-18_17h15.29.903,uWM_experiment,2022.2.3,59.99732413
,,,,,,,,,,,,,,,,,,,,1,0,1,0,0,0,0,0,,,,,,,,,,,,,,,,,,,,,,,,,,,,,,,,,,,,,,,,,,,,,,,,,,,,,,,,,,,,,,,,,,,,,,0,,,,,,,,,,,,,,,,,,,,2685.472302,2686.172318,2686.472329,2687.172381,2687.472372,2688.172423,2688.172423,2688.489088,left,1,160,-30,130,0,2693.439294,2693.439294,2693.439294,None,None,1,1,0.764649,,,,,,,None,,,,,,,,,,,,10,8,1,2024-10-18_17h15.29.903,uWM_experiment,2022.2.3,59.99732413
,,,,,,,,,,,,,,,,,,,,1,0,1,0,1,0,1,0,,,,,,,,,,,,,,,,,,,,,,,,,,,,,,,,,,,,,,,,,,,,,,,,,,,,,,,,,,,,,,,,,,,,,,0.025,,,,,,,,,,,,,,,,,,,,,,,,,,,,right,0,10,-30,-20,1,2700.022895,2700.022895,2700.022895,None,None,2,0,0.781026,,,,,,,,,,,,,,,,,,,10,8,1,2024-10-18_17h15.29.903,uWM_experiment,2022.2.3,59.99732413
,,,,,,,,,,,,,,,,,,,,1,0,1,0,2,0,2,0,,,,,,,,,,,,,,,,,,,,,,,,,,,,,,,,,,,,,,,,,,,,,,,,,,,,,,,,,,,,,,,,,,,,,,0.015,,,,,,,,,,,,,,,,,,,,,,,,,,,,left,1,130,-30,100,1,2706.689819,2706.689819,2706.689819,None,None,1,1,0.2019406,,,,,,,,,,,,,,,,,,,10,8,1,2024-10-18_17h15.29.903,uWM_experiment,2022.2.3,59.99732413
,,,,,,,,,,,,,,,,,,,,1,0,1,0,3,0,3,0,,,,,,,,,,,,,,,,,,,,,,,,,,,,,,,,,,,,,,,,,,,,,,,,,,,,,,,,,,,,,,,,,,,,,,0.025,,,,,,,,,,,,,,,,,,,,,,,,,,,,left,0,70,30,100,1,2714.673452,2714.673452,2714.673452,None,None,1,1,0.2583643,,,,,,,,,,,,,,,,,,,10,8,1,2024-10-18_17h15.29.903,uWM_experiment,2022.2.3,59.99732413
,,,,,,,,,,,,,,,,,,,,1,0,1,0,4,0,4,0,,,,,,,,,,,,,,,,,,,,,,,,,,,,,,,,,,,,,,,,,,,,,,,,,,,,,,,,,,,,,,,,,,,,,,0.035,,,,,,,,,,,,,,,,,,,,,,,,,,,,right,1,160,30,190,1,2720.790358,2720.790358,2720.790358,None,None,1,1,0.9173483,,,,,,,,,,,,,,,,,,,10,8,1,2024-10-18_17h15.29.903,uWM_experiment,2022.2.3,59.99732413
,,,,,,,,,,,,,,,,,,,,1,0,1,0,5,0,5,0,,,,,,,,,,,,,,,,,,,,,,,,,,,,,,,,,,,,,,,,,,,,,,,,,,,,,,,,,,,,,,,,,,,,,,0,,,,,,,,,,,,,,,,,,,,,,,,,,,,right,0,130,-30,100,0,2727.357328,2727.357328,2727.357328,None,None,1,1,2.2384191,,,,,,,,,,,,,,,,,,,10,8,1,2024-10-18_17h15.29.903,uWM_experiment,2022.2.3,59.99732413
,,,,,,,,,,,,,,,,,,,,1,0,1,0,6,0,6,0,,,,,,,,,,,,,,,,,,,,,,,,,,,,,,,,,,,,,,,,,,,,,,,,,,,,,,,,,,,,,,,,,,,,,,0.045,,,,,,,,,,,,,,,,,,,,,,,,,,,,left,0,40,30,70,1,2735.390955,2735.390955,2735.390955,None,None,1,1,0.844765,,,,,,,,,,,,,,,,,,,10,8,1,2024-10-18_17h15.29.903,uWM_experiment,2022.2.3,59.99732413
,,,,,,,,,,,,,,,,,,,,1,0,1,0,7,0,7,0,,,,,,,,,,,,,,,,,,,,,,,,,,,,,,,,,,,,,,,,,,,,,,,,,,,,,,,,,,,,,,,,,,,,,,0.055,,,,,,,,,,,,,,,,,,,,,,,,,,,,right,0,10,-30,-20,1,2743.99129,2743.99129,2743.99129,None,None,1,1,0.3164118,,,,,,,,,,,,,,,,,,,10,8,1,2024-10-18_17h15.29.903,uWM_experiment,2022.2.3,59.99732413
,,,,,,,,,,,,,,,,,,,,1,0,1,0,8,0,8,0,,,,,,,,,,,,,,,,,,,,,,,,,,,,,,,,,,,,,,,,,,,,,,,,,,,,,,,,,,,,,,,,,,,,,,0.1,,,,,,,,,,,,,,,,,,,,,,,,,,,,right,1,70,30,100,2,2755.358423,2755.358423,2755.358423,None,None,4,0,0.9811318,,,,,,,,,,,,,,,,,,,10,8,1,2024-10-18_17h15.29.903,uWM_experiment,2022.2.3,59.99732413
,,,,,,,,,,,,,,,,,,,,1,0,1,0,9,0,9,0,,,,,,,,,,,,,,,,,,,,,,,,,,,,,,,,,,,,,,,,,,,,,,,,,,,,,,,,,,,,,,,,,,,,,,0.065,,,,,,,,,,,,,,,,,,,,,,,,,,,,left,1,10,-30,-20,1,2762.358661,2762.358661,2762.358661,None,None,1,1,0.4769761,,,,,,,,,,,,,,,,,,,10,8,1,2024-10-18_17h15.29.903,uWM_experiment,2022.2.3,59.99732413
,,,,,,,,,,,,,,,,,,,,1,0,1,0,10,0,10,0,,,,,,,,,,,,,,,,,,,,,,,,,,,,,,,,,,,,,,,,,,,,,,,,,,,,,,,,,,,,,,,,,,,,,,0,,,,,,,,,,,,,,,,,,,,,,,,,,,,left,1,70,-30,40,0,2769.358944,2769.358944,2769.358944,None,None,1,1,0.4445891,,,,,,,,,,,,,,,,,,,10,8,1,2024-10-18_17h15.29.903,uWM_experiment,2022.2.3,59.99732413
,,,,,,,,,,,,,,,,,,,,1,0,1,0,11,0,11,0,,,,,,,,,,,,,,,,,,,,,,,,,,,,,,,,,,,,,,,,,,,,,,,,,,,,,,,,,,,,,,,,,,,,,,0.075,,,,,,,,,,,,,,,,,,,,,,,,,,,,left,0,40,30,70,1,2776.542593,2776.542593,2776.542593,None,None,2,0,0.6769795,,,,,,,,,,,,,,,,,,,10,8,1,2024-10-18_17h15.29.903,uWM_experiment,2022.2.3,59.99732413
,,,,,,,,,,,,,,,,,,,,1,0,1,0,12,0,12,0,,,,,,,,,,,,,,,,,,,,,,,,,,,,,,,,,,,,,,,,,,,,,,,,,,,,,,,,,,,,,,,,,,,,,,0,,,,,,,,,,,,,,,,,,,,,,,,,,,,left,0,160,30,190,0,2783.176173,2783.176173,2783.176173,None,None,2,0,0.93135,,,,,,,,,,,,,,,,,,,10,8,1,2024-10-18_17h15.29.903,uWM_experiment,2022.2.3,59.99732413
,,,,,,,,,,,,,,,,,,,,1,0,1,0,13,0,13,0,,,,,,,,,,,,,,,,,,,,,,,,,,,,,,,,,,,,,,,,,,,,,,,,,,,,,,,,,,,,,,,,,,,,,,0,,,,,,,,,,,,,,,,,,,,,,,,,,,,left,0,160,30,190,0,2789.426421,2789.426421,2789.426421,None,None,1,1,0.2891132,,,,,,,,,,,,,,,,,,,10,8,1,2024-10-18_17h15.29.903,uWM_experiment,2022.2.3,59.99732413
,,,,,,,,,,,,,,,,,,,,1,0,1,0,14,0,14,0,,,,,,,,,,,,,,,,,,,,,,,,,,,,,,,,,,,,,,,,,,,,,,,,,,,,,,,,,,,,,,,,,,,,,,0.065,,,,,,,,,,,,,,,,,,,,,,,,,,,,right,0,40,-30,10,1,2796.526717,2796.526717,2796.526717,None,None,1,1,0.2607562,,,,,,,,,,,,,,,,,,,10,8,1,2024-10-18_17h15.29.903,uWM_experiment,2022.2.3,59.99732413
,,,,,,,,,,,,,,,,,,,,1,0,1,0,15,0,15,0,,,,,,,,,,,,,,,,,,,,,,,,,,,,,,,,,,,,,,,,,,,,,,,,,,,,,,,,,,,,,,,,,,,,,,0.075,,,,,,,,,,,,,,,,,,,,,,,,,,,,left,0,10,30,40,1,2803.876989,2803.876989,2803.876989,None,None,1,1,0.5103257,,,,,,,,,,,,,,,,,,,10,8,1,2024-10-18_17h15.29.903,uWM_experiment,2022.2.3,59.99732413
,,,,,,,,,,,,,,,,,,,,1,0,1,0,16,0,16,0,,,,,,,,,,,,,,,,,,,,,,,,,,,,,,,,,,,,,,,,,,,,,,,,,,,,,,,,,,,,,,,,,,,,,,0.085,,,,,,,,,,,,,,,,,,,,,,,,,,,,left,1,160,-30,130,1,2811.277279,2811.277279,2811.277279,None,None,2,0,0.2859969,,,,,,,,,,,,,,,,,,,10,8,1,2024-10-18_17h15.29.903,uWM_experiment,2022.2.3,59.99732413
,,,,,,,,,,,,,,,,,,,,1,0,1,0,17,0,17,0,,,,,,,,,,,,,,,,,,,,,,,,,,,,,,,,,,,,,,,,,,,,,,,,,,,,,,,,,,,,,,,,,,,,,,0.075,,,,,,,,,,,,,,,,,,,,,,,,,,,,right,0,40,-30,10,1,2818.860914,2818.860914,2818.860914,None,None,2,0,0.9264688,,,,,,,,,,,,,,,,,,,10,8,1,2024-10-18_17h15.29.903,uWM_experiment,2022.2.3,59.99732413
,,,,,,,,,,,,,,,,,,,,1,0,1,0,18,0,18,0,,,,,,,,,,,,,,,,,,,,,,,,,,,,,,,,,,,,,,,,,,,,,,,,,,,,,,,,,,,,,,,,,,,,,,0.065,,,,,,,,,,,,,,,,,,,,,,,,,,,,left,1,70,-30,40,1,2826.694569,2826.694569,2826.694569,None,None,2,0,1.3487157,,,,,,,,,,,,,,,,,,,10,8,1,2024-10-18_17h15.29.903,uWM_experiment,2022.2.3,59.99732413
,,,,,,,,,,,,,,,,,,,,1,0,1,0,19,0,19,0,,,,,,,,,,,,,,,,,,,,,,,,,,,,,,,,,,,,,,,,,,,,,,,,,,,,,,,,,,,,,,,,,,,,,,0.055,,,,,,,,,,,,,,,,,,,,,,,,,,,,right,0,100,-30,70,1,2837.094992,2837.094992,2837.094992,None,None,2,0,1.3322851,,,,,,,,,,,,,,,,,,,10,8,1,2024-10-18_17h15.29.903,uWM_experiment,2022.2.3,59.99732413
,,,,,,,,,,,,,,,,,,,,1,0,1,0,20,0,20,0,,,,,,,,,,,,,,,,,,,,,,,,,,,,,,,,,,,,,,,,,,,,,,,,,,,,,,,,,,,,,,,,,,,,,,0.045,,,,,,,,,,,,,,,,,,,,,,,,,,,,left,0,160,30,190,1,2844.378591,2844.378591,2844.378591,None,None,2,0,0.4885321,,,,,,,,,,,,,,,,,,,10,8,1,2024-10-18_17h15.29.903,uWM_experiment,2022.2.3,59.99732413
,,,,,,,,,,,,,,,,,,,,1,0,1,0,21,0,21,0,,,,,,,,,,,,,,,,,,,,,,,,,,,,,,,,,,,,,,,,,,,,,,,,,,,,,,,,,,,,,,,,,,,,,,0.035,,,,,,,,,,,,,,,,,,,,,,,,,,,,left,1,40,-30,10,1,2851.645553,2851.645553,2851.645553,None,None,1,1,0.1576465,,,,,,,,,,,,,,,,,,,10,8,1,2024-10-18_17h15.29.903,uWM_experiment,2022.2.3,59.99732413
,,,,,,,,,,,,,,,,,,,,1,0,1,0,22,0,22,0,,,,,,,,,,,,,,,,,,,,,,,,,,,,,,,,,,,,,,,,,,,,,,,,,,,,,,,,,,,,,,,,,,,,,,0.045,,,,,,,,,,,,,,,,,,,,,,,,,,,,left,1,70,-30,40,1,2859.679187,2859.679187,2859.679187,None,None,2,0,1.5320679,,,,,,,,,,,,,,,,,,,10,8,1,2024-10-18_17h15.29.903,uWM_experiment,2022.2.3,59.99732413
,,,,,,,,,,,,,,,,,,,,1,0,1,0,23,0,23,0,,,,,,,,,,,,,,,,,,,,,,,,,,,,,,,,,,,,,,,,,,,,,,,,,,,,,,,,,,,,,,,,,,,,,,0.035,,,,,,,,,,,,,,,,,,,,,,,,,,,,right,1,130,30,160,1,2871.029651,2871.029651,2871.029651,None,None,2,0,0.485351,,,,,,,,,,,,,,,,,,,10,8,1,2024-10-18_17h15.29.903,uWM_experiment,2022.2.3,59.99732413
,,,,,,,,,,,,,,,,,,,,1,0,1,0,,,,,0,0,0,0,,,,,,,,,,,,,,,,,,,,,,,,,,,,,,,,,,,,,,,,,,,,,,,,,,,,,,,,,,,,,,,,,,,,,,,,,,,,,,,,,,,,,,,,,,,,,,,,,,,,,,,,,,,,2871.546324,2871.546324,space,33.9525621,None,None,,,,,,,,,,,,,10,8,1,2024-10-18_17h15.29.903,uWM_experiment,2022.2.3,59.99732413
,,,,,,,,,,,,,,,,,,,,1,0,1,0,,,,,1,0,1,0,,,,,,,,,,,,,,,,,,,,,,,,,,,,,,,,,,,,,,,,,,,,,,,,,,,,,,,,,,,,,,,,,,,,,,,,,,,,,,,,,,,,,,,,,,,,,,,,,,,,,,,,,,,,,,,,,,,,,,,,,,,,,,10,8,1,2024-10-18_17h15.29.903,uWM_experiment,2022.2.3,59.99732413
,,,,,,,,,,,,,,,,,,,,1,0,1,0,,,,,2,0,2,0,,,,,,,,,,,,,,,,,,,,,,,,,,,,,,,,,,,,,,,,,,,,,,,,,,,,,,,,,,,,,,,,,,,,,,,,,,,,,,,,,,,,,,,,,,,,,,,,,,,,,,,,,,,,,,,,,,,,,,,,,,,,,,10,8,1,2024-10-18_17h15.29.903,uWM_experiment,2022.2.3,59.99732413
,,,,,,,,,,,,,,,,,,,,2,0,2,0,0,0,0,0,,,,,,,,,,,,,,,,,,,,,,,,,,,,,,,,,,,,,,,,,,,,,,,,,,,,,,,,,,,,,,,,,,,,,,0.1,,,,,,,,,,,,,,,,,,,,2905.531038,2906.231041,2906.531049,2907.231081,2907.531094,2908.231117,2908.231117,2908.547805,left,1,100,-30,70,2,2915.931415,2915.931415,2915.931415,None,None,4,0,1.3915205,,,,,,,None,,,,,,,,,,,,10,8,1,2024-10-18_17h15.29.903,uWM_experiment,2022.2.3,59.99732413
,,,,,,,,,,,,,,,,,,,,2,0,2,0,1,0,1,0,,,,,,,,,,,,,,,,,,,,,,,,,,,,,,,,,,,,,,,,,,,,,,,,,,,,,,,,,,,,,,,,,,,,,,0.025,,,,,,,,,,,,,,,,,,,,,,,,,,,,left,1,70,-30,40,1,2925.848498,2925.848498,2925.848498,None,None,4,0,0.7702457,,,,,,,,,,,,,,,,,,,10,8,1,2024-10-18_17h15.29.903,uWM_experiment,2022.2.3,59.99732413
,,,,,,,,,,,,,,,,,,,,2,0,2,0,2,0,2,0,,,,,,,,,,,,,,,,,,,,,,,,,,,,,,,,,,,,,,,,,,,,,,,,,,,,,,,,,,,,,,,,,,,,,,0,,,,,,,,,,,,,,,,,,,,,,,,,,,,left,0,10,30,40,0,2932.532066,2932.532066,2932.532066,None,None,4,0,0.4706509,,,,,,,,,,,,,,,,,,,10,8,1,2024-10-18_17h15.29.903,uWM_experiment,2022.2.3,59.99732413
,,,,,,,,,,,,,,,,,,,,2,0,2,0,3,0,3,0,,,,,,,,,,,,,,,,,,,,,,,,,,,,,,,,,,,,,,,,,,,,,,,,,,,,,,,,,,,,,,,,,,,,,,0,,,,,,,,,,,,,,,,,,,,,,,,,,,,left,0,40,30,70,0,2940.465744,2940.465744,2940.465744,None,None,1,1,0.649084,,,,,,,,,,,,,,,,,,,10,8,1,2024-10-18_17h15.29.903,uWM_experiment,2022.2.3,59.99732413
,,,,,,,,,,,,,,,,,,,,2,0,2,0,4,0,4,0,,,,,,,,,,,,,,,,,,,,,,,,,,,,,,,,,,,,,,,,,,,,,,,,,,,,,,,,,,,,,,,,,,,,,,0.015,,,,,,,,,,,,,,,,,,,,,,,,,,,,right,0,130,-30,100,1,2948.29941,2948.29941,2948.29941,None,None,2,0,0.8872706,,,,,,,,,,,,,,,,,,,10,8,1,2024-10-18_17h15.29.903,uWM_experiment,2022.2.3,59.99732413
,,,,,,,,,,,,,,,,,,,,2,0,2,0,5,0,5,0,,,,,,,,,,,,,,,,,,,,,,,,,,,,,,,,,,,,,,,,,,,,,,,,,,,,,,,,,,,,,,,,,,,,,,0,,,,,,,,,,,,,,,,,,,,,,,,,,,,right,0,40,-30,10,0,2954.982992,2954.982992,2954.982992,None,None,1,1,0.275735,,,,,,,,,,,,,,,,,,,10,8,1,2024-10-18_17h15.29.903,uWM_experiment,2022.2.3,59.99732413
,,,,,,,,,,,,,,,,,,,,2,0,2,0,6,0,6,0,,,,,,,,,,,,,,,,,,,,,,,,,,,,,,,,,,,,,,,,,,,,,,,,,,,,,,,,,,,,,,,,,,,,,,0.005,,,,,,,,,,,,,,,,,,,,,,,,,,,,right,0,70,-30,40,1,2962.899969,2962.899969,2962.899969,None,None,1,1,3.3987039,,,,,,,,,,,,,,,,,,,10,8,1,2024-10-18_17h15.29.903,uWM_experiment,2022.2.3,59.99732413
,,,,,,,,,,,,,,,,,,,,2,0,2,0,7,0,7,0,,,,,,,,,,,,,,,,,,,,,,,,,,,,,,,,,,,,,,,,,,,,,,,,,,,,,,,,,,,,,,,,,,,,,,0,,,,,,,,,,,,,,,,,,,,,,,,,,,,left,0,130,30,160,0,2974.067054,2974.067054,2974.067054,None,None,2,0,0.3836149,,,,,,,,,,,,,,,,,,,10,8,1,2024-10-18_17h15.29.903,uWM_experiment,2022.2.3,59.99732413
,,,,,,,,,,,,,,,,,,,,2,0,2,0,8,0,8,0,,,,,,,,,,,,,,,,,,,,,,,,,,,,,,,,,,,,,,,,,,,,,,,,,,,,,,,,,,,,,,,,,,,,,,0.015,,,,,,,,,,,,,,,,,,,,,,,,,,,,left,1,40,-30,10,1,2982.03406,2982.03406,2982.03406,None,None,2,0,0.8166053,,,,,,,,,,,,,,,,,,,10,8,1,2024-10-18_17h15.29.903,uWM_experiment,2022.2.3,59.99732413
,,,,,,,,,,,,,,,,,,,,2,0,2,0,9,0,9,0,,,,,,,,,,,,,,,,,,,,,,,,,,,,,,,,,,,,,,,,,,,,,,,,,,,,,,,,,,,,,,,,,,,,,,0.005,,,,,,,,,,,,,,,,,,,,,,,,,,,,right,0,160,-30,130,1,2988.950984,2988.950984,2988.950984,None,None,2,0,0.6116245,,,,,,,,,,,,,,,,,,,10,8,1,2024-10-18_17h15.29.903,uWM_experiment,2022.2.3,59.99732413
,,,,,,,,,,,,,,,,,,,,2,0,2,0,10,0,10,0,,,,,,,,,,,,,,,,,,,,,,,,,,,,,,,,,,,,,,,,,,,,,,,,,,,,,,,,,,,,,,,,,,,,,,0.005,,,,,,,,,,,,,,,,,,,,,,,,,,,,left,1,70,-30,40,1,2997.384659,2997.384659,2997.384659,None,None,2,0,0.5698362,,,,,,,,,,,,,,,,,,,10,8,1,2024-10-18_17h15.29.903,uWM_experiment,2022.2.3,59.99732413
,,,,,,,,,,,,,,,,,,,,2,0,2,0,11,0,11,0,,,,,,,,,,,,,,,,,,,,,,,,,,,,,,,,,,,,,,,,,,,,,,,,,,,,,,,,,,,,,,,,,,,,,,0,,,,,,,,,,,,,,,,,,,,,,,,,,,,right,1,10,30,40,0,3003.618228,3003.618228,3003.618228,None,None,1,1,1.136194,,,,,,,,,,,,,,,,,,,10,8,1,2024-10-18_17h15.29.903,uWM_experiment,2022.2.3,59.99732413
,,,,,,,,,,,,,,,,,,,,2,0,2,0,12,0,12,0,,,,,,,,,,,,,,,,,,,,,,,,,,,,,,,,,,,,,,,,,,,,,,,,,,,,,,,,,,,,,,,,,,,,,,0,,,,,,,,,,,,,,,,,,,,,,,,,,,,right,1,130,30,160,0,3011.351884,3011.351884,3011.351884,None,None,1,1,0.6745473,,,,,,,,,,,,,,,,,,,10,8,1,2024-10-18_17h15.29.903,uWM_experiment,2022.2.3,59.99732413
,,,,,,,,,,,,,,,,,,,,2,0,2,0,13,0,13,0,,,,,,,,,,,,,,,,,,,,,,,,,,,,,,,,,,,,,,,,,,,,,,,,,,,,,,,,,,,,,,,,,,,,,,0.005,,,,,,,,,,,,,,,,,,,,,,,,,,,,right,0,70,-30,40,1,3017.702135,3017.702135,3017.702135,None,None,1,1,1.1563416,,,,,,,,,,,,,,,,,,,10,8,1,2024-10-18_17h15.29.903,uWM_experiment,2022.2.3,59.99732413
,,,,,,,,,,,,,,,,,,,,2,0,2,0,14,0,14,0,,,,,,,,,,,,,,,,,,,,,,,,,,,,,,,,,,,,,,,,,,,,,,,,,,,,,,,,,,,,,,,,,,,,,,0.015,,,,,,,,,,,,,,,,,,,,,,,,,,,,left,1,40,-30,10,1,3026.119184,3026.119184,3026.119184,None,None,1,1,0.5710898,,,,,,,,,,,,,,,,,,,10,8,1,2024-10-18_17h15.29.903,uWM_experiment,2022.2.3,59.99732413
,,,,,,,,,,,,,,,,,,,,2,0,2,0,15,0,15,0,,,,,,,,,,,,,,,,,,,,,,,,,,,,,,,,,,,,,,,,,,,,,,,,,,,,,,,,,,,,,,,,,,,,,,0.025,,,,,,,,,,,,,,,,,,,,,,,,,,,,right,1,70,30,100,1,3033.45276,3033.45276,3033.45276,None,None,1,1,1.4136326,,,,,,,,,,,,,,,,,,,10,8,1,2024-10-18_17h15.29.903,uWM_experiment,2022.2.3,59.99732413
,,,,,,,,,,,,,,,,,,,,2,0,2,0,16,0,16,0,,,,,,,,,,,,,,,,,,,,,,,,,,,,,,,,,,,,,,,,,,,,,,,,,,,,,,,,,,,,,,,,,,,,,,0.035,,,,,,,,,,,,,,,,,,,,,,,,,,,,left,0,40,30,70,1,3043.053122,3043.053122,3043.053122,None,None,2,0,0.4851477,,,,,,,,,,,,,,,,,,,10,8,1,2024-10-18_17h15.29.903,uWM_experiment,2022.2.3,59.99732413
,,,,,,,,,,,,,,,,,,,,2,0,2,0,17,0,17,0,,,,,,,,,,,,,,,,,,,,,,,,,,,,,,,,,,,,,,,,,,,,,,,,,,,,,,,,,,,,,,,,,,,,,,0,,,,,,,,,,,,,,,,,,,,,,,,,,,,left,1,10,-30,-20,0,3050.470109,3050.470109,3050.470109,None,None,1,1,0.5162424,,,,,,,,,,,,,,,,,,,10,8,1,2024-10-18_17h15.29.903,uWM_experiment,2022.2.3,59.99732413
,,,,,,,,,,,,,,,,,,,,2,0,2,0,18,0,18,0,,,,,,,,,,,,,,,,,,,,,,,,,,,,,,,,,,,,,,,,,,,,,,,,,,,,,,,,,,,,,,,,,,,,,,0.025,,,,,,,,,,,,,,,,,,,,,,,,,,,,right,0,160,-30,130,1,3057.28703,3057.28703,3057.28703,None,None,2,0,0.2031566,,,,,,,,,,,,,,,,,,,10,8,1,2024-10-18_17h15.29.903,uWM_experiment,2022.2.3,59.99732413
,,,,,,,,,,,,,,,,,,,,2,0,2,0,19,0,19,0,,,,,,,,,,,,,,,,,,,,,,,,,,,,,,,,,,,,,,,,,,,,,,,,,,,,,,,,,,,,,,,,,,,,,,0.015,,,,,,,,,,,,,,,,,,,,,,,,,,,,right,1,130,30,160,1,3063.753971,3063.753971,3063.753971,None,None,2,0,0.3442735,,,,,,,,,,,,,,,,,,,10,8,1,2024-10-18_17h15.29.903,uWM_experiment,2022.2.3,59.99732413
,,,,,,,,,,,,,,,,,,,,2,0,2,0,20,0,20,0,,,,,,,,,,,,,,,,,,,,,,,,,,,,,,,,,,,,,,,,,,,,,,,,,,,,,,,,,,,,,,,,,,,,,,0,,,,,,,,,,,,,,,,,,,,,,,,,,,,right,1,130,30,160,0,3070.187538,3070.187538,3070.187538,None,None,2,0,0.4946409,,,,,,,,,,,,,,,,,,,10,8,1,2024-10-18_17h15.29.903,uWM_experiment,2022.2.3,59.99732413
,,,,,,,,,,,,,,,,,,,,2,0,2,0,21,0,21,0,,,,,,,,,,,,,,,,,,,,,,,,,,,,,,,,,,,,,,,,,,,,,,,,,,,,,,,,,,,,,,,,,,,,,,0.005,,,,,,,,,,,,,,,,,,,,,,,,,,,,right,1,100,30,130,1,3078.737928,3078.737928,3078.737928,None,None,1,1,0.2802666,,,,,,,,,,,,,,,,,,,10,8,1,2024-10-18_17h15.29.903,uWM_experiment,2022.2.3,59.99732413
,,,,,,,,,,,,,,,,,,,,2,0,2,0,22,0,22,0,,,,,,,,,,,,,,,,,,,,,,,,,,,,,,,,,,,,,,,,,,,,,,,,,,,,,,,,,,,,,,,,,,,,,,0,,,,,,,,,,,,,,,,,,,,,,,,,,,,right,1,130,30,160,0,3087.921591,3087.921591,3087.921591,None,None,1,1,1.4245255,,,,,,,,,,,,,,,,,,,10,8,1,2024-10-18_17h15.29.903,uWM_experiment,2022.2.3,59.99732413
,,,,,,,,,,,,,,,,,,,,2,0,2,0,23,0,23,0,,,,,,,,,,,,,,,,,,,,,,,,,,,,,,,,,,,,,,,,,,,,,,,,,,,,,,,,,,,,,,,,,,,,,,0,,,,,,,,,,,,,,,,,,,,,,,,,,,,left,1,70,-30,40,0,3094.971846,3094.971846,3094.971846,None,None,1,1,0.7982292,,,,,,,,,,,,,,,,,,,10,8,1,2024-10-18_17h15.29.903,uWM_experiment,2022.2.3,59.99732413
,,,,,,,,,,,,,,,,,,,,2,0,2,0,,,,,0,0,0,0,,,,,,,,,,,,,,,,,,,,,,,,,,,,,,,,,,,,,,,,,,,,,,,,,,,,,,,,,,,,,,,,,,,,,,,,,,,,,,,,,,,,,,,,,,,,,,,,,,,,,,,,,,,,3095.788535,3095.788535,space,21.853501,space,None,,3117.672743,3117.672743,13.2171698,,,,,,,,,10,8,1,2024-10-18_17h15.29.903,uWM_experiment,2022.2.3,59.99732413
,,,,,,,,,,,,,,,,,,,,2,0,2,0,,,,,1,0,1,0,,,,,,,,,,,,,,,,,,,,,,,,,,,,,,,,,,,,,,,,,,,,,,,,,,,,,,,,,,,,,,,,,,,,,,,,,,,,,,,,,,,,,,,,,,,,,,,,,,,,,,,,,,,,,,,,,,,,,,,,,,,,,,10,8,1,2024-10-18_17h15.29.903,uWM_experiment,2022.2.3,59.99732413
,,,,,,,,,,,,,,,,,,,,2,0,2,0,,,,,2,0,2,0,,,,,,,,,,,,,,,,,,,,,,,,,,,,,,,,,,,,,,,,,,,,,,,,,,,,,,,,,,,,,,,,,,,,,,,,,,,,,,,,,,,,,,,,,,,,,,,,,,,,,,,,,,,,,,,,,,,,,,,,,,,,,,10,8,1,2024-10-18_17h15.29.903,uWM_experiment,2022.2.3,59.99732413
,,,,,,,,,,,,,,,,,,,,3,0,3,0,0,0,0,0,,,,,,,,,,,,,,,,,,,,,,,,,,,,,,,,,,,,,,,,,,,,,,,,,,,,,,,,,,,,,,,,,,,,,,0.015,,,,,,,,,,,,,,,,,,,,3130.923267,3131.623292,3131.923307,3132.623332,3132.923349,3133.623371,3133.623371,3133.940062,right,0,100,-30,70,1,3138.540252,3138.540252,3138.540252,None,None,2,0,2.5575863,,,,,,,None,,,,,,,,,,,,10,8,1,2024-10-18_17h15.29.903,uWM_experiment,2022.2.3,59.99732413
,,,,,,,,,,,,,,,,,,,,3,0,3,0,1,0,1,0,,,,,,,,,,,,,,,,,,,,,,,,,,,,,,,,,,,,,,,,,,,,,,,,,,,,,,,,,,,,,,,,,,,,,,0.005,,,,,,,,,,,,,,,,,,,,,,,,,,,,left,0,130,30,160,1,3146.990587,3146.990587,3146.990587,None,None,2,0,0.5473105,,,,,,,,,,,,,,,,,,,10,8,1,2024-10-18_17h15.29.903,uWM_experiment,2022.2.3,59.99732413
,,,,,,,,,,,,,,,,,,,,3,0,3,0,2,0,2,0,,,,,,,,,,,,,,,,,,,,,,,,,,,,,,,,,,,,,,,,,,,,,,,,,,,,,,,,,,,,,,,,,,,,,,0.005,,,,,,,,,,,,,,,,,,,,,,,,,,,,right,0,160,-30,130,1,3153.540883,3153.540883,3153.540883,None,None,1,1,0.2367888,,,,,,,,,,,,,,,,,,,10,8,1,2024-10-18_17h15.29.903,uWM_experiment,2022.2.3,59.99732413
,,,,,,,,,,,,,,,,,,,,3,0,3,0,3,0,3,0,,,,,,,,,,,,,,,,,,,,,,,,,,,,,,,,,,,,,,,,,,,,,,,,,,,,,,,,,,,,,,,,,,,,,,0.015,,,,,,,,,,,,,,,,,,,,,,,,,,,,right,1,100,30,130,1,3160.67446,3160.67446,3160.67446,None,None,1,1,0.3592861,,,,,,,,,,,,,,,,,,,10,8,1,2024-10-18_17h15.29.903,uWM_experiment,2022.2.3,59.99732413
,,,,,,,,,,,,,,,,,,,,3,0,3,0,4,0,4,0,,,,,,,,,,,,,,,,,,,,,,,,,,,,,,,,,,,,,,,,,,,,,,,,,,,,,,,,,,,,,,,,,,,,,,0,,,,,,,,,,,,,,,,,,,,,,,,,,,,right,0,160,-30,130,0,3166.808031,3166.808031,3166.808031,None,None,1,1,0.4097772,,,,,,,,,,,,,,,,,,,10,8,1,2024-10-18_17h15.29.903,uWM_experiment,2022.2.3,59.99732413
,,,,,,,,,,,,,,,,,,,,3,0,3,0,5,0,5,0,,,,,,,,,,,,,,,,,,,,,,,,,,,,,,,,,,,,,,,,,,,,,,,,,,,,,,,,,,,,,,,,,,,,,,0.025,,,,,,,,,,,,,,,,,,,,,,,,,,,,left,1,160,-30,130,1,3172.974949,3172.974949,3172.974949,None,None,1,1,0.3227726,,,,,,,,,,,,,,,,,,,10,8,1,2024-10-18_17h15.29.903,uWM_experiment,2022.2.3,59.99732413
,,,,,,,,,,,,,,,,,,,,3,0,3,0,6,0,6,0,,,,,,,,,,,,,,,,,,,,,,,,,,,,,,,,,,,,,,,,,,,,,,,,,,,,,,,,,,,,,,,,,,,,,,0.035,,,,,,,,,,,,,,,,,,,,,,,,,,,,left,1,100,-30,70,1,3180.925264,3180.925264,3180.925264,None,None,2,0,0.2284223,,,,,,,,,,,,,,,,,,,10,8,1,2024-10-18_17h15.29.903,uWM_experiment,2022.2.3,59.99732413
,,,,,,,,,,,,,,,,,,,,3,0,3,0,7,0,7,0,,,,,,,,,,,,,,,,,,,,,,,,,,,,,,,,,,,,,,,,,,,,,,,,,,,,,,,,,,,,,,,,,,,,,,0,,,,,,,,,,,,,,,,,,,,,,,,,,,,left,0,70,30,100,0,3188.29221,3188.29221,3188.29221,None,None,1,1,2.2295542,,,,,,,,,,,,,,,,,,,10,8,1,2024-10-18_17h15.29.903,uWM_experiment,2022.2.3,59.99732413
,,,,,,,,,,,,,,,,,,,,3,0,3,0,8,0,8,0,,,,,,,,,,,,,,,,,,,,,,,,,,,,,,,,,,,,,,,,,,,,,,,,,,,,,,,,,,,,,,,,,,,,,,0.025,,,,,,,,,,,,,,,,,,,,,,,,,,,,right,0,160,-30,130,1,3196.875899,3196.875899,3196.875899,None,None,1,1,0.909748,,,,,,,,,,,,,,,,,,,10,8,1,2024-10-18_17h15.29.903,uWM_experiment,2022.2.3,59.99732413
,,,,,,,,,,,,,,,,,,,,3,0,3,0,9,0,9,0,,,,,,,,,,,,,,,,,,,,,,,,,,,,,,,,,,,,,,,,,,,,,,,,,,,,,,,,,,,,,,,,,,,,,,0,,,,,,,,,,,,,,,,,,,,,,,,,,,,right,1,70,30,100,0,3205.126228,3205.126228,3205.126228,None,None,2,0,0.331303,,,,,,,,,,,,,,,,,,,10,8,1,2024-10-18_17h15.29.903,uWM_experiment,2022.2.3,59.99732413
,,,,,,,,,,,,,,,,,,,,3,0,3,0,10,0,10,0,,,,,,,,,,,,,,,,,,,,,,,,,,,,,,,,,,,,,,,,,,,,,,,,,,,,,,,,,,,,,,,,,,,,,,0.035,,,,,,,,,,,,,,,,,,,,,,,,,,,,right,0,10,-30,-20,1,3213.776561,3213.776561,3213.776561,None,None,2,0,0.5769812,,,,,,,,,,,,,,,,,,,10,8,1,2024-10-18_17h15.29.903,uWM_experiment,2022.2.3,59.99732413
,,,,,,,,,,,,,,,,,,,,3,0,3,0,11,0,11,0,,,,,,,,,,,,,,,,,,,,,,,,,,,,,,,,,,,,,,,,,,,,,,,,,,,,,,,,,,,,,,,,,,,,,,0.025,,,,,,,,,,,,,,,,,,,,,,,,,,,,right,1,10,30,40,1,3220.310135,3220.310135,3220.310135,None,None,2,0,0.9872987,,,,,,,,,,,,,,,,,,,10,8,1,2024-10-18_17h15.29.903,uWM_experiment,2022.2.3,59.99732413
,,,,,,,,,,,,,,,,,,,,3,0,3,0,12,0,12,0,,,,,,,,,,,,,,,,,,,,,,,,,,,,,,,,,,,,,,,,,,,,,,,,,,,,,,,,,,,,,,,,,,,,,,0.1,,,,,,,,,,,,,,,,,,,,,,,,,,,,left,0,100,30,130,2,3227.610461,3227.610461,3227.610461,None,None,1,1,0.3509166,,,,,,,,,,,,,,,,,,,10,8,1,2024-10-18_17h15.29.903,uWM_experiment,2022.2.3,59.99732413
,,,,,,,,,,,,,,,,,,,,3,0,3,0,13,0,13,0,,,,,,,,,,,,,,,,,,,,,,,,,,,,,,,,,,,,,,,,,,,,,,,,,,,,,,,,,,,,,,,,,,,,,,0.015,,,,,,,,,,,,,,,,,,,,,,,,,,,,right,0,10,-30,-20,1,3233.810692,3233.810692,3233.810692,None,None,1,1,0.4147753,,,,,,,,,,,,,,,,,,,10,8,1,2024-10-18_17h15.29.903,uWM_experiment,2022.2.3,59.99732413
,,,,,,,,,,,,,,,,,,,,3,0,3,0,14,0,14,0,,,,,,,,,,,,,,,,,,,,,,,,,,,,,,,,,,,,,,,,,,,,,,,,,,,,,,,,,,,,,,,,,,,,,,0.025,,,,,,,,,,,,,,,,,,,,,,,,,,,,right,0,100,-30,70,1,3240.710952,3240.710952,3240.710952,None,None,1,1,0.4825166,,,,,,,,,,,,,,,,,,,10,8,1,2024-10-18_17h15.29.903,uWM_experiment,2022.2.3,59.99732413
,,,,,,,,,,,,,,,,,,,,3,0,3,0,15,0,15,0,,,,,,,,,,,,,,,,,,,,,,,,,,,,,,,,,,,,,,,,,,,,,,,,,,,,,,,,,,,,,,,,,,,,,,0.035,,,,,,,,,,,,,,,,,,,,,,,,,,,,left,0,130,30,160,1,3247.094565,3247.094565,3247.094565,None,None,2,0,1.02682,,,,,,,,,,,,,,,,,,,10,8,1,2024-10-18_17h15.29.903,uWM_experiment,2022.2.3,59.99732413
,,,,,,,,,,,,,,,,,,,,3,0,3,0,16,0,16,0,,,,,,,,,,,,,,,,,,,,,,,,,,,,,,,,,,,,,,,,,,,,,,,,,,,,,,,,,,,,,,,,,,,,,,0,,,,,,,,,,,,,,,,,,,,,,,,,,,,left,1,160,-30,130,0,3253.811492,3253.811492,3253.811492,None,None,1,1,0.4139402,,,,,,,,,,,,,,,,,,,10,8,1,2024-10-18_17h15.29.903,uWM_experiment,2022.2.3,59.99732413
,,,,,,,,,,,,,,,,,,,,3,0,3,0,17,0,17,0,,,,,,,,,,,,,,,,,,,,,,,,,,,,,,,,,,,,,,,,,,,,,,,,,,,,,,,,,,,,,,,,,,,,,,0,,,,,,,,,,,,,,,,,,,,,,,,,,,,left,1,10,-30,-20,0,3259.861709,3259.861709,3259.861709,None,None,1,1,0.5796241,,,,,,,,,,,,,,,,,,,10,8,1,2024-10-18_17h15.29.903,uWM_experiment,2022.2.3,59.99732413
,,,,,,,,,,,,,,,,,,,,3,0,3,0,18,0,18,0,,,,,,,,,,,,,,,,,,,,,,,,,,,,,,,,,,,,,,,,,,,,,,,,,,,,,,,,,,,,,,,,,,,,,,0.025,,,,,,,,,,,,,,,,,,,,,,,,,,,,left,0,100,30,130,1,3266.145293,3266.145293,3266.145293,None,None,1,1,0.2640609,,,,,,,,,,,,,,,,,,,10,8,1,2024-10-18_17h15.29.903,uWM_experiment,2022.2.3,59.99732413
,,,,,,,,,,,,,,,,,,,,3,0,3,0,19,0,19,0,,,,,,,,,,,,,,,,,,,,,,,,,,,,,,,,,,,,,,,,,,,,,,,,,,,,,,,,,,,,,,,,,,,,,,0.035,,,,,,,,,,,,,,,,,,,,,,,,,,,,right,0,70,-30,40,1,3272.362217,3272.362217,3272.362217,None,None,1,1,0.6869972,,,,,,,,,,,,,,,,,,,10,8,1,2024-10-18_17h15.29.903,uWM_experiment,2022.2.3,59.99732413
,,,,,,,,,,,,,,,,,,,,3,0,3,0,20,0,20,0,,,,,,,,,,,,,,,,,,,,,,,,,,,,,,,,,,,,,,,,,,,,,,,,,,,,,,,,,,,,,,,,,,,,,,0.045,,,,,,,,,,,,,,,,,,,,,,,,,,,,left,1,40,-30,10,1,3278.895803,3278.895803,3278.895803,None,None,1,1,0.3294929,,,,,,,,,,,,,,,,,,,10,8,1,2024-10-18_17h15.29.903,uWM_experiment,2022.2.3,59.99732413
,,,,,,,,,,,,,,,,,,,,3,0,3,0,21,0,21,0,,,,,,,,,,,,,,,,,,,,,,,,,,,,,,,,,,,,,,,,,,,,,,,,,,,,,,,,,,,,,,,,,,,,,,0.055,,,,,,,,,,,,,,,,,,,,,,,,,,,,right,0,40,-30,10,1,3287.179474,3287.179474,3287.179474,None,None,1,1,1.2617872,,,,,,,,,,,,,,,,,,,10,8,1,2024-10-18_17h15.29.903,uWM_experiment,2022.2.3,59.99732413
,,,,,,,,,,,,,,,,,,,,3,0,3,0,22,0,22,0,,,,,,,,,,,,,,,,,,,,,,,,,,,,,,,,,,,,,,,,,,,,,,,,,,,,,,,,,,,,,,,,,,,,,,0.065,,,,,,,,,,,,,,,,,,,,,,,,,,,,right,1,130,30,160,1,3297.296532,3297.296532,3297.296532,None,None,1,1,1.3606045,,,,,,,,,,,,,,,,,,,10,8,1,2024-10-18_17h15.29.903,uWM_experiment,2022.2.3,59.99732413
,,,,,,,,,,,,,,,,,,,,3,0,3,0,23,0,23,0,,,,,,,,,,,,,,,,,,,,,,,,,,,,,,,,,,,,,,,,,,,,,,,,,,,,,,,,,,,,,,,,,,,,,,0.1,,,,,,,,,,,,,,,,,,,,,,,,,,,,left,1,160,-30,130,2,3308.713662,3308.713662,3308.713662,None,None,4,0,0.7995019,,,,,,,,,,,,,,,,,,,10,8,1,2024-10-18_17h15.29.903,uWM_experiment,2022.2.3,59.99732413
,,,,,,,,,,,,,,,,,,,,3,0,3,0,,,,,0,0,0,0,,,,,,,,,,,,,,,,,,,,,,,,,,,,,,,,,,,,,,,,,,,,,,,,,,,,,,,,,,,,,,,,,,,,,,,,,,,,,,,,,,,,,,,,,,,,,,,,,,,,,,,,,,,,3309.53035,3309.53035,space,10.4947211,None,None,,,,,,,,,,,,,10,8,1,2024-10-18_17h15.29.903,uWM_experiment,2022.2.3,59.99732413
,,,,,,,,,,,,,,,,,,,,3,0,3,0,,,,,1,0,1,0,,,,,,,,,,,,,,,,,,,,,,,,,,,,,,,,,,,,,,,,,,,,,,,,,,,,,,,,,,,,,,,,,,,,,,,,,,,,,,,,,,,,,,,,,,,,,,,,,,,,,,,,,,,,,,,,,,,,,,,,,,,,,,10,8,1,2024-10-18_17h15.29.903,uWM_experiment,2022.2.3,59.99732413
,,,,,,,,,,,,,,,,,,,,3,0,3,0,,,,,2,0,2,0,,,,,,,,,,,,,,,,,,,,,,,,,,,,,,,,,,,,,,,,,,,,,,,,,,,,,,,,,,,,,,,,,,,,,,,,,,,,,,,,,,,,,,,,,,,,,,,,,,,,,,,,,,,,,,,,,,,,,,,,,,,,,,10,8,1,2024-10-18_17h15.29.903,uWM_experiment,2022.2.3,59.99732413
,,,,,,,,,,,,,,,,,,,,4,0,4,0,0,0,0,0,,,,,,,,,,,,,,,,,,,,,,,,,,,,,,,,,,,,,,,,,,,,,,,,,,,,,,,,,,,,,,,,,,,,,,0.075,,,,,,,,,,,,,,,,,,,,3320.047419,3320.747449,3321.047448,3321.747484,3322.047497,3322.747525,3322.747525,3323.064228,right,0,100,-30,70,1,3327.931093,3327.931093,3327.931093,None,None,1,1,0.3018869,,,,,,,None,,,,,,,,,,,,10,8,1,2024-10-18_17h15.29.903,uWM_experiment,2022.2.3,59.99732413
,,,,,,,,,,,,,,,,,,,,4,0,4,0,1,0,1,0,,,,,,,,,,,,,,,,,,,,,,,,,,,,,,,,,,,,,,,,,,,,,,,,,,,,,,,,,,,,,,,,,,,,,,0.085,,,,,,,,,,,,,,,,,,,,,,,,,,,,left,1,10,-30,-20,1,3333.964643,3333.964643,3333.964643,None,None,1,1,0.2682641,,,,,,,,,,,,,,,,,,,10,8,1,2024-10-18_17h15.29.903,uWM_experiment,2022.2.3,59.99732413
,,,,,,,,,,,,,,,,,,,,4,0,4,0,2,0,2,0,,,,,,,,,,,,,,,,,,,,,,,,,,,,,,,,,,,,,,,,,,,,,,,,,,,,,,,,,,,,,,,,,,,,,,0.095,,,,,,,,,,,,,,,,,,,,,,,,,,,,left,1,40,-30,10,1,3339.931561,3339.931561,3339.931561,None,None,2,0,0.4213228,,,,,,,,,,,,,,,,,,,10,8,1,2024-10-18_17h15.29.903,uWM_experiment,2022.2.3,59.99732413
,,,,,,,,,,,,,,,,,,,,4,0,4,0,3,0,3,0,,,,,,,,,,,,,,,,,,,,,,,,,,,,,,,,,,,,,,,,,,,,,,,,,,,,,,,,,,,,,,,,,,,,,,0.085,,,,,,,,,,,,,,,,,,,,,,,,,,,,right,1,40,30,70,1,3346.165125,3346.165125,3346.165125,None,None,2,0,0.9797692,,,,,,,,,,,,,,,,,,,10,8,1,2024-10-18_17h15.29.903,uWM_experiment,2022.2.3,59.99732413
,,,,,,,,,,,,,,,,,,,,4,0,4,0,4,0,4,0,,,,,,,,,,,,,,,,,,,,,,,,,,,,,,,,,,,,,,,,,,,,,,,,,,,,,,,,,,,,,,,,,,,,,,0,,,,,,,,,,,,,,,,,,,,,,,,,,,,left,1,130,-30,100,0,3353.298756,3353.298756,3353.298756,None,None,1,1,0.974116,,,,,,,,,,,,,,,,,,,10,8,1,2024-10-18_17h15.29.903,uWM_experiment,2022.2.3,59.99732413
,,,,,,,,,,,,,,,,,,,,4,0,4,0,5,0,5,0,,,,,,,,,,,,,,,,,,,,,,,,,,,,,,,,,,,,,,,,,,,,,,,,,,,,,,,,,,,,,,,,,,,,,,0.075,,,,,,,,,,,,,,,,,,,,,,,,,,,,left,1,70,-30,40,1,3360.249027,3360.249027,3360.249027,None,None,2,0,1.1518041,,,,,,,,,,,,,,,,,,,10,8,1,2024-10-18_17h15.29.903,uWM_experiment,2022.2.3,59.99732413
,,,,,,,,,,,,,,,,,,,,4,0,4,0,6,0,6,0,,,,,,,,,,,,,,,,,,,,,,,,,,,,,,,,,,,,,,,,,,,,,,,,,,,,,,,,,,,,,,,,,,,,,,0.065,,,,,,,,,,,,,,,,,,,,,,,,,,,,right,1,40,30,70,1,3367.33267,3367.33267,3367.33267,None,None,2,0,0.2601942,,,,,,,,,,,,,,,,,,,10,8,1,2024-10-18_17h15.29.903,uWM_experiment,2022.2.3,59.99732413
,,,,,,,,,,,,,,,,,,,,4,0,4,0,7,0,7,0,,,,,,,,,,,,,,,,,,,,,,,,,,,,,,,,,,,,,,,,,,,,,,,,,,,,,,,,,,,,,,,,,,,,,,0.055,,,,,,,,,,,,,,,,,,,,,,,,,,,,left,1,40,-30,10,1,3373.33289,3373.33289,3373.33289,None,None,2,0,0.2598685,,,,,,,,,,,,,,,,,,,10,8,1,2024-10-18_17h15.29.903,uWM_experiment,2022.2.3,59.99732413
,,,,,,,,,,,,,,,,,,,,4,0,4,0,8,0,8,0,,,,,,,,,,,,,,,,,,,,,,,,,,,,,,,,,,,,,,,,,,,,,,,,,,,,,,,,,,,,,,,,,,,,,,0.045,,,,,,,,,,,,,,,,,,,,,,,,,,,,left,1,70,-30,40,1,3382.049889,3382.049889,3382.049889,None,None,1,1,0.1748352,,,,,,,,,,,,,,,,,,,10,8,1,2024-10-18_17h15.29.903,uWM_experiment,2022.2.3,59.99732413
,,,,,,,,,,,,,,,,,,,,4,0,4,0,9,0,9,0,,,,,,,,,,,,,,,,,,,,,,,,,,,,,,,,,,,,,,,,,,,,,,,,,,,,,,,,,,,,,,,,,,,,,,0.055,,,,,,,,,,,,,,,,,,,,,,,,,,,,left,1,160,-30,130,1,3389.400186,3389.400186,3389.400186,None,None,1,1,2.0165356,,,,,,,,,,,,,,,,,,,10,8,1,2024-10-18_17h15.29.903,uWM_experiment,2022.2.3,59.99732413
,,,,,,,,,,,,,,,,,,,,4,0,4,0,10,0,10,0,,,,,,,,,,,,,,,,,,,,,,,,,,,,,,,,,,,,,,,,,,,,,,,,,,,,,,,,,,,,,,,,,,,,,,0.065,,,,,,,,,,,,,,,,,,,,,,,,,,,,right,0,100,-30,70,1,3397.450488,3397.450488,3397.450488,None,None,1,1,0.2701736,,,,,,,,,,,,,,,,,,,10,8,1,2024-10-18_17h15.29.903,uWM_experiment,2022.2.3,59.99732413
,,,,,,,,,,,,,,,,,,,,4,0,4,0,11,0,11,0,,,,,,,,,,,,,,,,,,,,,,,,,,,,,,,,,,,,,,,,,,,,,,,,,,,,,,,,,,,,,,,,,,,,,,0.075,,,,,,,,,,,,,,,,,,,,,,,,,,,,right,1,40,30,70,1,3405.234122,3405.234122,3405.234122,None,None,1,1,1.9105633,,,,,,,,,,,,,,,,,,,10,8,1,2024-10-18_17h15.29.903,uWM_experiment,2022.2.3,59.99732413
,,,,,,,,,,,,,,,,,,,,4,0,4,0,12,0,12,0,,,,,,,,,,,,,,,,,,,,,,,,,,,,,,,,,,,,,,,,,,,,,,,,,,,,,,,,,,,,,,,,,,,,,,0.1,,,,,,,,,,,,,,,,,,,,,,,,,,,,left,1,70,-30,40,2,3414.001195,3414.001195,3414.001195,None,None,4,0,0.2474473,,,,,,,,,,,,,,,,,,,10,8,1,2024-10-18_17h15.29.903,uWM_experiment,2022.2.3,59.99732413
,,,,,,,,,,,,,,,,,,,,4,0,4,0,13,0,13,0,,,,,,,,,,,,,,,,,,,,,,,,,,,,,,,,,,,,,,,,,,,,,,,,,,,,,,,,,,,,,,,,,,,,,,0.085,,,,,,,,,,,,,,,,,,,,,,,,,,,,left,1,40,-30,10,1,3420.734734,3420.734734,3420.734734,None,None,1,1,0.6178249,,,,,,,,,,,,,,,,,,,10,8,1,2024-10-18_17h15.29.903,uWM_experiment,2022.2.3,59.99732413
,,,,,,,,,,,,,,,,,,,,4,0,4,0,14,0,14,0,,,,,,,,,,,,,,,,,,,,,,,,,,,,,,,,,,,,,,,,,,,,,,,,,,,,,,,,,,,,,,,,,,,,,,0,,,,,,,,,,,,,,,,,,,,,,,,,,,,right,0,100,-30,70,0,3427.351662,3427.351662,3427.351662,None,None,1,1,0.3767926,,,,,,,,,,,,,,,,,,,10,8,1,2024-10-18_17h15.29.903,uWM_experiment,2022.2.3,59.99732413
,,,,,,,,,,,,,,,,,,,,4,0,4,0,15,0,15,0,,,,,,,,,,,,,,,,,,,,,,,,,,,,,,,,,,,,,,,,,,,,,,,,,,,,,,,,,,,,,,,,,,,,,,0,,,,,,,,,,,,,,,,,,,,,,,,,,,,left,1,40,-30,10,0,3433.535264,3433.535264,3433.535264,None,None,1,1,0.2653407,,,,,,,,,,,,,,,,,,,10,8,1,2024-10-18_17h15.29.903,uWM_experiment,2022.2.3,59.99732413
,,,,,,,,,,,,,,,,,,,,4,0,4,0,16,0,16,0,,,,,,,,,,,,,,,,,,,,,,,,,,,,,,,,,,,,,,,,,,,,,,,,,,,,,,,,,,,,,,,,,,,,,,0.095,,,,,,,,,,,,,,,,,,,,,,,,,,,,right,1,40,30,70,1,3439.518821,3439.518821,3439.518821,None,None,1,1,0.3617443,,,,,,,,,,,,,,,,,,,10,8,1,2024-10-18_17h15.29.903,uWM_experiment,2022.2.3,59.99732413
,,,,,,,,,,,,,,,,,,,,4,0,4,0,17,0,17,0,,,,,,,,,,,,,,,,,,,,,,,,,,,,,,,,,,,,,,,,,,,,,,,,,,,,,,,,,,,,,,,,,,,,,,0.105,,,,,,,,,,,,,,,,,,,,,,,,,,,,left,0,100,30,130,1,3450.302556,3450.302556,3450.302556,None,None,1,1,1.7218402,,,,,,,,,,,,,,,,,,,10,8,1,2024-10-18_17h15.29.903,uWM_experiment,2022.2.3,59.99732413
,,,,,,,,,,,,,,,,,,,,4,0,4,0,18,0,18,0,,,,,,,,,,,,,,,,,,,,,,,,,,,,,,,,,,,,,,,,,,,,,,,,,,,,,,,,,,,,,,,,,,,,,,0.115,,,,,,,,,,,,,,,,,,,,,,,,,,,,left,1,10,-30,-20,1,3457.802894,3457.802894,3457.802894,None,None,1,1,0.4055802,,,,,,,,,,,,,,,,,,,10,8,1,2024-10-18_17h15.29.903,uWM_experiment,2022.2.3,59.99732413
,,,,,,,,,,,,,,,,,,,,4,0,4,0,19,0,19,0,,,,,,,,,,,,,,,,,,,,,,,,,,,,,,,,,,,,,,,,,,,,,,,,,,,,,,,,,,,,,,,,,,,,,,0.125,,,,,,,,,,,,,,,,,,,,,,,,,,,,right,1,100,30,130,1,3464.553162,3464.553162,3464.553162,None,None,2,0,0.5112106,,,,,,,,,,,,,,,,,,,10,8,1,2024-10-18_17h15.29.903,uWM_experiment,2022.2.3,59.99732413
,,,,,,,,,,,,,,,,,,,,4,0,4,0,20,0,20,0,,,,,,,,,,,,,,,,,,,,,,,,,,,,,,,,,,,,,,,,,,,,,,,,,,,,,,,,,,,,,,,,,,,,,,0.115,,,,,,,,,,,,,,,,,,,,,,,,,,,,right,1,160,30,190,1,3470.920051,3470.920051,3470.920051,None,None,2,0,0.3522658,,,,,,,,,,,,,,,,,,,10,8,1,2024-10-18_17h15.29.903,uWM_experiment,2022.2.3,59.99732413
,,,,,,,,,,,,,,,,,,,,4,0,4,0,21,0,21,0,,,,,,,,,,,,,,,,,,,,,,,,,,,,,,,,,,,,,,,,,,,,,,,,,,,,,,,,,,,,,,,,,,,,,,0.105,,,,,,,,,,,,,,,,,,,,,,,,,,,,right,1,40,30,70,1,3476.936966,3476.936966,3476.936966,None,None,2,0,0.2552763,,,,,,,,,,,,,,,,,,,10,8,1,2024-10-18_17h15.29.903,uWM_experiment,2022.2.3,59.99732413
,,,,,,,,,,,,,,,,,,,,4,0,4,0,22,0,22,0,,,,,,,,,,,,,,,,,,,,,,,,,,,,,,,,,,,,,,,,,,,,,,,,,,,,,,,,,,,,,,,,,,,,,,0.095,,,,,,,,,,,,,,,,,,,,,,,,,,,,right,1,130,30,160,1,3483.087239,3483.087239,3483.087239,None,None,2,0,0.4490804,,,,,,,,,,,,,,,,,,,10,8,1,2024-10-18_17h15.29.903,uWM_experiment,2022.2.3,59.99732413
,,,,,,,,,,,,,,,,,,,,4,0,4,0,23,0,23,0,,,,,,,,,,,,,,,,,,,,,,,,,,,,,,,,,,,,,,,,,,,,,,,,,,,,,,,,,,,,,,,,,,,,,,0,,,,,,,,,,,,,,,,,,,,,,,,,,,,right,1,160,30,190,0,3489.370784,3489.370784,3489.370784,None,None,2,0,0.3735627,,,,,,,,,,,,,,,,,,,10,8,1,2024-10-18_17h15.29.903,uWM_experiment,2022.2.3,59.99732413
,,,,,,,,,,,,,,,,,,,,4,0,4,0,,,,,0,0,0,0,,,,,,,,,,,,,,,,,,,,,,,,,,,,,,,,,,,,,,,,,,,,,,,,,,,,,,,,,,,,,,,,,,,,,,,,,,,,,,,,,,,,,,,,,,,,,,,,,,,,,,,,,,,,3489.770794,3489.770794,space,20.9414621,None,None,,,,,,,,,,,,,10,8,1,2024-10-18_17h15.29.903,uWM_experiment,2022.2.3,59.99732413
,,,,,,,,,,,,,,,,,,,,4,0,4,0,,,,,1,0,1,0,,,,,,,,,,,,,,,,,,,,,,,,,,,,,,,,,,,,,,,,,,,,,,,,,,,,,,,,,,,,,,,,,,,,,,,,,,,,,,,,,,,,,,,,,,,,,,,,,,,,,,,,,,,,,,,,,,,,,,,,,,,,,,10,8,1,2024-10-18_17h15.29.903,uWM_experiment,2022.2.3,59.99732413
,,,,,,,,,,,,,,,,,,,,4,0,4,0,,,,,2,0,2,0,,,,,,,,,,,,,,,,,,,,,,,,,,,,,,,,,,,,,,,,,,,,,,,,,,,,,,,,,,,,,,,,,,,,,,,,,,,,,,,,,,,,,,,,,,,,,,,,,,,,,,,,,,,,,,,,,,,,,,,,,,,,,,10,8,1,2024-10-18_17h15.29.903,uWM_experiment,2022.2.3,59.99732413
,,,,,,,,,,,,,,,,,,,,5,0,5,0,0,0,0,0,,,,,,,,,,,,,,,,,,,,,,,,,,,,,,,,,,,,,,,,,,,,,,,,,,,,,,,,,,,,,,,,,,,,,,0.085,,,,,,,,,,,,,,,,,,,,3510.738298,3511.438327,3511.738375,3512.438365,3512.738375,3513.438411,3513.438411,3513.755095,right,1,130,30,160,1,3518.755276,3518.755276,3518.755276,None,None,2,0,0.3408959,,,,,,,None,,,,,,,,,,,,10,8,1,2024-10-18_17h15.29.903,uWM_experiment,2022.2.3,59.99732413
,,,,,,,,,,,,,,,,,,,,5,0,5,0,1,0,1,0,,,,,,,,,,,,,,,,,,,,,,,,,,,,,,,,,,,,,,,,,,,,,,,,,,,,,,,,,,,,,,,,,,,,,,0.075,,,,,,,,,,,,,,,,,,,,,,,,,,,,right,0,70,-30,40,1,3526.488917,3526.488917,3526.488917,None,None,2,0,3.3432006,,,,,,,,,,,,,,,,,,,10,8,1,2024-10-18_17h15.29.903,uWM_experiment,2022.2.3,59.99732413
,,,,,,,,,,,,,,,,,,,,5,0,5,0,2,0,2,0,,,,,,,,,,,,,,,,,,,,,,,,,,,,,,,,,,,,,,,,,,,,,,,,,,,,,,,,,,,,,,,,,,,,,,0.065,,,,,,,,,,,,,,,,,,,,,,,,,,,,left,0,40,30,70,1,3535.472621,3535.472621,3535.472621,None,None,2,0,4.9434496,,,,,,,,,,,,,,,,,,,10,8,1,2024-10-18_17h15.29.903,uWM_experiment,2022.2.3,59.99732413
,,,,,,,,,,,,,,,,,,,,5,0,5,0,3,0,3,0,,,,,,,,,,,,,,,,,,,,,,,,,,,,,,,,,,,,,,,,,,,,,,,,,,,,,,,,,,,,,,,,,,,,,,0.1,,,,,,,,,,,,,,,,,,,,,,,,,,,,right,1,130,30,160,2,3546.656394,3546.656394,3546.656394,None,None,4,0,0.3116365,,,,,,,,,,,,,,,,,,,10,8,1,2024-10-18_17h15.29.903,uWM_experiment,2022.2.3,59.99732413
,,,,,,,,,,,,,,,,,,,,5,0,5,0,4,0,4,0,,,,,,,,,,,,,,,,,,,,,,,,,,,,,,,,,,,,,,,,,,,,,,,,,,,,,,,,,,,,,,,,,,,,,,0.055,,,,,,,,,,,,,,,,,,,,,,,,,,,,right,1,10,30,40,1,3553.340037,3553.340037,3553.340037,None,None,2,0,1.2279864,,,,,,,,,,,,,,,,,,,10,8,1,2024-10-18_17h15.29.903,uWM_experiment,2022.2.3,59.99732413
,,,,,,,,,,,,,,,,,,,,5,0,5,0,5,0,5,0,,,,,,,,,,,,,,,,,,,,,,,,,,,,,,,,,,,,,,,,,,,,,,,,,,,,,,,,,,,,,,,,,,,,,,0,,,,,,,,,,,,,,,,,,,,,,,,,,,,left,1,130,-30,100,0,3560.723612,3560.723612,3560.723612,None,None,2,0,0.8362752,,,,,,,,,,,,,,,,,,,10,8,1,2024-10-18_17h15.29.903,uWM_experiment,2022.2.3,59.99732413
,,,,,,,,,,,,,,,,,,,,5,0,5,0,6,0,6,0,,,,,,,,,,,,,,,,,,,,,,,,,,,,,,,,,,,,,,,,,,,,,,,,,,,,,,,,,,,,,,,,,,,,,,0,,,,,,,,,,,,,,,,,,,,,,,,,,,,left,1,100,-30,70,0,3570.573985,3570.573985,3570.573985,None,None,1,1,0.7858636,,,,,,,,,,,,,,,,,,,10,8,1,2024-10-18_17h15.29.903,uWM_experiment,2022.2.3,59.99732413
,,,,,,,,,,,,,,,,,,,,5,0,5,0,7,0,7,0,,,,,,,,,,,,,,,,,,,,,,,,,,,,,,,,,,,,,,,,,,,,,,,,,,,,,,,,,,,,,,,,,,,,,,0.045,,,,,,,,,,,,,,,,,,,,,,,,,,,,right,0,70,-30,40,1,3578.17431,3578.17431,3578.17431,None,None,1,1,3.297582,,,,,,,,,,,,,,,,,,,10,8,1,2024-10-18_17h15.29.903,uWM_experiment,2022.2.3,59.99732413
,,,,,,,,,,,,,,,,,,,,5,0,5,0,8,0,8,0,,,,,,,,,,,,,,,,,,,,,,,,,,,,,,,,,,,,,,,,,,,,,,,,,,,,,,,,,,,,,,,,,,,,,,0.055,,,,,,,,,,,,,,,,,,,,,,,,,,,,right,1,130,30,160,1,3587.374678,3587.374678,3587.374678,None,None,2,0,1.1131845,,,,,,,,,,,,,,,,,,,10,8,1,2024-10-18_17h15.29.903,uWM_experiment,2022.2.3,59.99732413
,,,,,,,,,,,,,,,,,,,,5,0,5,0,9,0,9,0,,,,,,,,,,,,,,,,,,,,,,,,,,,,,,,,,,,,,,,,,,,,,,,,,,,,,,,,,,,,,,,,,,,,,,0.045,,,,,,,,,,,,,,,,,,,,,,,,,,,,right,1,40,30,70,1,3594.324962,3594.324962,3594.324962,None,None,1,1,1.1308592,,,,,,,,,,,,,,,,,,,10,8,1,2024-10-18_17h15.29.903,uWM_experiment,2022.2.3,59.99732413
,,,,,,,,,,,,,,,,,,,,5,0,5,0,10,0,10,0,,,,,,,,,,,,,,,,,,,,,,,,,,,,,,,,,,,,,,,,,,,,,,,,,,,,,,,,,,,,,,,,,,,,,,0,,,,,,,,,,,,,,,,,,,,,,,,,,,,right,0,160,-30,130,0,3603.791984,3603.791984,3603.791984,None,None,1,1,0.3036795,,,,,,,,,,,,,,,,,,,10,8,1,2024-10-18_17h15.29.903,uWM_experiment,2022.2.3,59.99732413
,,,,,,,,,,,,,,,,,,,,5,0,5,0,11,0,11,0,,,,,,,,,,,,,,,,,,,,,,,,,,,,,,,,,,,,,,,,,,,,,,,,,,,,,,,,,,,,,,,,,,,,,,0.055,,,,,,,,,,,,,,,,,,,,,,,,,,,,right,1,100,30,130,1,3610.242234,3610.242234,3610.242234,None,None,1,1,0.4374586,,,,,,,,,,,,,,,,,,,10,8,1,2024-10-18_17h15.29.903,uWM_experiment,2022.2.3,59.99732413
,,,,,,,,,,,,,,,,,,,,5,0,5,0,12,0,12,0,,,,,,,,,,,,,,,,,,,,,,,,,,,,,,,,,,,,,,,,,,,,,,,,,,,,,,,,,,,,,,,,,,,,,,0,,,,,,,,,,,,,,,,,,,,,,,,,,,,left,1,70,-30,40,0,3616.542489,3616.542489,3616.542489,None,None,1,1,0.5211553,,,,,,,,,,,,,,,,,,,10,8,1,2024-10-18_17h15.29.903,uWM_experiment,2022.2.3,59.99732413
,,,,,,,,,,,,,,,,,,,,5,0,5,0,13,0,13,0,,,,,,,,,,,,,,,,,,,,,,,,,,,,,,,,,,,,,,,,,,,,,,,,,,,,,,,,,,,,,,,,,,,,,,0.065,,,,,,,,,,,,,,,,,,,,,,,,,,,,right,1,70,30,100,1,3623.226071,3623.226071,3623.226071,None,None,1,1,0.2776259,,,,,,,,,,,,,,,,,,,10,8,1,2024-10-18_17h15.29.903,uWM_experiment,2022.2.3,59.99732413
,,,,,,,,,,,,,,,,,,,,5,0,5,0,14,0,14,0,,,,,,,,,,,,,,,,,,,,,,,,,,,,,,,,,,,,,,,,,,,,,,,,,,,,,,,,,,,,,,,,,,,,,,0.075,,,,,,,,,,,,,,,,,,,,,,,,,,,,right,1,100,30,130,1,3629.35965,3629.35965,3629.35965,None,None,2,0,1.3039545,,,,,,,,,,,,,,,,,,,10,8,1,2024-10-18_17h15.29.903,uWM_experiment,2022.2.3,59.99732413
,,,,,,,,,,,,,,,,,,,,5,0,5,0,15,0,15,0,,,,,,,,,,,,,,,,,,,,,,,,,,,,,,,,,,,,,,,,,,,,,,,,,,,,,,,,,,,,,,,,,,,,,,0.065,,,,,,,,,,,,,,,,,,,,,,,,,,,,right,1,100,30,130,1,3637.543309,3637.543309,3637.543309,None,None,2,0,0.3283716,,,,,,,,,,,,,,,,,,,10,8,1,2024-10-18_17h15.29.903,uWM_experiment,2022.2.3,59.99732413
,,,,,,,,,,,,,,,,,,,,5,0,5,0,16,0,16,0,,,,,,,,,,,,,,,,,,,,,,,,,,,,,,,,,,,,,,,,,,,,,,,,,,,,,,,,,,,,,,,,,,,,,,0.055,,,,,,,,,,,,,,,,,,,,,,,,,,,,right,1,100,30,130,1,3646.377017,3646.377017,3646.377017,None,None,1,1,0.8465611,,,,,,,,,,,,,,,,,,,10,8,1,2024-10-18_17h15.29.903,uWM_experiment,2022.2.3,59.99732413
,,,,,,,,,,,,,,,,,,,,5,0,5,0,17,0,17,0,,,,,,,,,,,,,,,,,,,,,,,,,,,,,,,,,,,,,,,,,,,,,,,,,,,,,,,,,,,,,,,,,,,,,,0,,,,,,,,,,,,,,,,,,,,,,,,,,,,left,1,100,-30,70,0,3656.877418,3656.877418,3656.877418,None,None,2,0,0.7941339,,,,,,,,,,,,,,,,,,,10,8,1,2024-10-18_17h15.29.903,uWM_experiment,2022.2.3,59.99732413
,,,,,,,,,,,,,,,,,,,,5,0,5,0,18,0,18,0,,,,,,,,,,,,,,,,,,,,,,,,,,,,,,,,,,,,,,,,,,,,,,,,,,,,,,,,,,,,,,,,,,,,,,0,,,,,,,,,,,,,,,,,,,,,,,,,,,,right,0,160,-30,130,0,3664.761057,3664.761057,3664.761057,None,None,1,1,0.5904471,,,,,,,,,,,,,,,,,,,10,8,1,2024-10-18_17h15.29.903,uWM_experiment,2022.2.3,59.99732413
,,,,,,,,,,,,,,,,,,,,5,0,5,0,19,0,19,0,,,,,,,,,,,,,,,,,,,,,,,,,,,,,,,,,,,,,,,,,,,,,,,,,,,,,,,,,,,,,,,,,,,,,,0.065,,,,,,,,,,,,,,,,,,,,,,,,,,,,left,0,100,30,130,1,3670.777993,3670.777993,3670.777993,None,None,1,1,0.8135147,,,,,,,,,,,,,,,,,,,10,8,1,2024-10-18_17h15.29.903,uWM_experiment,2022.2.3,59.99732413
,,,,,,,,,,,,,,,,,,,,5,0,5,0,20,0,20,0,,,,,,,,,,,,,,,,,,,,,,,,,,,,,,,,,,,,,,,,,,,,,,,,,,,,,,,,,,,,,,,,,,,,,,0.075,,,,,,,,,,,,,,,,,,,,,,,,,,,,right,0,100,-30,70,1,3677.211556,3677.211556,3677.211556,None,None,1,1,0.5799477,,,,,,,,,,,,,,,,,,,10,8,1,2024-10-18_17h15.29.903,uWM_experiment,2022.2.3,59.99732413
,,,,,,,,,,,,,,,,,,,,5,0,5,0,21,0,21,0,,,,,,,,,,,,,,,,,,,,,,,,,,,,,,,,,,,,,,,,,,,,,,,,,,,,,,,,,,,,,,,,,,,,,,0.085,,,,,,,,,,,,,,,,,,,,,,,,,,,,left,1,70,-30,40,1,3684.461859,3684.461859,3684.461859,None,None,2,0,1.0815686,,,,,,,,,,,,,,,,,,,10,8,1,2024-10-18_17h15.29.903,uWM_experiment,2022.2.3,59.99732413
,,,,,,,,,,,,,,,,,,,,5,0,5,0,22,0,22,0,,,,,,,,,,,,,,,,,,,,,,,,,,,,,,,,,,,,,,,,,,,,,,,,,,,,,,,,,,,,,,,,,,,,,,0.1,,,,,,,,,,,,,,,,,,,,,,,,,,,,right,1,130,30,160,2,3691.778794,3691.778794,3691.778794,None,None,4,0,0.3405556,,,,,,,,,,,,,,,,,,,10,8,1,2024-10-18_17h15.29.903,uWM_experiment,2022.2.3,59.99732413
,,,,,,,,,,,,,,,,,,,,5,0,5,0,23,0,23,0,,,,,,,,,,,,,,,,,,,,,,,,,,,,,,,,,,,,,,,,,,,,,,,,,,,,,,,,,,,,,,,,,,,,,,0.075,,,,,,,,,,,,,,,,,,,,,,,,,,,,left,0,100,30,130,1,3698.012361,3698.012361,3698.012361,None,None,2,0,1.5549507,,,,,,,,,,,,,,,,,,,10,8,1,2024-10-18_17h15.29.903,uWM_experiment,2022.2.3,59.99732413
,,,,,,,,,,,,,,,,,,,,5,0,5,0,,,,,0,0,0,0,,,,,,,,,,,,,,,,,,,,,,,,,,,,,,,,,,,,,,,,,,,,,,,,,,,,,,,,,,,,,,,,,,,,,,,,,,,,,,,,,,,,,,,,,,,,,,,,,,,,,,,,,,,,3699.595765,3699.595765,space,29.9154224,space,None,,3729.530281,3729.530281,5.8289691,,,,,,,,,10,8,1,2024-10-18_17h15.29.903,uWM_experiment,2022.2.3,59.99732413
,,,,,,,,,,,,,,,,,,,,5,0,5,0,,,,,1,0,1,0,,,,,,,,,,,,,,,,,,,,,,,,,,,,,,,,,,,,,,,,,,,,,,,,,,,,,,,,,,,,,,,,,,,,,,,,,,,,,,,,,,,,,,,,,,,,,,,,,,,,,,,,,,,,,,,,,,,,,,,,,,,,,,10,8,1,2024-10-18_17h15.29.903,uWM_experiment,2022.2.3,59.99732413
,,,,,,,,,,,,,,,,,,,,5,0,5,0,,,,,2,0,2,0,,,,,,,,,,,,,,,,,,,,,,,,,,,,,,,,,,,,,,,,,,,,,,,,,,,,,,,,,,,,,,,,,,,,,,,,,,,,,,,,,,,,,,,,,,,,,,,,,,,,,,,,,,,,,,,,,,,,,,,,,,,,,,10,8,1,2024-10-18_17h15.29.903,uWM_experiment,2022.2.3,59.99732413
,,,,,,,,,,,,,,,,,,,,6,0,6,0,0,0,0,0,,,,,,,,,,,,,,,,,,,,,,,,,,,,,,,,,,,,,,,,,,,,,,,,,,,,,,,,,,,,,,,,,,,,,,0.065,,,,,,,,,,,,,,,,,,,,3735.380513,3736.08054,3736.380553,3737.080578,3737.380614,3738.08062,3738.08062,3738.397303,right,1,130,30,160,1,3743.264174,3743.264174,3743.264174,None,None,2,0,0.5989982,,,,,,,None,,,,,,,,,,,,10,8,1,2024-10-18_17h15.29.903,uWM_experiment,2022.2.3,59.99732413
,,,,,,,,,,,,,,,,,,,,6,0,6,0,1,0,1,0,,,,,,,,,,,,,,,,,,,,,,,,,,,,,,,,,,,,,,,,,,,,,,,,,,,,,,,,,,,,,,,,,,,,,,0.055,,,,,,,,,,,,,,,,,,,,,,,,,,,,left,1,10,-30,-20,1,3753.431216,3753.431216,3753.431216,None,None,2,0,1.0478578,,,,,,,,,,,,,,,,,,,10,8,1,2024-10-18_17h15.29.903,uWM_experiment,2022.2.3,59.99732413
,,,,,,,,,,,,,,,,,,,,6,0,6,0,2,0,2,0,,,,,,,,,,,,,,,,,,,,,,,,,,,,,,,,,,,,,,,,,,,,,,,,,,,,,,,,,,,,,,,,,,,,,,0.045,,,,,,,,,,,,,,,,,,,,,,,,,,,,left,0,100,30,130,1,3760.431516,3760.431516,3760.431516,None,None,2,0,0.8555417,,,,,,,,,,,,,,,,,,,10,8,1,2024-10-18_17h15.29.903,uWM_experiment,2022.2.3,59.99732413
,,,,,,,,,,,,,,,,,,,,6,0,6,0,3,0,3,0,,,,,,,,,,,,,,,,,,,,,,,,,,,,,,,,,,,,,,,,,,,,,,,,,,,,,,,,,,,,,,,,,,,,,,0.035,,,,,,,,,,,,,,,,,,,,,,,,,,,,left,0,100,30,130,1,3766.99844,3766.99844,3766.99844,None,None,1,1,0.8246509,,,,,,,,,,,,,,,,,,,10,8,1,2024-10-18_17h15.29.903,uWM_experiment,2022.2.3,59.99732413
,,,,,,,,,,,,,,,,,,,,6,0,6,0,4,0,4,0,,,,,,,,,,,,,,,,,,,,,,,,,,,,,,,,,,,,,,,,,,,,,,,,,,,,,,,,,,,,,,,,,,,,,,0.045,,,,,,,,,,,,,,,,,,,,,,,,,,,,right,1,160,30,190,1,3773.998718,3773.998718,3773.998718,None,None,1,1,1.0003093,,,,,,,,,,,,,,,,,,,10,8,1,2024-10-18_17h15.29.903,uWM_experiment,2022.2.3,59.99732413
,,,,,,,,,,,,,,,,,,,,6,0,6,0,5,0,5,0,,,,,,,,,,,,,,,,,,,,,,,,,,,,,,,,,,,,,,,,,,,,,,,,,,,,,,,,,,,,,,,,,,,,,,0.055,,,,,,,,,,,,,,,,,,,,,,,,,,,,left,1,40,-30,10,1,3781.432344,3781.432344,3781.432344,None,None,2,0,0.2545422,,,,,,,,,,,,,,,,,,,10,8,1,2024-10-18_17h15.29.903,uWM_experiment,2022.2.3,59.99732413
,,,,,,,,,,,,,,,,,,,,6,0,6,0,6,0,6,0,,,,,,,,,,,,,,,,,,,,,,,,,,,,,,,,,,,,,,,,,,,,,,,,,,,,,,,,,,,,,,,,,,,,,,0.045,,,,,,,,,,,,,,,,,,,,,,,,,,,,right,0,160,-30,130,1,3789.315957,3789.315957,3789.315957,None,None,2,0,0.8429761,,,,,,,,,,,,,,,,,,,10,8,1,2024-10-18_17h15.29.903,uWM_experiment,2022.2.3,59.99732413
,,,,,,,,,,,,,,,,,,,,6,0,6,0,7,0,7,0,,,,,,,,,,,,,,,,,,,,,,,,,,,,,,,,,,,,,,,,,,,,,,,,,,,,,,,,,,,,,,,,,,,,,,0.035,,,,,,,,,,,,,,,,,,,,,,,,,,,,right,1,70,30,100,1,3796.449589,3796.449589,3796.449589,None,None,2,0,0.2773648,,,,,,,,,,,,,,,,,,,10,8,1,2024-10-18_17h15.29.903,uWM_experiment,2022.2.3,59.99732413
,,,,,,,,,,,,,,,,,,,,6,0,6,0,8,0,8,0,,,,,,,,,,,,,,,,,,,,,,,,,,,,,,,,,,,,,,,,,,,,,,,,,,,,,,,,,,,,,,,,,,,,,,0.025,,,,,,,,,,,,,,,,,,,,,,,,,,,,right,1,130,30,160,1,3807.2167,3807.2167,3807.2167,None,None,1,1,0.35814,,,,,,,,,,,,,,,,,,,10,8,1,2024-10-18_17h15.29.903,uWM_experiment,2022.2.3,59.99732413
,,,,,,,,,,,,,,,,,,,,6,0,6,0,9,0,9,0,,,,,,,,,,,,,,,,,,,,,,,,,,,,,,,,,,,,,,,,,,,,,,,,,,,,,,,,,,,,,,,,,,,,,,0.1,,,,,,,,,,,,,,,,,,,,,,,,,,,,right,1,160,30,190,2,3813.966966,3813.966966,3813.966966,None,None,4,0,0.2398711,,,,,,,,,,,,,,,,,,,10,8,1,2024-10-18_17h15.29.903,uWM_experiment,2022.2.3,59.99732413
,,,,,,,,,,,,,,,,,,,,6,0,6,0,10,0,10,0,,,,,,,,,,,,,,,,,,,,,,,,,,,,,,,,,,,,,,,,,,,,,,,,,,,,,,,,,,,,,,,,,,,,,,0,,,,,,,,,,,,,,,,,,,,,,,,,,,,left,0,130,30,160,0,3820.483881,3820.483881,3820.483881,None,None,1,1,0.4188401,,,,,,,,,,,,,,,,,,,10,8,1,2024-10-18_17h15.29.903,uWM_experiment,2022.2.3,59.99732413
,,,,,,,,,,,,,,,,,,,,6,0,6,0,11,0,11,0,,,,,,,,,,,,,,,,,,,,,,,,,,,,,,,,,,,,,,,,,,,,,,,,,,,,,,,,,,,,,,,,,,,,,,0.035,,,,,,,,,,,,,,,,,,,,,,,,,,,,left,0,130,30,160,1,3827.500828,3827.500828,3827.500828,None,None,1,1,0.4899602,,,,,,,,,,,,,,,,,,,10,8,1,2024-10-18_17h15.29.903,uWM_experiment,2022.2.3,59.99732413
,,,,,,,,,,,,,,,,,,,,6,0,6,0,12,0,12,0,,,,,,,,,,,,,,,,,,,,,,,,,,,,,,,,,,,,,,,,,,,,,,,,,,,,,,,,,,,,,,,,,,,,,,0.045,,,,,,,,,,,,,,,,,,,,,,,,,,,,right,1,10,30,40,1,3838.601292,3838.601292,3838.601292,None,None,1,1,0.3974092,,,,,,,,,,,,,,,,,,,10,8,1,2024-10-18_17h15.29.903,uWM_experiment,2022.2.3,59.99732413
,,,,,,,,,,,,,,,,,,,,6,0,6,0,13,0,13,0,,,,,,,,,,,,,,,,,,,,,,,,,,,,,,,,,,,,,,,,,,,,,,,,,,,,,,,,,,,,,,,,,,,,,,0.055,,,,,,,,,,,,,,,,,,,,,,,,,,,,right,0,130,-30,100,1,3848.785016,3848.785016,3848.785016,None,None,2,0,0.845664,,,,,,,,,,,,,,,,,,,10,8,1,2024-10-18_17h15.29.903,uWM_experiment,2022.2.3,59.99732413
,,,,,,,,,,,,,,,,,,,,6,0,6,0,14,0,14,0,,,,,,,,,,,,,,,,,,,,,,,,,,,,,,,,,,,,,,,,,,,,,,,,,,,,,,,,,,,,,,,,,,,,,,0,,,,,,,,,,,,,,,,,,,,,,,,,,,,right,0,10,-30,-20,0,3856.368643,3856.368643,3856.368643,None,None,1,1,0.3579693,,,,,,,,,,,,,,,,,,,10,8,1,2024-10-18_17h15.29.903,uWM_experiment,2022.2.3,59.99732413
,,,,,,,,,,,,,,,,,,,,6,0,6,0,15,0,15,0,,,,,,,,,,,,,,,,,,,,,,,,,,,,,,,,,,,,,,,,,,,,,,,,,,,,,,,,,,,,,,,,,,,,,,0.045,,,,,,,,,,,,,,,,,,,,,,,,,,,,right,1,10,30,40,1,3863.018917,3863.018917,3863.018917,None,None,2,0,0.283764,,,,,,,,,,,,,,,,,,,10,8,1,2024-10-18_17h15.29.903,uWM_experiment,2022.2.3,59.99732413
,,,,,,,,,,,,,,,,,,,,6,0,6,0,16,0,16,0,,,,,,,,,,,,,,,,,,,,,,,,,,,,,,,,,,,,,,,,,,,,,,,,,,,,,,,,,,,,,,,,,,,,,,0,,,,,,,,,,,,,,,,,,,,,,,,,,,,left,0,100,30,130,0,3870.119169,3870.119169,3870.119169,None,None,1,1,0.2953899,,,,,,,,,,,,,,,,,,,10,8,1,2024-10-18_17h15.29.903,uWM_experiment,2022.2.3,59.99732413
,,,,,,,,,,,,,,,,,,,,6,0,6,0,17,0,17,0,,,,,,,,,,,,,,,,,,,,,,,,,,,,,,,,,,,,,,,,,,,,,,,,,,,,,,,,,,,,,,,,,,,,,,0.035,,,,,,,,,,,,,,,,,,,,,,,,,,,,right,0,70,-30,40,1,3876.552777,3876.552777,3876.552777,None,None,1,1,0.2856998,,,,,,,,,,,,,,,,,,,10,8,1,2024-10-18_17h15.29.903,uWM_experiment,2022.2.3,59.99732413
,,,,,,,,,,,,,,,,,,,,6,0,6,0,18,0,18,0,,,,,,,,,,,,,,,,,,,,,,,,,,,,,,,,,,,,,,,,,,,,,,,,,,,,,,,,,,,,,,,,,,,,,,0,,,,,,,,,,,,,,,,,,,,,,,,,,,,left,1,10,-30,-20,0,3885.053117,3885.053117,3885.053117,None,None,1,1,1.649396,,,,,,,,,,,,,,,,,,,10,8,1,2024-10-18_17h15.29.903,uWM_experiment,2022.2.3,59.99732413
,,,,,,,,,,,,,,,,,,,,6,0,6,0,19,0,19,0,,,,,,,,,,,,,,,,,,,,,,,,,,,,,,,,,,,,,,,,,,,,,,,,,,,,,,,,,,,,,,,,,,,,,,0.1,,,,,,,,,,,,,,,,,,,,,,,,,,,,right,1,40,30,70,2,3895.553517,3895.553517,3895.553517,None,None,4,0,1.6849059,,,,,,,,,,,,,,,,,,,10,8,1,2024-10-18_17h15.29.903,uWM_experiment,2022.2.3,59.99732413
,,,,,,,,,,,,,,,,,,,,6,0,6,0,20,0,20,0,,,,,,,,,,,,,,,,,,,,,,,,,,,,,,,,,,,,,,,,,,,,,,,,,,,,,,,,,,,,,,,,,,,,,,0.045,,,,,,,,,,,,,,,,,,,,,,,,,,,,right,1,40,30,70,1,3907.537316,3907.537316,3907.537316,None,None,3,0,5.8770642,,,,,,,,,,,,,,,,,,,10,8,1,2024-10-18_17h15.29.903,uWM_experiment,2022.2.3,59.99732413
,,,,,,,,,,,,,,,,,,,,6,0,6,0,21,0,21,0,,,,,,,,,,,,,,,,,,,,,,,,,,,,,,,,,,,,,,,,,,,,,,,,,,,,,,,,,,,,,,,,,,,,,,0,,,,,,,,,,,,,,,,,,,,,,,,,,,,right,0,70,-30,40,0,3919.421123,3919.421123,3919.421123,None,None,3,0,0.4572076,,,,,,,,,,,,,,,,,,,10,8,1,2024-10-18_17h15.29.903,uWM_experiment,2022.2.3,59.99732413
,,,,,,,,,,,,,,,,,,,,6,0,6,0,22,0,22,0,,,,,,,,,,,,,,,,,,,,,,,,,,,,,,,,,,,,,,,,,,,,,,,,,,,,,,,,,,,,,,,,,,,,,,0.035,,,,,,,,,,,,,,,,,,,,,,,,,,,,left,0,130,30,160,1,3926.104723,3926.104723,3926.104723,None,None,1,1,0.1495153,,,,,,,,,,,,,,,,,,,10,8,1,2024-10-18_17h15.29.903,uWM_experiment,2022.2.3,59.99732413
,,,,,,,,,,,,,,,,,,,,6,0,6,0,23,0,23,0,,,,,,,,,,,,,,,,,,,,,,,,,,,,,,,,,,,,,,,,,,,,,,,,,,,,,,,,,,,,,,,,,,,,,,0.045,,,,,,,,,,,,,,,,,,,,,,,,,,,,right,1,130,30,160,1,3931.93833,3931.93833,3931.93833,None,None,1,1,1.1239396,,,,,,,,,,,,,,,,,,,10,8,1,2024-10-18_17h15.29.903,uWM_experiment,2022.2.3,59.99732413
,,,,,,,,,,,,,,,,,,,,6,0,6,0,,,,,0,0,0,0,,,,,,,,,,,,,,,,,,,,,,,,,,,,,,,,,,,,,,,,,,,,,,,,,,,,,,,,,,,,,,,,,,,,,,,,,,,,,,,,,,,,,,,,,,,,,,,,,,,,,,,,,,,,3933.088297,3933.088297,space,1.5739979,None,space,,,,,3934.688379,3934.688379,9.6938499,,,,,,10,8,1,2024-10-18_17h15.29.903,uWM_experiment,2022.2.3,59.99732413
,,,,,,,,,,,,,,,,,,,,6,0,6,0,,,,,1,0,1,0,,,,,,,,,,,,,,,,,,,,,,,,,,,,,,,,,,,,,,,,,,,,,,,,,,,,,,,,,,,,,,,,,,,,,,,,,,,,,,,,,,,,,,,,,,,,,,,,,,,,,,,,,,,,,,,,,,,,,,,,,,,,,,10,8,1,2024-10-18_17h15.29.903,uWM_experiment,2022.2.3,59.99732413
,,,,,,,,,,,,,,,,,,,,6,0,6,0,,,,,2,0,2,0,,,,,,,,,,,,,,,,,,,,,,,,,,,,,,,,,,,,,,,,,,,,,,,,,,,,,,,,,,,,,,,,,,,,,,,,,,,,,,,,,,,,,,,,,,,,,,,,,,,,,,,,,,,,,,,,,,,,,,,,,,,,,,10,8,1,2024-10-18_17h15.29.903,uWM_experiment,2022.2.3,59.99732413
,,,,,,,,,,,,,,,,,,,,7,0,7,0,0,0,0,0,,,,,,,,,,,,,,,,,,,,,,,,,,,,,,,,,,,,,,,,,,,,,,,,,,,,,,,,,,,,,,,,,,,,,,0.055,,,,,,,,,,,,,,,,,,,,3984.807027,3985.507067,3985.790408,3986.490429,3986.790432,3987.490472,3987.490472,3987.807161,right,0,160,-30,130,1,3993.940744,3993.940744,3993.940744,None,None,1,1,0.3132495,,,,,,,space,,,,,,,3952.97245,3952.97245,31.8096144,,,10,8,1,2024-10-18_17h15.29.903,uWM_experiment,2022.2.3,59.99732413
,,,,,,,,,,,,,,,,,,,,7,0,7,0,1,0,1,0,,,,,,,,,,,,,,,,,,,,,,,,,,,,,,,,,,,,,,,,,,,,,,,,,,,,,,,,,,,,,,,,,,,,,,0.065,,,,,,,,,,,,,,,,,,,,,,,,,,,,right,1,100,30,130,1,4000.390984,4000.390984,4000.390984,None,None,1,1,0.375,,,,,,,,,,,,,,,,,,,10,8,1,2024-10-18_17h15.29.903,uWM_experiment,2022.2.3,59.99732413
,,,,,,,,,,,,,,,,,,,,7,0,7,0,2,0,2,0,,,,,,,,,,,,,,,,,,,,,,,,,,,,,,,,,,,,,,,,,,,,,,,,,,,,,,,,,,,,,,,,,,,,,,0.1,,,,,,,,,,,,,,,,,,,,,,,,,,,,right,1,160,30,190,2,4007.324602,4007.324602,4007.324602,None,None,4,0,0.8413401,,,,,,,,,,,,,,,,,,,10,8,1,2024-10-18_17h15.29.903,uWM_experiment,2022.2.3,59.99732413
,,,,,,,,,,,,,,,,,,,,7,0,7,0,3,0,3,0,,,,,,,,,,,,,,,,,,,,,,,,,,,,,,,,,,,,,,,,,,,,,,,,,,,,,,,,,,,,,,,,,,,,,,0.075,,,,,,,,,,,,,,,,,,,,,,,,,,,,left,1,40,-30,10,1,4014.124927,4014.124927,4014.124927,None,None,2,0,2.4970178,,,,,,,,,,,,,,,,,,,10,8,1,2024-10-18_17h15.29.903,uWM_experiment,2022.2.3,59.99732413
,,,,,,,,,,,,,,,,,,,,7,0,7,0,4,0,4,0,,,,,,,,,,,,,,,,,,,,,,,,,,,,,,,,,,,,,,,,,,,,,,,,,,,,,,,,,,,,,,,,,,,,,,0,,,,,,,,,,,,,,,,,,,,,,,,,,,,right,0,70,-30,40,0,4022.391841,4022.391841,4022.391841,None,None,1,1,1.342082,,,,,,,,,,,,,,,,,,,10,8,1,2024-10-18_17h15.29.903,uWM_experiment,2022.2.3,59.99732413
,,,,,,,,,,,,,,,,,,,,7,0,7,0,5,0,5,0,,,,,,,,,,,,,,,,,,,,,,,,,,,,,,,,,,,,,,,,,,,,,,,,,,,,,,,,,,,,,,,,,,,,,,0.065,,,,,,,,,,,,,,,,,,,,,,,,,,,,left,1,160,-30,130,1,4030.742203,4030.742203,4030.742203,None,None,2,0,1.0156898,,,,,,,,,,,,,,,,,,,10,8,1,2024-10-18_17h15.29.903,uWM_experiment,2022.2.3,59.99732413
,,,,,,,,,,,,,,,,,,,,7,0,7,0,6,0,6,0,,,,,,,,,,,,,,,,,,,,,,,,,,,,,,,,,,,,,,,,,,,,,,,,,,,,,,,,,,,,,,,,,,,,,,0,,,,,,,,,,,,,,,,,,,,,,,,,,,,left,1,160,-30,130,0,4037.892493,4037.892493,4037.892493,None,None,1,1,0.1452567,,,,,,,,,,,,,,,,,,,10,8,1,2024-10-18_17h15.29.903,uWM_experiment,2022.2.3,59.99732413
,,,,,,,,,,,,,,,,,,,,7,0,7,0,7,0,7,0,,,,,,,,,,,,,,,,,,,,,,,,,,,,,,,,,,,,,,,,,,,,,,,,,,,,,,,,,,,,,,,,,,,,,,0.055,,,,,,,,,,,,,,,,,,,,,,,,,,,,right,1,70,30,100,1,4044.142719,4044.142719,4044.142719,None,None,1,1,0.8549712,,,,,,,,,,,,,,,,,,,10,8,1,2024-10-18_17h15.29.903,uWM_experiment,2022.2.3,59.99732413
,,,,,,,,,,,,,,,,,,,,7,0,7,0,8,0,8,0,,,,,,,,,,,,,,,,,,,,,,,,,,,,,,,,,,,,,,,,,,,,,,,,,,,,,,,,,,,,,,,,,,,,,,0.065,,,,,,,,,,,,,,,,,,,,,,,,,,,,right,0,160,-30,130,1,4050.676317,4050.676317,4050.676317,None,None,1,1,0.44144,,,,,,,,,,,,,,,,,,,10,8,1,2024-10-18_17h15.29.903,uWM_experiment,2022.2.3,59.99732413
,,,,,,,,,,,,,,,,,,,,7,0,7,0,9,0,9,0,,,,,,,,,,,,,,,,,,,,,,,,,,,,,,,,,,,,,,,,,,,,,,,,,,,,,,,,,,,,,,,,,,,,,,0.075,,,,,,,,,,,,,,,,,,,,,,,,,,,,left,1,130,-30,100,1,4061.093408,4061.093408,4061.093408,None,None,2,0,1.3522487,,,,,,,,,,,,,,,,,,,10,8,1,2024-10-18_17h15.29.903,uWM_experiment,2022.2.3,59.99732413
,,,,,,,,,,,,,,,,,,,,7,0,7,0,10,0,10,0,,,,,,,,,,,,,,,,,,,,,,,,,,,,,,,,,,,,,,,,,,,,,,,,,,,,,,,,,,,,,,,,,,,,,,0,,,,,,,,,,,,,,,,,,,,,,,,,,,,right,1,160,30,190,0,4068.643697,4068.643697,4068.643697,None,None,1,1,0.3379079,,,,,,,,,,,,,,,,,,,10,8,1,2024-10-18_17h15.29.903,uWM_experiment,2022.2.3,59.99732413
,,,,,,,,,,,,,,,,,,,,7,0,7,0,11,0,11,0,,,,,,,,,,,,,,,,,,,,,,,,,,,,,,,,,,,,,,,,,,,,,,,,,,,,,,,,,,,,,,,,,,,,,,0,,,,,,,,,,,,,,,,,,,,,,,,,,,,left,1,10,-30,-20,0,4076.560664,4076.560664,4076.560664,None,None,1,1,0.6048861,,,,,,,,,,,,,,,,,,,10,8,1,2024-10-18_17h15.29.903,uWM_experiment,2022.2.3,59.99732413
,,,,,,,,,,,,,,,,,,,,7,0,7,0,12,0,12,0,,,,,,,,,,,,,,,,,,,,,,,,,,,,,,,,,,,,,,,,,,,,,,,,,,,,,,,,,,,,,,,,,,,,,,0.1,,,,,,,,,,,,,,,,,,,,,,,,,,,,left,1,70,-30,40,2,4083.210929,4083.210929,4083.210929,None,None,4,0,0.4025753,,,,,,,,,,,,,,,,,,,10,8,1,2024-10-18_17h15.29.903,uWM_experiment,2022.2.3,59.99732413
,,,,,,,,,,,,,,,,,,,,7,0,7,0,13,0,13,0,,,,,,,,,,,,,,,,,,,,,,,,,,,,,,,,,,,,,,,,,,,,,,,,,,,,,,,,,,,,,,,,,,,,,,0,,,,,,,,,,,,,,,,,,,,,,,,,,,,left,1,10,-30,-20,0,4090.561234,4090.561234,4090.561234,None,None,1,1,0.3003622,,,,,,,,,,,,,,,,,,,10,8,1,2024-10-18_17h15.29.903,uWM_experiment,2022.2.3,59.99732413
,,,,,,,,,,,,,,,,,,,,7,0,7,0,14,0,14,0,,,,,,,,,,,,,,,,,,,,,,,,,,,,,,,,,,,,,,,,,,,,,,,,,,,,,,,,,,,,,,,,,,,,,,0.065,,,,,,,,,,,,,,,,,,,,,,,,,,,,right,1,100,30,130,1,4097.9949,4097.9949,4097.9949,None,None,2,0,1.1626529,,,,,,,,,,,,,,,,,,,10,8,1,2024-10-18_17h15.29.903,uWM_experiment,2022.2.3,59.99732413
,,,,,,,,,,,,,,,,,,,,7,0,7,0,15,0,15,0,,,,,,,,,,,,,,,,,,,,,,,,,,,,,,,,,,,,,,,,,,,,,,,,,,,,,,,,,,,,,,,,,,,,,,0.055,,,,,,,,,,,,,,,,,,,,,,,,,,,,left,0,100,30,130,1,4107.345286,4107.345286,4107.345286,None,None,2,0,1.0921951,,,,,,,,,,,,,,,,,,,10,8,1,2024-10-18_17h15.29.903,uWM_experiment,2022.2.3,59.99732413
,,,,,,,,,,,,,,,,,,,,7,0,7,0,16,0,16,0,,,,,,,,,,,,,,,,,,,,,,,,,,,,,,,,,,,,,,,,,,,,,,,,,,,,,,,,,,,,,,,,,,,,,,0.045,,,,,,,,,,,,,,,,,,,,,,,,,,,,right,0,10,-30,-20,1,4114.178823,4114.178823,4114.178823,None,None,1,1,1.7066559,,,,,,,,,,,,,,,,,,,10,8,1,2024-10-18_17h15.29.903,uWM_experiment,2022.2.3,59.99732413
,,,,,,,,,,,,,,,,,,,,7,0,7,0,17,0,17,0,,,,,,,,,,,,,,,,,,,,,,,,,,,,,,,,,,,,,,,,,,,,,,,,,,,,,,,,,,,,,,,,,,,,,,0.055,,,,,,,,,,,,,,,,,,,,,,,,,,,,right,0,40,-30,10,1,4122.012487,4122.012487,4122.012487,None,None,2,0,0.8089566,,,,,,,,,,,,,,,,,,,10,8,1,2024-10-18_17h15.29.903,uWM_experiment,2022.2.3,59.99732413
,,,,,,,,,,,,,,,,,,,,7,0,7,0,18,0,18,0,,,,,,,,,,,,,,,,,,,,,,,,,,,,,,,,,,,,,,,,,,,,,,,,,,,,,,,,,,,,,,,,,,,,,,0,,,,,,,,,,,,,,,,,,,,,,,,,,,,left,1,100,-30,70,0,4128.962751,4128.962751,4128.962751,None,None,1,1,0.4266894,,,,,,,,,,,,,,,,,,,10,8,1,2024-10-18_17h15.29.903,uWM_experiment,2022.2.3,59.99732413
,,,,,,,,,,,,,,,,,,,,7,0,7,0,19,0,19,0,,,,,,,,,,,,,,,,,,,,,,,,,,,,,,,,,,,,,,,,,,,,,,,,,,,,,,,,,,,,,,,,,,,,,,0.045,,,,,,,,,,,,,,,,,,,,,,,,,,,,right,1,10,30,40,1,4136.479732,4136.479732,4136.479732,None,None,1,1,0.189615,,,,,,,,,,,,,,,,,,,10,8,1,2024-10-18_17h15.29.903,uWM_experiment,2022.2.3,59.99732413
,,,,,,,,,,,,,,,,,,,,7,0,7,0,20,0,20,0,,,,,,,,,,,,,,,,,,,,,,,,,,,,,,,,,,,,,,,,,,,,,,,,,,,,,,,,,,,,,,,,,,,,,,0,,,,,,,,,,,,,,,,,,,,,,,,,,,,right,1,160,30,190,0,4141.996609,4141.996609,4141.996609,None,None,1,1,0.4886695,,,,,,,,,,,,,,,,,,,10,8,1,2024-10-18_17h15.29.903,uWM_experiment,2022.2.3,59.99732413
,,,,,,,,,,,,,,,,,,,,7,0,7,0,21,0,21,0,,,,,,,,,,,,,,,,,,,,,,,,,,,,,,,,,,,,,,,,,,,,,,,,,,,,,,,,,,,,,,,,,,,,,,0,,,,,,,,,,,,,,,,,,,,,,,,,,,,left,1,40,-30,10,0,4149.613554,4149.613554,4149.613554,None,None,1,1,0.2797685,,,,,,,,,,,,,,,,,,,10,8,1,2024-10-18_17h15.29.903,uWM_experiment,2022.2.3,59.99732413
,,,,,,,,,,,,,,,,,,,,7,0,7,0,22,0,22,0,,,,,,,,,,,,,,,,,,,,,,,,,,,,,,,,,,,,,,,,,,,,,,,,,,,,,,,,,,,,,,,,,,,,,,0,,,,,,,,,,,,,,,,,,,,,,,,,,,,left,0,160,30,190,0,4155.980483,4155.980483,4155.980483,None,None,1,1,0.4487653,,,,,,,,,,,,,,,,,,,10,8,1,2024-10-18_17h15.29.903,uWM_experiment,2022.2.3,59.99732413
,,,,,,,,,,,,,,,,,,,,7,0,7,0,23,0,23,0,,,,,,,,,,,,,,,,,,,,,,,,,,,,,,,,,,,,,,,,,,,,,,,,,,,,,,,,,,,,,,,,,,,,,,0,,,,,,,,,,,,,,,,,,,,,,,,,,,,left,1,130,-30,100,0,4162.230724,4162.230724,4162.230724,None,None,1,1,0.3105827,,,,,,,,,,,,,,,,,,,10,8,1,2024-10-18_17h15.29.903,uWM_experiment,2022.2.3,59.99732413
,,,,,,,,,,,,,,,,,,,,7,0,7,0,,,,,0,0,0,0,,,,,,,,,,,,,,,,,,,,,,,,,,,,,,,,,,,,,,,,,,,,,,,,,,,,,,,,,,,,,,,,,,,,,,,,,,,,,,,,,,,,,,,,,,,,,,,,,,,,,,,,,,,,4162.56409,4162.56409,space,25.545032,None,None,,,,,,,,,,,,,10,8,1,2024-10-18_17h15.29.903,uWM_experiment,2022.2.3,59.99732413
,,,,,,,,,,,,,,,,,,,,7,0,7,0,,,,,1,0,1,0,,,,,,,,,,,,,,,,,,,,,,,,,,,,,,,,,,,,,,,,,,,,,,,,,,,,,,,,,,,,,,,,,,,,,,,,,,,,,,,,,,,,,,,,,,,,,,,,,,,,,,,,,,,,,,,,,,,,,,,,,,,,,,10,8,1,2024-10-18_17h15.29.903,uWM_experiment,2022.2.3,59.99732413
,,,,,,,,,,,,,,,,,,,,7,0,7,0,,,,,2,0,2,0,,,,,,,,,,,,,,,,,,,,,,,,,,,,,,,,,,,,,,,,,,,,,,,,,,,,,,,,,,,,,,,,,,,,,,,,,,,,,,,,,,,,,,,,,,,,,,,,,,,,,,,,,,,,,,,,,,,,,,,,,,,,,,10,8,1,2024-10-18_17h15.29.903,uWM_experiment,2022.2.3,59.99732413
,,,,,,,,,,,,,,,,,,,,8,0,8,0,0,0,0,0,,,,,,,,,,,,,,,,,,,,,,,,,,,,,,,,,,,,,,,,,,,,,,,,,,,,,,,,,,,,,,,,,,,,,,0,,,,,,,,,,,,,,,,,,,,4188.131755,4188.831775,4189.131788,4189.831816,4190.131827,4190.831858,4190.831858,4191.148565,right,1,70,30,100,0,4196.46543,4196.46543,4196.46543,None,None,1,1,1.0516065,,,,,,,None,,,,,,,,,,,,10,8,1,2024-10-18_17h15.29.903,uWM_experiment,2022.2.3,59.99732413
,,,,,,,,,,,,,,,,,,,,8,0,8,0,1,0,1,0,,,,,,,,,,,,,,,,,,,,,,,,,,,,,,,,,,,,,,,,,,,,,,,,,,,,,,,,,,,,,,,,,,,,,,0,,,,,,,,,,,,,,,,,,,,,,,,,,,,right,0,160,-30,130,0,4203.248978,4203.248978,4203.248978,None,None,1,1,0.6360003,,,,,,,,,,,,,,,,,,,10,8,1,2024-10-18_17h15.29.903,uWM_experiment,2022.2.3,59.99732413
,,,,,,,,,,,,,,,,,,,,8,0,8,0,2,0,2,0,,,,,,,,,,,,,,,,,,,,,,,,,,,,,,,,,,,,,,,,,,,,,,,,,,,,,,,,,,,,,,,,,,,,,,0.055,,,,,,,,,,,,,,,,,,,,,,,,,,,,right,1,10,30,40,1,4210.182624,4210.182624,4210.182624,None,None,1,1,0.5023749,,,,,,,,,,,,,,,,,,,10,8,1,2024-10-18_17h15.29.903,uWM_experiment,2022.2.3,59.99732413
,,,,,,,,,,,,,,,,,,,,8,0,8,0,3,0,3,0,,,,,,,,,,,,,,,,,,,,,,,,,,,,,,,,,,,,,,,,,,,,,,,,,,,,,,,,,,,,,,,,,,,,,,0.1,,,,,,,,,,,,,,,,,,,,,,,,,,,,right,1,10,30,40,2,4216.749569,4216.749569,4216.749569,None,None,4,0,0.7434707,,,,,,,,,,,,,,,,,,,10,8,1,2024-10-18_17h15.29.903,uWM_experiment,2022.2.3,59.99732413
,,,,,,,,,,,,,,,,,,,,8,0,8,0,4,0,4,0,,,,,,,,,,,,,,,,,,,,,,,,,,,,,,,,,,,,,,,,,,,,,,,,,,,,,,,,,,,,,,,,,,,,,,0,,,,,,,,,,,,,,,,,,,,,,,,,,,,left,1,10,-30,-20,0,4223.399822,4223.399822,4223.399822,None,None,1,1,0.5411229,,,,,,,,,,,,,,,,,,,10,8,1,2024-10-18_17h15.29.903,uWM_experiment,2022.2.3,59.99732413
,,,,,,,,,,,,,,,,,,,,8,0,8,0,5,0,5,0,,,,,,,,,,,,,,,,,,,,,,,,,,,,,,,,,,,,,,,,,,,,,,,,,,,,,,,,,,,,,,,,,,,,,,0,,,,,,,,,,,,,,,,,,,,,,,,,,,,left,1,100,-30,70,0,4230.933453,4230.933453,4230.933453,None,None,1,1,1.0954623,,,,,,,,,,,,,,,,,,,10,8,1,2024-10-18_17h15.29.903,uWM_experiment,2022.2.3,59.99732413
,,,,,,,,,,,,,,,,,,,,8,0,8,0,6,0,6,0,,,,,,,,,,,,,,,,,,,,,,,,,,,,,,,,,,,,,,,,,,,,,,,,,,,,,,,,,,,,,,,,,,,,,,0,,,,,,,,,,,,,,,,,,,,,,,,,,,,right,0,10,-30,-20,0,4237.783718,4237.783718,4237.783718,None,None,1,1,0.437125,,,,,,,,,,,,,,,,,,,10,8,1,2024-10-18_17h15.29.903,uWM_experiment,2022.2.3,59.99732413
,,,,,,,,,,,,,,,,,,,,8,0,8,0,7,0,7,0,,,,,,,,,,,,,,,,,,,,,,,,,,,,,,,,,,,,,,,,,,,,,,,,,,,,,,,,,,,,,,,,,,,,,,0,,,,,,,,,,,,,,,,,,,,,,,,,,,,left,0,10,30,40,0,4244.167308,4244.167308,4244.167308,None,None,1,1,0.7337578,,,,,,,,,,,,,,,,,,,10,8,1,2024-10-18_17h15.29.903,uWM_experiment,2022.2.3,59.99732413
,,,,,,,,,,,,,,,,,,,,8,0,8,0,8,0,8,0,,,,,,,,,,,,,,,,,,,,,,,,,,,,,,,,,,,,,,,,,,,,,,,,,,,,,,,,,,,,,,,,,,,,,,0.065,,,,,,,,,,,,,,,,,,,,,,,,,,,,left,0,130,30,160,1,4251.784278,4251.784278,4251.784278,None,None,1,1,0.3005778,,,,,,,,,,,,,,,,,,,10,8,1,2024-10-18_17h15.29.903,uWM_experiment,2022.2.3,59.99732413
,,,,,,,,,,,,,,,,,,,,8,0,8,0,9,0,9,0,,,,,,,,,,,,,,,,,,,,,,,,,,,,,,,,,,,,,,,,,,,,,,,,,,,,,,,,,,,,,,,,,,,,,,0.075,,,,,,,,,,,,,,,,,,,,,,,,,,,,left,1,160,-30,130,1,4258.667895,4258.667895,4258.667895,None,None,2,0,1.0729222,,,,,,,,,,,,,,,,,,,10,8,1,2024-10-18_17h15.29.903,uWM_experiment,2022.2.3,59.99732413
,,,,,,,,,,,,,,,,,,,,8,0,8,0,10,0,10,0,,,,,,,,,,,,,,,,,,,,,,,,,,,,,,,,,,,,,,,,,,,,,,,,,,,,,,,,,,,,,,,,,,,,,,0.065,,,,,,,,,,,,,,,,,,,,,,,,,,,,right,1,100,30,130,1,4265.8015,4265.8015,4265.8015,None,None,1,1,0.5152539,,,,,,,,,,,,,,,,,,,10,8,1,2024-10-18_17h15.29.903,uWM_experiment,2022.2.3,59.99732413
,,,,,,,,,,,,,,,,,,,,8,0,8,0,11,0,11,0,,,,,,,,,,,,,,,,,,,,,,,,,,,,,,,,,,,,,,,,,,,,,,,,,,,,,,,,,,,,,,,,,,,,,,0.075,,,,,,,,,,,,,,,,,,,,,,,,,,,,right,1,160,30,190,1,4272.8851,4272.8851,4272.8851,None,None,2,0,0.9916775,,,,,,,,,,,,,,,,,,,10,8,1,2024-10-18_17h15.29.903,uWM_experiment,2022.2.3,59.99732413
,,,,,,,,,,,,,,,,,,,,8,0,8,0,12,0,12,0,,,,,,,,,,,,,,,,,,,,,,,,,,,,,,,,,,,,,,,,,,,,,,,,,,,,,,,,,,,,,,,,,,,,,,0.065,,,,,,,,,,,,,,,,,,,,,,,,,,,,left,1,40,-30,10,1,4280.285433,4280.285433,4280.285433,None,None,1,1,0.1351574,,,,,,,,,,,,,,,,,,,10,8,1,2024-10-18_17h15.29.903,uWM_experiment,2022.2.3,59.99732413
,,,,,,,,,,,,,,,,,,,,8,0,8,0,13,0,13,0,,,,,,,,,,,,,,,,,,,,,,,,,,,,,,,,,,,,,,,,,,,,,,,,,,,,,,,,,,,,,,,,,,,,,,0.1,,,,,,,,,,,,,,,,,,,,,,,,,,,,left,1,130,-30,100,2,4289.385779,4289.385779,4289.385779,None,None,4,0,3.1069312,,,,,,,,,,,,,,,,,,,10,8,1,2024-10-18_17h15.29.903,uWM_experiment,2022.2.3,59.99732413
,,,,,,,,,,,,,,,,,,,,8,0,8,0,14,0,14,0,,,,,,,,,,,,,,,,,,,,,,,,,,,,,,,,,,,,,,,,,,,,,,,,,,,,,,,,,,,,,,,,,,,,,,0.075,,,,,,,,,,,,,,,,,,,,,,,,,,,,left,1,160,-30,130,1,4298.936132,4298.936132,4298.936132,None,None,2,0,1.468398,,,,,,,,,,,,,,,,,,,10,8,1,2024-10-18_17h15.29.903,uWM_experiment,2022.2.3,59.99732413
,,,,,,,,,,,,,,,,,,,,8,0,8,0,15,0,15,0,,,,,,,,,,,,,,,,,,,,,,,,,,,,,,,,,,,,,,,,,,,,,,,,,,,,,,,,,,,,,,,,,,,,,,0.065,,,,,,,,,,,,,,,,,,,,,,,,,,,,right,0,70,-30,40,1,4307.086474,4307.086474,4307.086474,None,None,2,0,1.174132,,,,,,,,,,,,,,,,,,,10,8,1,2024-10-18_17h15.29.903,uWM_experiment,2022.2.3,59.99732413
,,,,,,,,,,,,,,,,,,,,8,0,8,0,16,0,16,0,,,,,,,,,,,,,,,,,,,,,,,,,,,,,,,,,,,,,,,,,,,,,,,,,,,,,,,,,,,,,,,,,,,,,,0.055,,,,,,,,,,,,,,,,,,,,,,,,,,,,right,1,130,30,160,1,4314.586781,4314.586781,4314.586781,None,None,2,0,0.4257786,,,,,,,,,,,,,,,,,,,10,8,1,2024-10-18_17h15.29.903,uWM_experiment,2022.2.3,59.99732413
,,,,,,,,,,,,,,,,,,,,8,0,8,0,17,0,17,0,,,,,,,,,,,,,,,,,,,,,,,,,,,,,,,,,,,,,,,,,,,,,,,,,,,,,,,,,,,,,,,,,,,,,,0.045,,,,,,,,,,,,,,,,,,,,,,,,,,,,left,0,10,30,40,1,4322.253718,4322.253718,4322.253718,None,None,1,1,0.2307553,,,,,,,,,,,,,,,,,,,10,8,1,2024-10-18_17h15.29.903,uWM_experiment,2022.2.3,59.99732413
,,,,,,,,,,,,,,,,,,,,8,0,8,0,18,0,18,0,,,,,,,,,,,,,,,,,,,,,,,,,,,,,,,,,,,,,,,,,,,,,,,,,,,,,,,,,,,,,,,,,,,,,,0.1,,,,,,,,,,,,,,,,,,,,,,,,,,,,left,1,160,-30,130,2,4329.670705,4329.670705,4329.670705,None,None,4,0,0.3738109,,,,,,,,,,,,,,,,,,,10,8,1,2024-10-18_17h15.29.903,uWM_experiment,2022.2.3,59.99732413
,,,,,,,,,,,,,,,,,,,,8,0,8,0,19,0,19,0,,,,,,,,,,,,,,,,,,,,,,,,,,,,,,,,,,,,,,,,,,,,,,,,,,,,,,,,,,,,,,,,,,,,,,0.055,,,,,,,,,,,,,,,,,,,,,,,,,,,,left,1,160,-30,130,1,4339.637741,4339.637741,4339.637741,None,None,2,0,0.7426995,,,,,,,,,,,,,,,,,,,10,8,1,2024-10-18_17h15.29.903,uWM_experiment,2022.2.3,59.99732413
,,,,,,,,,,,,,,,,,,,,8,0,8,0,20,0,20,0,,,,,,,,,,,,,,,,,,,,,,,,,,,,,,,,,,,,,,,,,,,,,,,,,,,,,,,,,,,,,,,,,,,,,,0.1,,,,,,,,,,,,,,,,,,,,,,,,,,,,left,1,70,-30,40,2,4347.421403,4347.421403,4347.421403,None,None,4,0,0.2631233,,,,,,,,,,,,,,,,,,,10,8,1,2024-10-18_17h15.29.903,uWM_experiment,2022.2.3,59.99732413
,,,,,,,,,,,,,,,,,,,,8,0,8,0,21,0,21,0,,,,,,,,,,,,,,,,,,,,,,,,,,,,,,,,,,,,,,,,,,,,,,,,,,,,,,,,,,,,,,,,,,,,,,0,,,,,,,,,,,,,,,,,,,,,,,,,,,,right,1,70,30,100,0,4354.121679,4354.121679,4354.121679,None,None,1,1,0.7866498,,,,,,,,,,,,,,,,,,,10,8,1,2024-10-18_17h15.29.903,uWM_experiment,2022.2.3,59.99732413
,,,,,,,,,,,,,,,,,,,,8,0,8,0,22,0,22,0,,,,,,,,,,,,,,,,,,,,,,,,,,,,,,,,,,,,,,,,,,,,,,,,,,,,,,,,,,,,,,,,,,,,,,0.045,,,,,,,,,,,,,,,,,,,,,,,,,,,,left,0,10,30,40,1,4360.855267,4360.855267,4360.855267,None,None,1,1,0.3810872,,,,,,,,,,,,,,,,,,,10,8,1,2024-10-18_17h15.29.903,uWM_experiment,2022.2.3,59.99732413
,,,,,,,,,,,,,,,,,,,,8,0,8,0,23,0,23,0,,,,,,,,,,,,,,,,,,,,,,,,,,,,,,,,,,,,,,,,,,,,,,,,,,,,,,,,,,,,,,,,,,,,,,0,,,,,,,,,,,,,,,,,,,,,,,,,,,,right,0,130,-30,100,0,4367.238832,4367.238832,4367.238832,None,None,1,1,0.7894889,,,,,,,,,,,,,,,,,,,10,8,1,2024-10-18_17h15.29.903,uWM_experiment,2022.2.3,59.99732413
,,,,,,,,,,,,,,,,,,,,8,0,8,0,,,,,0,0,0,0,,,,,,,,,,,,,,,,,,,,,,,,,,,,,,,,,,,,,,,,,,,,,,,,,,,,,,,,,,,,,,,,,,,,,,,,,,,,,,,,,,,,,,,,,,,,,,,,,,,,,,,,,,,,4368.055516,4368.055516,space,12.0447613,space,None,,4380.122677,4380.122677,11.5375513,,,,,,,,,10,8,1,2024-10-18_17h15.29.903,uWM_experiment,2022.2.3,59.99732413
,,,,,,,,,,,,,,,,,,,,8,0,8,0,,,,,1,0,1,0,,,,,,,,,,,,,,,,,,,,,,,,,,,,,,,,,,,,,,,,,,,,,,,,,,,,,,,,,,,,,,,,,,,,,,,,,,,,,,,,,,,,,,,,,,,,,,,,,,,,,,,,,,,,,,,,,,,,,,,,,,,,,,10,8,1,2024-10-18_17h15.29.903,uWM_experiment,2022.2.3,59.99732413
,,,,,,,,,,,,,,,,,,,,8,0,8,0,,,,,2,0,2,0,,,,,,,,,,,,,,,,,,,,,,,,,,,,,,,,,,,,,,,,,,,,,,,,,,,,,,,,,,,,,,,,,,,,,,,,,,,,,,,,,,,,,,,,,,,,,,,,,,,,,,,,,,,,,,,,,,,,,,,,,,,,,,10,8,1,2024-10-18_17h15.29.903,uWM_experiment,2022.2.3,59.99732413
,,,,,,,,,,,,,,,,,,,,9,0,9,0,0,0,0,0,,,,,,,,,,,,,,,,,,,,,,,,,,,,,,,,,,,,,,,,,,,,,,,,,,,,,,,,,,,,,,,,,,,,,,0,,,,,,,,,,,,,,,,,,,,4391.689794,4392.389818,4392.689834,4393.389858,4393.689867,4394.389899,4394.389899,4394.70659,left,1,130,-30,100,0,4402.00688,4402.00688,4402.00688,None,None,1,1,0.3572641,,,,,,,None,,,,,,,,,,,,10,8,1,2024-10-18_17h15.29.903,uWM_experiment,2022.2.3,59.99732413
,,,,,,,,,,,,,,,,,,,,9,0,9,0,1,0,1,0,,,,,,,,,,,,,,,,,,,,,,,,,,,,,,,,,,,,,,,,,,,,,,,,,,,,,,,,,,,,,,,,,,,,,,0,,,,,,,,,,,,,,,,,,,,,,,,,,,,right,0,100,-30,70,0,4410.507205,4410.507205,4410.507205,None,None,1,1,0.3528356,,,,,,,,,,,,,,,,,,,10,8,1,2024-10-18_17h15.29.903,uWM_experiment,2022.2.3,59.99732413
,,,,,,,,,,,,,,,,,,,,9,0,9,0,2,0,2,0,,,,,,,,,,,,,,,,,,,,,,,,,,,,,,,,,,,,,,,,,,,,,,,,,,,,,,,,,,,,,,,,,,,,,,0.055,,,,,,,,,,,,,,,,,,,,,,,,,,,,right,1,70,30,100,1,4417.390813,4417.390813,4417.390813,None,None,1,1,0.4532108,,,,,,,,,,,,,,,,,,,10,8,1,2024-10-18_17h15.29.903,uWM_experiment,2022.2.3,59.99732413
,,,,,,,,,,,,,,,,,,,,9,0,9,0,3,0,3,0,,,,,,,,,,,,,,,,,,,,,,,,,,,,,,,,,,,,,,,,,,,,,,,,,,,,,,,,,,,,,,,,,,,,,,0.065,,,,,,,,,,,,,,,,,,,,,,,,,,,,right,1,70,30,100,1,4423.657728,4423.657728,4423.657728,None,None,1,1,0.2823234,,,,,,,,,,,,,,,,,,,10,8,1,2024-10-18_17h15.29.903,uWM_experiment,2022.2.3,59.99732413
,,,,,,,,,,,,,,,,,,,,9,0,9,0,4,0,4,0,,,,,,,,,,,,,,,,,,,,,,,,,,,,,,,,,,,,,,,,,,,,,,,,,,,,,,,,,,,,,,,,,,,,,,0.075,,,,,,,,,,,,,,,,,,,,,,,,,,,,right,0,10,-30,-20,1,4429.774653,4429.774653,4429.774653,None,None,1,1,0.6454578,,,,,,,,,,,,,,,,,,,10,8,1,2024-10-18_17h15.29.903,uWM_experiment,2022.2.3,59.99732413
,,,,,,,,,,,,,,,,,,,,9,0,9,0,5,0,5,0,,,,,,,,,,,,,,,,,,,,,,,,,,,,,,,,,,,,,,,,,,,,,,,,,,,,,,,,,,,,,,,,,,,,,,0.085,,,,,,,,,,,,,,,,,,,,,,,,,,,,left,1,100,-30,70,1,4436.541565,4436.541565,4436.541565,None,None,1,1,0.246432,,,,,,,,,,,,,,,,,,,10,8,1,2024-10-18_17h15.29.903,uWM_experiment,2022.2.3,59.99732413
,,,,,,,,,,,,,,,,,,,,9,0,9,0,6,0,6,0,,,,,,,,,,,,,,,,,,,,,,,,,,,,,,,,,,,,,,,,,,,,,,,,,,,,,,,,,,,,,,,,,,,,,,0.095,,,,,,,,,,,,,,,,,,,,,,,,,,,,left,0,10,30,40,1,4443.525161,4443.525161,4443.525161,None,None,2,0,0.4227892,,,,,,,,,,,,,,,,,,,10,8,1,2024-10-18_17h15.29.903,uWM_experiment,2022.2.3,59.99732413
,,,,,,,,,,,,,,,,,,,,9,0,9,0,7,0,7,0,,,,,,,,,,,,,,,,,,,,,,,,,,,,,,,,,,,,,,,,,,,,,,,,,,,,,,,,,,,,,,,,,,,,,,0.085,,,,,,,,,,,,,,,,,,,,,,,,,,,,left,1,10,-30,-20,1,4450.392133,4450.392133,4450.392133,None,None,2,0,0.8998169,,,,,,,,,,,,,,,,,,,10,8,1,2024-10-18_17h15.29.903,uWM_experiment,2022.2.3,59.99732413
,,,,,,,,,,,,,,,,,,,,9,0,9,0,8,0,8,0,,,,,,,,,,,,,,,,,,,,,,,,,,,,,,,,,,,,,,,,,,,,,,,,,,,,,,,,,,,,,,,,,,,,,,0.075,,,,,,,,,,,,,,,,,,,,,,,,,,,,left,1,100,-30,70,1,4462.642581,4462.642581,4462.642581,None,None,2,0,1.0654406,,,,,,,,,,,,,,,,,,,10,8,1,2024-10-18_17h15.29.903,uWM_experiment,2022.2.3,59.99732413
,,,,,,,,,,,,,,,,,,,,9,0,9,0,9,0,9,0,,,,,,,,,,,,,,,,,,,,,,,,,,,,,,,,,,,,,,,,,,,,,,,,,,,,,,,,,,,,,,,,,,,,,,0.065,,,,,,,,,,,,,,,,,,,,,,,,,,,,left,0,40,30,70,1,4471.276281,4471.276281,4471.276281,None,None,2,0,1.3755613,,,,,,,,,,,,,,,,,,,10,8,1,2024-10-18_17h15.29.903,uWM_experiment,2022.2.3,59.99732413
,,,,,,,,,,,,,,,,,,,,9,0,9,0,10,0,10,0,,,,,,,,,,,,,,,,,,,,,,,,,,,,,,,,,,,,,,,,,,,,,,,,,,,,,,,,,,,,,,,,,,,,,,0.055,,,,,,,,,,,,,,,,,,,,,,,,,,,,left,1,10,-30,-20,1,4479.326597,4479.326597,4479.326597,None,None,1,1,0.3412658,,,,,,,,,,,,,,,,,,,10,8,1,2024-10-18_17h15.29.903,uWM_experiment,2022.2.3,59.99732413
,,,,,,,,,,,,,,,,,,,,9,0,9,0,11,0,11,0,,,,,,,,,,,,,,,,,,,,,,,,,,,,,,,,,,,,,,,,,,,,,,,,,,,,,,,,,,,,,,,,,,,,,,0.065,,,,,,,,,,,,,,,,,,,,,,,,,,,,left,0,10,30,40,1,4485.56019,4485.56019,4485.56019,None,None,1,1,0.4035425,,,,,,,,,,,,,,,,,,,10,8,1,2024-10-18_17h15.29.903,uWM_experiment,2022.2.3,59.99732413
,,,,,,,,,,,,,,,,,,,,9,0,9,0,12,0,12,0,,,,,,,,,,,,,,,,,,,,,,,,,,,,,,,,,,,,,,,,,,,,,,,,,,,,,,,,,,,,,,,,,,,,,,0.075,,,,,,,,,,,,,,,,,,,,,,,,,,,,right,1,160,30,190,1,4491.827098,4491.827098,4491.827098,None,None,2,0,0.5685838,,,,,,,,,,,,,,,,,,,10,8,1,2024-10-18_17h15.29.903,uWM_experiment,2022.2.3,59.99732413
,,,,,,,,,,,,,,,,,,,,9,0,9,0,13,0,13,0,,,,,,,,,,,,,,,,,,,,,,,,,,,,,,,,,,,,,,,,,,,,,,,,,,,,,,,,,,,,,,,,,,,,,,0.065,,,,,,,,,,,,,,,,,,,,,,,,,,,,right,1,10,30,40,1,4499.177404,4499.177404,4499.177404,None,None,1,1,1.0743143,,,,,,,,,,,,,,,,,,,10,8,1,2024-10-18_17h15.29.903,uWM_experiment,2022.2.3,59.99732413
,,,,,,,,,,,,,,,,,,,,9,0,9,0,14,0,14,0,,,,,,,,,,,,,,,,,,,,,,,,,,,,,,,,,,,,,,,,,,,,,,,,,,,,,,,,,,,,,,,,,,,,,,0.075,,,,,,,,,,,,,,,,,,,,,,,,,,,,left,1,10,-30,-20,1,4506.010998,4506.010998,4506.010998,None,None,1,1,0.5046278,,,,,,,,,,,,,,,,,,,10,8,1,2024-10-18_17h15.29.903,uWM_experiment,2022.2.3,59.99732413
,,,,,,,,,,,,,,,,,,,,9,0,9,0,15,0,15,0,,,,,,,,,,,,,,,,,,,,,,,,,,,,,,,,,,,,,,,,,,,,,,,,,,,,,,,,,,,,,,,,,,,,,,0,,,,,,,,,,,,,,,,,,,,,,,,,,,,left,1,160,-30,130,0,4512.361236,4512.361236,4512.361236,None,None,1,1,0.4424832,,,,,,,,,,,,,,,,,,,10,8,1,2024-10-18_17h15.29.903,uWM_experiment,2022.2.3,59.99732413
,,,,,,,,,,,,,,,,,,,,9,0,9,0,16,0,16,0,,,,,,,,,,,,,,,,,,,,,,,,,,,,,,,,,,,,,,,,,,,,,,,,,,,,,,,,,,,,,,,,,,,,,,0.085,,,,,,,,,,,,,,,,,,,,,,,,,,,,left,1,100,-30,70,1,4518.761474,4518.761474,4518.761474,None,None,2,0,0.3301399,,,,,,,,,,,,,,,,,,,10,8,1,2024-10-18_17h15.29.903,uWM_experiment,2022.2.3,59.99732413
,,,,,,,,,,,,,,,,,,,,9,0,9,0,17,0,17,0,,,,,,,,,,,,,,,,,,,,,,,,,,,,,,,,,,,,,,,,,,,,,,,,,,,,,,,,,,,,,,,,,,,,,,0.075,,,,,,,,,,,,,,,,,,,,,,,,,,,,right,1,130,30,160,1,4525.678422,4525.678422,4525.678422,None,None,3,0,0.2931992,,,,,,,,,,,,,,,,,,,10,8,1,2024-10-18_17h15.29.903,uWM_experiment,2022.2.3,59.99732413
,,,,,,,,,,,,,,,,,,,,9,0,9,0,18,0,18,0,,,,,,,,,,,,,,,,,,,,,,,,,,,,,,,,,,,,,,,,,,,,,,,,,,,,,,,,,,,,,,,,,,,,,,0.065,,,,,,,,,,,,,,,,,,,,,,,,,,,,right,1,40,30,70,1,4543.479196,4543.479196,4543.479196,None,None,2,0,1.4522043,,,,,,,,,,,,,,,,,,,10,8,1,2024-10-18_17h15.29.903,uWM_experiment,2022.2.3,59.99732413
,,,,,,,,,,,,,,,,,,,,9,0,9,0,19,0,19,0,,,,,,,,,,,,,,,,,,,,,,,,,,,,,,,,,,,,,,,,,,,,,,,,,,,,,,,,,,,,,,,,,,,,,,0.055,,,,,,,,,,,,,,,,,,,,,,,,,,,,right,1,100,30,130,1,4551.479464,4551.479464,4551.479464,None,None,2,0,3.4199032,,,,,,,,,,,,,,,,,,,10,8,1,2024-10-18_17h15.29.903,uWM_experiment,2022.2.3,59.99732413
,,,,,,,,,,,,,,,,,,,,9,0,9,0,20,0,20,0,,,,,,,,,,,,,,,,,,,,,,,,,,,,,,,,,,,,,,,,,,,,,,,,,,,,,,,,,,,,,,,,,,,,,,0.045,,,,,,,,,,,,,,,,,,,,,,,,,,,,left,0,40,30,70,1,4562.113215,4562.113215,4562.113215,None,None,1,1,0.2422928,,,,,,,,,,,,,,,,,,,10,8,1,2024-10-18_17h15.29.903,uWM_experiment,2022.2.3,59.99732413
,,,,,,,,,,,,,,,,,,,,9,0,9,0,21,0,21,0,,,,,,,,,,,,,,,,,,,,,,,,,,,,,,,,,,,,,,,,,,,,,,,,,,,,,,,,,,,,,,,,,,,,,,0.055,,,,,,,,,,,,,,,,,,,,,,,,,,,,left,1,160,-30,130,1,4569.596843,4569.596843,4569.596843,None,None,1,1,0.3184431,,,,,,,,,,,,,,,,,,,10,8,1,2024-10-18_17h15.29.903,uWM_experiment,2022.2.3,59.99732413
,,,,,,,,,,,,,,,,,,,,9,0,9,0,22,0,22,0,,,,,,,,,,,,,,,,,,,,,,,,,,,,,,,,,,,,,,,,,,,,,,,,,,,,,,,,,,,,,,,,,,,,,,0.065,,,,,,,,,,,,,,,,,,,,,,,,,,,,right,1,100,30,130,1,4578.36385,4578.36385,4578.36385,None,None,1,1,0.8714424,,,,,,,,,,,,,,,,,,,10,8,1,2024-10-18_17h15.29.903,uWM_experiment,2022.2.3,59.99732413
,,,,,,,,,,,,,,,,,,,,9,0,9,0,23,0,23,0,,,,,,,,,,,,,,,,,,,,,,,,,,,,,,,,,,,,,,,,,,,,,,,,,,,,,,,,,,,,,,,,,,,,,,0.075,,,,,,,,,,,,,,,,,,,,,,,,,,,,right,0,40,-30,10,1,4589.797688,4589.797688,4589.797688,None,None,1,1,0.9416719,,,,,,,,,,,,,,,,,,,10,8,1,2024-10-18_17h15.29.903,uWM_experiment,2022.2.3,59.99732413
,,,,,,,,,,,,,,,,,,,,9,0,9,0,,,,,0,0,0,0,,,,,,,,,,,,,,,,,,,,,,,,,,,,,,,,,,,,,,,,,,,,,,,,,,,,,,,,,,,,,,,,,,,,,,,,,,,,,,,,,,,,,,,,,,,,,,,,,,,,,,,,,,,,4590.764318,4590.764318,space,21.2709594,None,None,,,,,,,,,,,,,10,8,1,2024-10-18_17h15.29.903,uWM_experiment,2022.2.3,59.99732413
