PreTrainingPAS4_loop.thisRepN,PreTrainingPAS4_loop.thisTrialN,PreTrainingPAS4_loop.thisN,PreTrainingPAS4_loop.thisIndex,PreTrainingPAS1_loop.thisRepN,PreTrainingPAS1_loop.thisTrialN,PreTrainingPAS1_loop.thisN,PreTrainingPAS1_loop.thisIndex,RepeatCV_loop.thisRepN,RepeatCV_loop.thisTrialN,RepeatCV_loop.thisN,RepeatCV_loop.thisIndex,TrainingCV_loop.thisRepN,TrainingCV_loop.thisTrialN,TrainingCV_loop.thisN,TrainingCV_loop.thisIndex,TrainingCAL_loop.thisRepN,TrainingCAL_loop.thisTrialN,TrainingCAL_loop.thisN,TrainingCAL_loop.thisIndex,blocks_loop.thisRepN,blocks_loop.thisTrialN,blocks_loop.thisN,blocks_loop.thisIndex,trials_loop.thisRepN,trials_loop.thisTrialN,trials_loop.thisN,trials_loop.thisIndex,TrainingPAS1_loop.thisRepN,TrainingPAS1_loop.thisTrialN,TrainingPAS1_loop.thisN,TrainingPAS1_loop.thisIndex,spacebarWelcome0.started,spacebarWelcome0.keys,spacebarWelcome0.rt,spacebarWelcome1.started,gaborWelcome1.started,maskWelcome1.started,textMaskWelcome1.started,spacebarWelcome1.keys,spacebarWelcome1.rt,spacebarWelcome2.started,spacebarWelcome2.keys,spacebarWelcome2.rt,textInst_PreTrainingPAS4.started,spacebarPreTrainingPAS4.started,spacebarPreTrainingPAS4.keys,spacebarPreTrainingPAS4.rt,textPreTrainingPAS1.started,spacebarPreTrainingPAS1.started,spacebarPreTrainingPAS1.keys,spacebarPreTrainingPAS1.rt,textQUEST0.started,spacebarQUEST0.started,spacebarQUEST0.keys,spacebarQUEST0.rt,spacebar0.started,spacebar0.keys,spacebar0.rt,spacebar1.started,spacebar1.keys,spacebar1.rt,textInstructions2.started,spacebar2.started,Gabor1Inst2.started,Gabor2Inst2.started,Gabor3Inst2.started,Gabor4Inst2.started,spacebar2.keys,spacebar2.rt,textInstructionsPAS.started,spacebarInstPAS.started,spacebarInstPAS.keys,spacebarInstPAS.rt,textInstructions3.started,spacebar3.started,spacebar3.keys,spacebar3.rt,WMresp_CV,WMresp_CV_acc,oriMemo_CV,gyre_CV,oriTest_CV,feedbackText.started,sliderCV.started,PAStextCV.started,PASkeyCV.started,sliderCV.response,sliderCV.rt,PASkeyCV.keys,PASkeyCV.corr,PASkeyCV.rt,feedbackText.stopped,TextInstructionsCAL.started,spacebarCAL.started,spacebarCAL.keys,spacebarCAL.rt,contrast,WMresp_CAL,WMresp_CAL_acc,oriMemo_CAL,gyre_CAL,oriTest_CAL,cue_CAL,sliderCAL.started,PAStextCAL.started,PASkeyCAL.started,sliderCAL.response,sliderCAL.rt,PASkeyCAL.keys,PASkeyCAL.corr,PASkeyCAL.rt,propUnseen_CAL,textStart.started,spacebar4.started,spacebar4.keys,spacebar4.rt,three.started,three.stopped,two.started,two.stopped,one.started,one.stopped,blank_countdown.started,blank_countdown.stopped,WMresp,WMresp_acc,oriMemo,gyre,oriTest,cue,slider.started,textPAS_firstGabor.started,PASkey.started,slider.response,slider.rt,PASkey.keys,PASkey.corr,PASkey.rt,spacebarContinue.started,textBreak.started,spacebarContinue.keys,spacebarContinue.rt,spacebar_reminder.keys,spacebar_TrainingPAS1.keys,spacebar_endpractice.keys,spacebar_reminder.started,textReminder.started,spacebar_reminder.rt,textInst_TrainingPAS1.started,spacebar_TrainingPAS1.started,spacebar_TrainingPAS1.rt,textend_practicePAS1.started,spacebar_endpractice.started,spacebar_endpractice.rt,textThanks.started,buttonURL.started,buttonURL.numClicks,buttonURL.timesOn,buttonURL.timesOff,laboratory,participant,session,date,expName,psychopyVersion,frameRate
,,,,,,,,,,,,,,,,,,,,,,,,,,,,,,,,375.136872,space,35.2366671,,,,,,,,,,,,,,,,,,,,,,,,,,,,,,,,,,,,,,,,,,,,,,,,,,,,,,,,,,,,,,,,,,,,,,,,,,,,,,,,,,,,,,,,,,,,,,,,,,,,,,,,,,,,,,,,,,,,,,,,,,,,,,10,8,2,2024-10-20_17h02.44.274,uWM_experiment,2022.2.3,60.00438032
,,,,,,,,,,,,,,,,,,,,,,,,,,,,,,,,,,,410.4214107,410.4214107,410.4214107,410.4214107,space,8.3202439,,,,,,,,,,,,,,,,,,,,,,,,,,,,,,,,,,,,,,,,,,,,,,,,,,,,,,,,,,,,,,,,,,,,,,,,,,,,,,,,,,,,,,,,,,,,,,,,,,,,,,,,,,,,,,,,,,,,,,,,10,8,2,2024-10-20_17h02.44.274,uWM_experiment,2022.2.3,60.00438032
,,,,,,,,,,,,,,,,,,,,,,,,,,,,,,,,,,,,,,,,,418.7717326,space,17.5458397,,,,,,,,,,,,,,,,,,,,,,,,,,,,,,,,,,,,,,,,,,,,,,,,,,,,,,,,,,,,,,,,,,,,,,,,,,,,,,,,,,,,,,,,,,,,,,,,,,,,,,,,,,,,,,,,,,,,,10,8,2,2024-10-20_17h02.44.274,uWM_experiment,2022.2.3,60.00438032
,,,,,,,,,,,,,,,,,,,,,,,,,,,,,,,,,,,,,,,,,,,,436.3390911,436.3390911,space,9.5303456,,,,,,,,,,,,,,,,,,,,,,,,,,,,,,,,,,,,,,,,,,,,,,,,,,,,,,,,,,,,,,,,,,,,,,,,,,,,,,,,,,,,,,,,,,,,,,,,,,,,,,,,,,,,,,,,,10,8,2,2024-10-20_17h02.44.274,uWM_experiment,2022.2.3,60.00438032
0,0,0,0,,,,,,,,,,,,,,,,,,,,,,,,,,,,,,,,,,,,,,,,,,,,,,,,,,,,,,,,,,,,,,,,,,,,,,,,,,,,,,,,,,,,,,,,,,,,,,,,,,,,,,,,,,,,,,,,,,,,,,,,,,,,,,,,,,,,,,,,,,,,,,,,,,,,,,,,,,,,,10,8,2,2024-10-20_17h02.44.274,uWM_experiment,2022.2.3,60.00438032
1,0,1,0,,,,,,,,,,,,,,,,,,,,,,,,,,,,,,,,,,,,,,,,,,,,,,,,,,,,,,,,,,,,,,,,,,,,,,,,,,,,,,,,,,,,,,,,,,,,,,,,,,,,,,,,,,,,,,,,,,,,,,,,,,,,,,,,,,,,,,,,,,,,,,,,,,,,,,,,,,,,,10,8,2,2024-10-20_17h02.44.274,uWM_experiment,2022.2.3,60.00438032
2,0,2,0,,,,,,,,,,,,,,,,,,,,,,,,,,,,,,,,,,,,,,,,,,,,,,,,,,,,,,,,,,,,,,,,,,,,,,,,,,,,,,,,,,,,,,,,,,,,,,,,,,,,,,,,,,,,,,,,,,,,,,,,,,,,,,,,,,,,,,,,,,,,,,,,,,,,,,,,,,,,,10,8,2,2024-10-20_17h02.44.274,uWM_experiment,2022.2.3,60.00438032
,,,,,,,,,,,,,,,,,,,,,,,,,,,,,,,,,,,,,,,,,,,,,,,,457.2566416,457.2566416,space,6.6767935,,,,,,,,,,,,,,,,,,,,,,,,,,,,,,,,,,,,,,,,,,,,,,,,,,,,,,,,,,,,,,,,,,,,,,,,,,,,,,,,,,,,,,,,,,,,,,,,,,,,,,,,,,,,,10,8,2,2024-10-20_17h02.44.274,uWM_experiment,2022.2.3,60.00438032
,,,,0,0,0,0,,,,,,,,,,,,,,,,,,,,,,,,,,,,,,,,,,,,,,,,,,,,,,,,,,,,,,,,,,,,,,,,,,,,,,,,,,,,,,,,,,,,,,,,,,,,,,,,,,,,,,,,,,,,,,,,,,,,,,,,,,,,,,,,,,,,,,,,,,,,,,,,,,,,,,,,,10,8,2,2024-10-20_17h02.44.274,uWM_experiment,2022.2.3,60.00438032
,,,,1,0,1,0,,,,,,,,,,,,,,,,,,,,,,,,,,,,,,,,,,,,,,,,,,,,,,,,,,,,,,,,,,,,,,,,,,,,,,,,,,,,,,,,,,,,,,,,,,,,,,,,,,,,,,,,,,,,,,,,,,,,,,,,,,,,,,,,,,,,,,,,,,,,,,,,,,,,,,,,,10,8,2,2024-10-20_17h02.44.274,uWM_experiment,2022.2.3,60.00438032
,,,,2,0,2,0,,,,,,,,,,,,,,,,,,,,,,,,,,,,,,,,,,,,,,,,,,,,,,,,,,,,,,,,,,,,,,,,,,,,,,,,,,,,,,,,,,,,,,,,,,,,,,,,,,,,,,,,,,,,,,,,,,,,,,,,,,,,,,,,,,,,,,,,,,,,,,,,,,,,,,,,,10,8,2,2024-10-20_17h02.44.274,uWM_experiment,2022.2.3,60.00438032
,,,,,,,,,,,,,,,,,,,,,,,,,,,,,,,,,,,,,,,,,,,,,,,,,,,,471.257189,471.257189,space,6.8202049,,,,,,,,,,,,,,,,,,,,,,,,,,,,,,,,,,,,,,,,,,,,,,,,,,,,,,,,,,,,,,,,,,,,,,,,,,,,,,,,,,,,,,,,,,,,,,,,,,,,,,,,,10,8,2,2024-10-20_17h02.44.274,uWM_experiment,2022.2.3,60.00438032
,,,,,,,,,,,,,,,,,,,,,,,,,,,,,,,,,,,,,,,,,,,,,,,,,,,,,,,,606.8460717,space,5.3509616,,,,,,,,,,,,,,,,,,,,,,,,,,,,,,,,,,,,,,,,,,,,,,,,,,,,,,,,,,,,,,,,,,,,,,,,,,,,,,,,,,,,,,,,,,,,,,,,,,,,,,10,8,2,2024-10-20_17h02.44.274,uWM_experiment,2022.2.3,60.00438032
,,,,,,,,,,,,,,,,,,,,,,,,,,,,,,,,,,,,,,,,,,,,,,,,,,,,,,,,,,,612.2296193,space,27.4713605,,,,,,,,,,,,,,,,,,,,,,,,,,,,,,,,,,,,,,,,,,,,,,,,,,,,,,,,,,,,,,,,,,,,,,,,,,,,,,,,,,,,,,,,,,,,,,,,,,,10,8,2,2024-10-20_17h02.44.274,uWM_experiment,2022.2.3,60.00438032
,,,,,,,,,,,,,,,,,,,,,,,,,,,,,,,,,,,,,,,,,,,,,,,,,,,,,,,,,,,,,,639.7307238,639.7307238,639.7307238,639.7307238,639.7307238,639.7307238,space,16.370129,,,,,,,,,,,,,,,,,,,,,,,,,,,,,,,,,,,,,,,,,,,,,,,,,,,,,,,,,,,,,,,,,,,,,,,,,,,,,,,,,,,,,,,,,,,10,8,2,2024-10-20_17h02.44.274,uWM_experiment,2022.2.3,60.00438032
,,,,,,,,,,,,,,,,,,,,,,,,,,,,,,,,,,,,,,,,,,,,,,,,,,,,,,,,,,,,,,,,,,,,,,656.1313916,656.1313916,space,1.7533162,,,,,,,,,,,,,,,,,,,,,,,,,,,,,,,,,,,,,,,,,,,,,,,,,,,,,,,,,,,,,,,,,,,,,,,,,,,,,,,,,,,,,,,10,8,2,2024-10-20_17h02.44.274,uWM_experiment,2022.2.3,60.00438032
,,,,,,,,,,,,,,,,,,,,,,,,,,,,,,,,,,,,,,,,,,,,,,,,,,,,,,,,,,,,,,,,,,,,,,,,,,657.9147977,657.9147977,space,1.993955,,,,,,,,,,,,,,,,,,,,,,,,,,,,,,,,,,,,,,,,,,,,,,,,,,,,,,,,,,,,,,,,,,,,,,,,,,,,,,,,,,,10,8,2,2024-10-20_17h02.44.274,uWM_experiment,2022.2.3,60.00438032
,,,,,,,,0,0,0,0,0,0,0,0,,,,,,,,,,,,,,,,,,,,,,,,,,,,,,,,,,,,,,,,,,,,,,,,,,,,,,,,,,,,,,,left,1,130,-30,100,666.8151941,667.8152039,667.8152039,667.8152039,None,None,4,0,0.989641,,,,,,,,,,,,,,,,,,,,,,,,,,,,,,,,,,,,,,,,,,,,,,,,,,,,,,,,,,,,,,,,,,,,,10,8,2,2024-10-20_17h02.44.274,uWM_experiment,2022.2.3,60.00438032
,,,,,,,,0,0,0,0,1,0,1,0,,,,,,,,,,,,,,,,,,,,,,,,,,,,,,,,,,,,,,,,,,,,,,,,,,,,,,,,,,,,,,,left,1,40,-30,10,674.9655034,675.9655495,675.9655495,675.9655495,None,None,4,0,0.4551241,675.9655495,,,,,,,,,,,,,,,,,,,,,,,,,,,,,,,,,,,,,,,,,,,,,,,,,,,,,,,,,,,,,,,,,,,,10,8,2,2024-10-20_17h02.44.274,uWM_experiment,2022.2.3,60.00438032
,,,,,,,,0,0,0,0,2,0,2,0,,,,,,,,,,,,,,,,,,,,,,,,,,,,,,,,,,,,,,,,,,,,,,,,,,,,,,,,,,,,,,,right,1,100,30,130,682.5158397,683.515854,683.515854,683.515854,None,None,4,0,0.3207706,683.515854,,,,,,,,,,,,,,,,,,,,,,,,,,,,,,,,,,,,,,,,,,,,,,,,,,,,,,,,,,,,,,,,,,,,10,8,2,2024-10-20_17h02.44.274,uWM_experiment,2022.2.3,60.00438032
,,,,,,,,0,0,0,0,3,0,3,0,,,,,,,,,,,,,,,,,,,,,,,,,,,,,,,,,,,,,,,,,,,,,,,,,,,,,,,,,,,,,,,right,1,160,30,190,689.7494486,690.7494433,690.7494433,690.7494433,None,None,4,0,0.3512278,690.7494433,,,,,,,,,,,,,,,,,,,,,,,,,,,,,,,,,,,,,,,,,,,,,,,,,,,,,,,,,,,,,,,,,,,,10,8,2,2024-10-20_17h02.44.274,uWM_experiment,2022.2.3,60.00438032
,,,,,,,,0,0,0,0,4,0,4,0,,,,,,,,,,,,,,,,,,,,,,,,,,,,,,,,,,,,,,,,,,,,,,,,,,,,,,,,,,,,,,,left,1,40,-30,10,697.4497584,698.4497981,698.4497981,698.4497981,None,None,4,0,0.394983,698.4497981,,,,,,,,,,,,,,,,,,,,,,,,,,,,,,,,,,,,,,,,,,,,,,,,,,,,,,,,,,,,,,,,,,,,10,8,2,2024-10-20_17h02.44.274,uWM_experiment,2022.2.3,60.00438032
,,,,,,,,0,0,0,0,5,0,5,0,,,,,,,,,,,,,,,,,,,,,,,,,,,,,,,,,,,,,,,,,,,,,,,,,,,,,,,,,,,,,,,left,1,70,-30,40,704.7334147,705.7334435,705.7334435,705.7334435,None,None,4,0,0.7112681,705.7334435,,,,,,,,,,,,,,,,,,,,,,,,,,,,,,,,,,,,,,,,,,,,,,,,,,,,,,,,,,,,,,,,,,,,10,8,2,2024-10-20_17h02.44.274,uWM_experiment,2022.2.3,60.00438032
,,,,,,,,0,0,0,0,,,,,,,,,,,,,,,,,,,,,,,,,,,,,,,,,,,,,,,,,,,,,,,,,,,,,,,,,,,,,,,,,,,,,,,,,,,,,,,,,,,,,,,,,,,,,,,,,,,,,,,,,,,,,,,,,,,,,,,,,,,,,,,,,,,,,,,,,,,,,,,,,,,,,10,8,2,2024-10-20_17h02.44.274,uWM_experiment,2022.2.3,60.00438032
,,,,,,,,,,,,,,,,,,,,,,,,,,,,,,,,,,,,,,,,,,,,,,,,,,,,,,,,,,,,,,,,,,,,,,,,,,,,,,,,,,,,,,,,,,,,,710.4836319,710.4836319,space,8.9609977,,,,,,,,,,,,,,,,,,,,,,,,,,,,,,,,,,,,,,,,,,,,,,,,,,,,,,,,,,,,,,,,10,8,2,2024-10-20_17h02.44.274,uWM_experiment,2022.2.3,60.00438032
,,,,,,,,,,,,,,,,0,0,0,0,,,,,,,,,,,,,,,,,,,,,,,,,,,,,,,,,,,,,,,,,,,,,,,,,,,,,,,,,,,,,,,,,,,,,,,,,,,,,,0.023413657,left,1,10,-30,-20,1,724.9675597,724.9675597,724.9675597,None,None,1,1,3.7331218,,,,,,,,,,,,,,,,,,,,,,,,,,,,,,,,,,,,,,,,,,,,,,,,,10,8,2,2024-10-20_17h02.44.274,uWM_experiment,2022.2.3,60.00438032
,,,,,,,,,,,,,,,,1,0,1,0,,,,,,,,,,,,,,,,,,,,,,,,,,,,,,,,,,,,,,,,,,,,,,,,,,,,,,,,,,,,,,,,,,,,,,,,,,,,,,0.1,right,1,70,30,100,2,736.0679939,736.0679939,736.0679939,None,None,4,0,0.904522,1,,,,,,,,,,,,,,,,,,,,,,,,,,,,,,,,,,,,,,,,,,,,,,,,10,8,2,2024-10-20_17h02.44.274,uWM_experiment,2022.2.3,60.00438032
,,,,,,,,,,,,,,,,2,0,2,0,,,,,,,,,,,,,,,,,,,,,,,,,,,,,,,,,,,,,,,,,,,,,,,,,,,,,,,,,,,,,,,,,,,,,,,,,,,,,,0.1,left,1,160,-30,130,2,744.2683466,744.2683466,744.2683466,None,None,4,0,1.0003631,0.5,,,,,,,,,,,,,,,,,,,,,,,,,,,,,,,,,,,,,,,,,,,,,,,,10,8,2,2024-10-20_17h02.44.274,uWM_experiment,2022.2.3,60.00438032
,,,,,,,,,,,,,,,,3,0,3,0,,,,,,,,,,,,,,,,,,,,,,,,,,,,,,,,,,,,,,,,,,,,,,,,,,,,,,,,,,,,,,,,,,,,,,,,,,,,,,0.033413657,left,1,100,-30,70,1,752.2687013,752.2687013,752.2687013,None,None,3,0,1.5598666,0.333333333,,,,,,,,,,,,,,,,,,,,,,,,,,,,,,,,,,,,,,,,,,,,,,,,10,8,2,2024-10-20_17h02.44.274,uWM_experiment,2022.2.3,60.00438032
,,,,,,,,,,,,,,,,4,0,4,0,,,,,,,,,,,,,,,,,,,,,,,,,,,,,,,,,,,,,,,,,,,,,,,,,,,,,,,,,,,,,,,,,,,,,,,,,,,,,,0.023413657,right,1,40,30,70,1,761.0357043,761.0357043,761.0357043,None,None,2,0,0.2488429,0.25,,,,,,,,,,,,,,,,,,,,,,,,,,,,,,,,,,,,,,,,,,,,,,,,10,8,2,2024-10-20_17h02.44.274,uWM_experiment,2022.2.3,60.00438032
,,,,,,,,,,,,,,,,5,0,5,0,,,,,,,,,,,,,,,,,,,,,,,,,,,,,,,,,,,,,,,,,,,,,,,,,,,,,,,,,,,,,,,,,,,,,,,,,,,,,,0.1,right,1,130,30,160,2,767.5193103,767.5193103,767.5193103,None,None,4,0,0.8290902,0.2,,,,,,,,,,,,,,,,,,,,,,,,,,,,,,,,,,,,,,,,,,,,,,,,10,8,2,2024-10-20_17h02.44.274,uWM_experiment,2022.2.3,60.00438032
,,,,,,,,,,,,,,,,,,,,,,,,,,,,,,,,,,,,,,,,,,,,,,,,,,,,,,,,,,,,,,,,,,,,,,,,,,,,,,,,,,,,,,,,,,,,,,,,,,,,,,,,,,,,,,,,,768.3693078,769.3526971,space,6.4198508,,,,,,,,,,,,,,,,,,,,,,,,,,,,,,,,,,,,,,,,,,,,10,8,2,2024-10-20_17h02.44.274,uWM_experiment,2022.2.3,60.00438032
,,,,,,,,,,,,,,,,,,,,0,0,0,0,0,0,0,0,,,,,,,,,,,,,,,,,,,,,,,,,,,,,,,,,,,,,,,,,,,,,,,,,,,,,,,,,,,,,,,,,,,,,,0.023413657,,,,,,,,,,,,,,,,,,,,775.8029623,776.5030383,776.7863414,777.4863557,777.7863805,778.4864079,778.4864079,778.8364346,left,1,10,-30,-20,1,783.5532913,783.5532913,783.5532913,None,None,1,1,0.4431538,,,,,,,,,,,,,,,,,,,,,,10,8,2,2024-10-20_17h02.44.274,uWM_experiment,2022.2.3,60.00438032
,,,,,,,,,,,,,,,,,,,,0,0,0,0,1,0,1,0,,,,,,,,,,,,,,,,,,,,,,,,,,,,,,,,,,,,,,,,,,,,,,,,,,,,,,,,,,,,,,,,,,,,,,0.033413657,,,,,,,,,,,,,,,,,,,,,,,,,,,,right,1,70,30,100,1,791.2869241,791.2869241,791.2869241,None,None,2,0,1.4294966,,,,,,,,,,,,,,,,,,,,,,10,8,2,2024-10-20_17h02.44.274,uWM_experiment,2022.2.3,60.00438032
,,,,,,,,,,,,,,,,,,,,0,0,0,0,2,0,2,0,,,,,,,,,,,,,,,,,,,,,,,,,,,,,,,,,,,,,,,,,,,,,,,,,,,,,,,,,,,,,,,,,,,,,,0.023413657,,,,,,,,,,,,,,,,,,,,,,,,,,,,left,0,160,30,190,1,798.770571,798.770571,798.770571,None,None,1,1,0.6898175,,,,,,,,,,,,,,,,,,,,,,10,8,2,2024-10-20_17h02.44.274,uWM_experiment,2022.2.3,60.00438032
,,,,,,,,,,,,,,,,,,,,0,0,0,0,3,0,3,0,,,,,,,,,,,,,,,,,,,,,,,,,,,,,,,,,,,,,,,,,,,,,,,,,,,,,,,,,,,,,,,,,,,,,,0.033413657,,,,,,,,,,,,,,,,,,,,,,,,,,,,left,1,10,-30,-20,1,805.2875121,805.2875121,805.2875121,None,None,1,1,0.2768158,,,,,,,,,,,,,,,,,,,,,,10,8,2,2024-10-20_17h02.44.274,uWM_experiment,2022.2.3,60.00438032
,,,,,,,,,,,,,,,,,,,,0,0,0,0,4,0,4,0,,,,,,,,,,,,,,,,,,,,,,,,,,,,,,,,,,,,,,,,,,,,,,,,,,,,,,,,,,,,,,,,,,,,,,0.043413657,,,,,,,,,,,,,,,,,,,,,,,,,,,,right,0,70,-30,40,1,811.6711036,811.6711036,811.6711036,None,None,2,0,1.4772813,,,,,,,,,,,,,,,,,,,,,,10,8,2,2024-10-20_17h02.44.274,uWM_experiment,2022.2.3,60.00438032
,,,,,,,,,,,,,,,,,,,,0,0,0,0,5,0,5,0,,,,,,,,,,,,,,,,,,,,,,,,,,,,,,,,,,,,,,,,,,,,,,,,,,,,,,,,,,,,,,,,,,,,,,0.033413657,,,,,,,,,,,,,,,,,,,,,,,,,,,,right,1,130,30,160,1,819.3714073,819.3714073,819.3714073,None,None,2,0,0.4648694,,,,,,,,,,,,,,,,,,,,,,10,8,2,2024-10-20_17h02.44.274,uWM_experiment,2022.2.3,60.00438032
,,,,,,,,,,,,,,,,,,,,0,0,0,0,6,0,6,0,,,,,,,,,,,,,,,,,,,,,,,,,,,,,,,,,,,,,,,,,,,,,,,,,,,,,,,,,,,,,,,,,,,,,,0.023413657,,,,,,,,,,,,,,,,,,,,,,,,,,,,left,1,130,-30,100,1,826.1716811,826.1716811,826.1716811,None,None,1,1,0.2245851,,,,,,,,,,,,,,,,,,,,,,10,8,2,2024-10-20_17h02.44.274,uWM_experiment,2022.2.3,60.00438032
,,,,,,,,,,,,,,,,,,,,0,0,0,0,7,0,7,0,,,,,,,,,,,,,,,,,,,,,,,,,,,,,,,,,,,,,,,,,,,,,,,,,,,,,,,,,,,,,,,,,,,,,,0.033413657,,,,,,,,,,,,,,,,,,,,,,,,,,,,right,0,10,-30,-20,1,832.0219362,832.0219362,832.0219362,None,None,1,1,0.7583603,,,,,,,,,,,,,,,,,,,,,,10,8,2,2024-10-20_17h02.44.274,uWM_experiment,2022.2.3,60.00438032
,,,,,,,,,,,,,,,,,,,,0,0,0,0,8,0,8,0,,,,,,,,,,,,,,,,,,,,,,,,,,,,,,,,,,,,,,,,,,,,,,,,,,,,,,,,,,,,,,,,,,,,,,0,,,,,,,,,,,,,,,,,,,,,,,,,,,,right,1,10,30,40,0,838.6721901,838.6721901,838.6721901,None,None,1,1,0.6039984,,,,,,,,,,,,,,,,,,,,,,10,8,2,2024-10-20_17h02.44.274,uWM_experiment,2022.2.3,60.00438032
,,,,,,,,,,,,,,,,,,,,0,0,0,0,9,0,9,0,,,,,,,,,,,,,,,,,,,,,,,,,,,,,,,,,,,,,,,,,,,,,,,,,,,,,,,,,,,,,,,,,,,,,,0,,,,,,,,,,,,,,,,,,,,,,,,,,,,right,0,100,-30,70,0,845.2224756,845.2224756,845.2224756,None,None,1,1,1.9257273,,,,,,,,,,,,,,,,,,,,,,10,8,2,2024-10-20_17h02.44.274,uWM_experiment,2022.2.3,60.00438032
,,,,,,,,,,,,,,,,,,,,0,0,0,0,10,0,10,0,,,,,,,,,,,,,,,,,,,,,,,,,,,,,,,,,,,,,,,,,,,,,,,,,,,,,,,,,,,,,,,,,,,,,,0.043413657,,,,,,,,,,,,,,,,,,,,,,,,,,,,right,1,160,30,190,1,853.022798,853.022798,853.022798,None,None,1,1,0.1573977,,,,,,,,,,,,,,,,,,,,,,10,8,2,2024-10-20_17h02.44.274,uWM_experiment,2022.2.3,60.00438032
,,,,,,,,,,,,,,,,,,,,0,0,0,0,11,0,11,0,,,,,,,,,,,,,,,,,,,,,,,,,,,,,,,,,,,,,,,,,,,,,,,,,,,,,,,,,,,,,,,,,,,,,,0.053413657,,,,,,,,,,,,,,,,,,,,,,,,,,,,left,1,100,-30,70,1,861.2564609,861.2564609,861.2564609,None,None,2,0,1.7077426,,,,,,,,,,,,,,,,,,,,,,10,8,2,2024-10-20_17h02.44.274,uWM_experiment,2022.2.3,60.00438032
,,,,,,,,,,,,,,,,,,,,0,0,0,0,12,0,12,0,,,,,,,,,,,,,,,,,,,,,,,,,,,,,,,,,,,,,,,,,,,,,,,,,,,,,,,,,,,,,,,,,,,,,,0.043413657,,,,,,,,,,,,,,,,,,,,,,,,,,,,right,1,130,30,160,1,871.0235518,871.0235518,871.0235518,None,None,1,1,0.5566849,,,,,,,,,,,,,,,,,,,,,,10,8,2,2024-10-20_17h02.44.274,uWM_experiment,2022.2.3,60.00438032
,,,,,,,,,,,,,,,,,,,,0,0,0,0,13,0,13,0,,,,,,,,,,,,,,,,,,,,,,,,,,,,,,,,,,,,,,,,,,,,,,,,,,,,,,,,,,,,,,,,,,,,,,0.053413657,,,,,,,,,,,,,,,,,,,,,,,,,,,,right,1,40,30,70,1,877.7737828,877.7737828,877.7737828,None,None,2,0,0.6542547,,,,,,,,,,,,,,,,,,,,,,10,8,2,2024-10-20_17h02.44.274,uWM_experiment,2022.2.3,60.00438032
,,,,,,,,,,,,,,,,,,,,0,0,0,0,14,0,14,0,,,,,,,,,,,,,,,,,,,,,,,,,,,,,,,,,,,,,,,,,,,,,,,,,,,,,,,,,,,,,,,,,,,,,,0.043413657,,,,,,,,,,,,,,,,,,,,,,,,,,,,left,1,40,-30,10,1,884.1574352,884.1574352,884.1574352,None,None,1,1,0.2306385,,,,,,,,,,,,,,,,,,,,,,10,8,2,2024-10-20_17h02.44.274,uWM_experiment,2022.2.3,60.00438032
,,,,,,,,,,,,,,,,,,,,0,0,0,0,15,0,15,0,,,,,,,,,,,,,,,,,,,,,,,,,,,,,,,,,,,,,,,,,,,,,,,,,,,,,,,,,,,,,,,,,,,,,,0.053413657,,,,,,,,,,,,,,,,,,,,,,,,,,,,left,1,160,-30,130,1,894.7411673,894.7411673,894.7411673,None,None,1,1,0.9508531,,,,,,,,,,,,,,,,,,,,,,10,8,2,2024-10-20_17h02.44.274,uWM_experiment,2022.2.3,60.00438032
,,,,,,,,,,,,,,,,,,,,0,0,0,0,16,0,16,0,,,,,,,,,,,,,,,,,,,,,,,,,,,,,,,,,,,,,,,,,,,,,,,,,,,,,,,,,,,,,,,,,,,,,,0.063413657,,,,,,,,,,,,,,,,,,,,,,,,,,,,right,0,70,-30,40,1,901.4081074,901.4081074,901.4081074,None,None,1,1,0.2758628,,,,,,,,,,,,,,,,,,,,,,10,8,2,2024-10-20_17h02.44.274,uWM_experiment,2022.2.3,60.00438032
,,,,,,,,,,,,,,,,,,,,0,0,0,0,17,0,17,0,,,,,,,,,,,,,,,,,,,,,,,,,,,,,,,,,,,,,,,,,,,,,,,,,,,,,,,,,,,,,,,,,,,,,,0,,,,,,,,,,,,,,,,,,,,,,,,,,,,right,0,100,-30,70,0,907.3917053,907.3917053,907.3917053,None,None,1,1,0.236206,,,,,,,,,,,,,,,,,,,,,,10,8,2,2024-10-20_17h02.44.274,uWM_experiment,2022.2.3,60.00438032
,,,,,,,,,,,,,,,,,,,,0,0,0,0,18,0,18,0,,,,,,,,,,,,,,,,,,,,,,,,,,,,,,,,,,,,,,,,,,,,,,,,,,,,,,,,,,,,,,,,,,,,,,0.1,,,,,,,,,,,,,,,,,,,,,,,,,,,,left,1,70,-30,40,2,914.0919421,914.0919421,914.0919421,None,None,4,0,0.3760683,,,,,,,,,,,,,,,,,,,,,,10,8,2,2024-10-20_17h02.44.274,uWM_experiment,2022.2.3,60.00438032
,,,,,,,,,,,,,,,,,,,,0,0,0,0,19,0,19,0,,,,,,,,,,,,,,,,,,,,,,,,,,,,,,,,,,,,,,,,,,,,,,,,,,,,,,,,,,,,,,,,,,,,,,0.073413657,,,,,,,,,,,,,,,,,,,,,,,,,,,,right,1,70,30,100,1,920.6922134,920.6922134,920.6922134,None,None,2,0,1.0078818,,,,,,,,,,,,,,,,,,,,,,10,8,2,2024-10-20_17h02.44.274,uWM_experiment,2022.2.3,60.00438032
,,,,,,,,,,,,,,,,,,,,0,0,0,0,20,0,20,0,,,,,,,,,,,,,,,,,,,,,,,,,,,,,,,,,,,,,,,,,,,,,,,,,,,,,,,,,,,,,,,,,,,,,,0.063413657,,,,,,,,,,,,,,,,,,,,,,,,,,,,left,1,130,-30,100,1,927.9925447,927.9925447,927.9925447,None,None,2,0,0.5474469,,,,,,,,,,,,,,,,,,,,,,10,8,2,2024-10-20_17h02.44.274,uWM_experiment,2022.2.3,60.00438032
,,,,,,,,,,,,,,,,,,,,0,0,0,0,21,0,21,0,,,,,,,,,,,,,,,,,,,,,,,,,,,,,,,,,,,,,,,,,,,,,,,,,,,,,,,,,,,,,,,,,,,,,,0,,,,,,,,,,,,,,,,,,,,,,,,,,,,right,1,10,30,40,0,934.4428112,934.4428112,934.4428112,None,None,1,1,0.2091607,,,,,,,,,,,,,,,,,,,,,,10,8,2,2024-10-20_17h02.44.274,uWM_experiment,2022.2.3,60.00438032
,,,,,,,,,,,,,,,,,,,,0,0,0,0,22,0,22,0,,,,,,,,,,,,,,,,,,,,,,,,,,,,,,,,,,,,,,,,,,,,,,,,,,,,,,,,,,,,,,,,,,,,,,0.053413657,,,,,,,,,,,,,,,,,,,,,,,,,,,,right,1,40,30,70,1,941.3430777,941.3430777,941.3430777,None,None,2,0,0.2929003,,,,,,,,,,,,,,,,,,,,,,10,8,2,2024-10-20_17h02.44.274,uWM_experiment,2022.2.3,60.00438032
,,,,,,,,,,,,,,,,,,,,0,0,0,0,23,0,23,0,,,,,,,,,,,,,,,,,,,,,,,,,,,,,,,,,,,,,,,,,,,,,,,,,,,,,,,,,,,,,,,,,,,,,,0,,,,,,,,,,,,,,,,,,,,,,,,,,,,right,0,100,-30,70,0,948.4433709,948.4433709,948.4433709,None,None,1,1,0.4884236,,,,,,,,,,,,,,,,,,,,,,10,8,2,2024-10-20_17h02.44.274,uWM_experiment,2022.2.3,60.00438032
,,,,,,,,,,,,,,,,,,,,0,0,0,0,,,,,0,0,0,0,,,,,,,,,,,,,,,,,,,,,,,,,,,,,,,,,,,,,,,,,,,,,,,,,,,,,,,,,,,,,,,,,,,,,,,,,,,,,,,,,,,,,,,,,,,,,,,,,,,,,,,,,,,,948.9600386,948.9600386,space,8.6677895,None,None,,,,,,,,,,,,,,,,10,8,2,2024-10-20_17h02.44.274,uWM_experiment,2022.2.3,60.00438032
,,,,,,,,,,,,,,,,,,,,0,0,0,0,,,,,1,0,1,0,,,,,,,,,,,,,,,,,,,,,,,,,,,,,,,,,,,,,,,,,,,,,,,,,,,,,,,,,,,,,,,,,,,,,,,,,,,,,,,,,,,,,,,,,,,,,,,,,,,,,,,,,,,,,,,,,,,,,,,,,,,,,,,,,10,8,2,2024-10-20_17h02.44.274,uWM_experiment,2022.2.3,60.00438032
,,,,,,,,,,,,,,,,,,,,0,0,0,0,,,,,2,0,2,0,,,,,,,,,,,,,,,,,,,,,,,,,,,,,,,,,,,,,,,,,,,,,,,,,,,,,,,,,,,,,,,,,,,,,,,,,,,,,,,,,,,,,,,,,,,,,,,,,,,,,,,,,,,,,,,,,,,,,,,,,,,,,,,,,10,8,2,2024-10-20_17h02.44.274,uWM_experiment,2022.2.3,60.00438032
,,,,,,,,,,,,,,,,,,,,1,0,1,0,0,0,0,0,,,,,,,,,,,,,,,,,,,,,,,,,,,,,,,,,,,,,,,,,,,,,,,,,,,,,,,,,,,,,,,,,,,,,,0,,,,,,,,,,,,,,,,,,,,957.6604076,958.3604338,958.6604586,959.3604734,959.6604804,960.3605075,960.3605075,960.6771879,left,0,70,30,100,0,965.5274106,965.5274106,965.5274106,None,None,1,1,0.6363168,,,,,,,None,,,,,,,,,,,,,,,10,8,2,2024-10-20_17h02.44.274,uWM_experiment,2022.2.3,60.00438032
,,,,,,,,,,,,,,,,,,,,1,0,1,0,1,0,1,0,,,,,,,,,,,,,,,,,,,,,,,,,,,,,,,,,,,,,,,,,,,,,,,,,,,,,,,,,,,,,,,,,,,,,,0,,,,,,,,,,,,,,,,,,,,,,,,,,,,right,0,40,-30,10,0,974.67777,974.67777,974.67777,None,None,1,1,1.3179323,,,,,,,,,,,,,,,,,,,,,,10,8,2,2024-10-20_17h02.44.274,uWM_experiment,2022.2.3,60.00438032
,,,,,,,,,,,,,,,,,,,,1,0,1,0,2,0,2,0,,,,,,,,,,,,,,,,,,,,,,,,,,,,,,,,,,,,,,,,,,,,,,,,,,,,,,,,,,,,,,,,,,,,,,0.043413657,,,,,,,,,,,,,,,,,,,,,,,,,,,,left,1,10,-30,-20,1,981.7280432,981.7280432,981.7280432,None,None,1,1,0.2757609,,,,,,,,,,,,,,,,,,,,,,10,8,2,2024-10-20_17h02.44.274,uWM_experiment,2022.2.3,60.00438032
,,,,,,,,,,,,,,,,,,,,1,0,1,0,3,0,3,0,,,,,,,,,,,,,,,,,,,,,,,,,,,,,,,,,,,,,,,,,,,,,,,,,,,,,,,,,,,,,,,,,,,,,,0,,,,,,,,,,,,,,,,,,,,,,,,,,,,left,1,70,-30,40,0,987.9283167,987.9283167,987.9283167,None,None,1,1,0.2434042,,,,,,,,,,,,,,,,,,,,,,10,8,2,2024-10-20_17h02.44.274,uWM_experiment,2022.2.3,60.00438032
,,,,,,,,,,,,,,,,,,,,1,0,1,0,4,0,4,0,,,,,,,,,,,,,,,,,,,,,,,,,,,,,,,,,,,,,,,,,,,,,,,,,,,,,,,,,,,,,,,,,,,,,,0.053413657,,,,,,,,,,,,,,,,,,,,,,,,,,,,right,1,70,30,100,1,994.1119077,994.1119077,994.1119077,None,None,1,1,0.6998232,,,,,,,,,,,,,,,,,,,,,,10,8,2,2024-10-20_17h02.44.274,uWM_experiment,2022.2.3,60.00438032
,,,,,,,,,,,,,,,,,,,,1,0,1,0,5,0,5,0,,,,,,,,,,,,,,,,,,,,,,,,,,,,,,,,,,,,,,,,,,,,,,,,,,,,,,,,,,,,,,,,,,,,,,0.063413657,,,,,,,,,,,,,,,,,,,,,,,,,,,,left,1,130,-30,100,1,1000.728837,1000.728837,1000.728837,None,None,2,0,0.3547674,,,,,,,,,,,,,,,,,,,,,,10,8,2,2024-10-20_17h02.44.274,uWM_experiment,2022.2.3,60.00438032
,,,,,,,,,,,,,,,,,,,,1,0,1,0,6,0,6,0,,,,,,,,,,,,,,,,,,,,,,,,,,,,,,,,,,,,,,,,,,,,,,,,,,,,,,,,,,,,,,,,,,,,,,0,,,,,,,,,,,,,,,,,,,,,,,,,,,,right,0,70,-30,40,0,1010.662582,1010.662582,1010.662582,None,None,2,0,1.0610521,,,,,,,,,,,,,,,,,,,,,,10,8,2,2024-10-20_17h02.44.274,uWM_experiment,2022.2.3,60.00438032
,,,,,,,,,,,,,,,,,,,,1,0,1,0,7,0,7,0,,,,,,,,,,,,,,,,,,,,,,,,,,,,,,,,,,,,,,,,,,,,,,,,,,,,,,,,,,,,,,,,,,,,,,0,,,,,,,,,,,,,,,,,,,,,,,,,,,,left,1,40,-30,10,0,1017.446209,1017.446209,1017.446209,None,None,2,0,0.4053873,,,,,,,,,,,,,,,,,,,,,,10,8,2,2024-10-20_17h02.44.274,uWM_experiment,2022.2.3,60.00438032
,,,,,,,,,,,,,,,,,,,,1,0,1,0,8,0,8,0,,,,,,,,,,,,,,,,,,,,,,,,,,,,,,,,,,,,,,,,,,,,,,,,,,,,,,,,,,,,,,,,,,,,,,0,,,,,,,,,,,,,,,,,,,,,,,,,,,,right,1,70,30,100,0,1024.979849,1024.979849,1024.979849,None,None,1,1,0.5999583,,,,,,,,,,,,,,,,,,,,,,10,8,2,2024-10-20_17h02.44.274,uWM_experiment,2022.2.3,60.00438032
,,,,,,,,,,,,,,,,,,,,1,0,1,0,9,0,9,0,,,,,,,,,,,,,,,,,,,,,,,,,,,,,,,,,,,,,,,,,,,,,,,,,,,,,,,,,,,,,,,,,,,,,,0.053413657,,,,,,,,,,,,,,,,,,,,,,,,,,,,right,1,40,30,70,1,1031.780111,1031.780111,1031.780111,None,None,1,1,0.1915541,,,,,,,,,,,,,,,,,,,,,,10,8,2,2024-10-20_17h02.44.274,uWM_experiment,2022.2.3,60.00438032
,,,,,,,,,,,,,,,,,,,,1,0,1,0,10,0,10,0,,,,,,,,,,,,,,,,,,,,,,,,,,,,,,,,,,,,,,,,,,,,,,,,,,,,,,,,,,,,,,,,,,,,,,0.063413657,,,,,,,,,,,,,,,,,,,,,,,,,,,,right,1,100,30,130,1,1037.863696,1037.863696,1037.863696,None,None,1,1,0.267801,,,,,,,,,,,,,,,,,,,,,,10,8,2,2024-10-20_17h02.44.274,uWM_experiment,2022.2.3,60.00438032
,,,,,,,,,,,,,,,,,,,,1,0,1,0,11,0,11,0,,,,,,,,,,,,,,,,,,,,,,,,,,,,,,,,,,,,,,,,,,,,,,,,,,,,,,,,,,,,,,,,,,,,,,0.073413657,,,,,,,,,,,,,,,,,,,,,,,,,,,,right,1,130,30,160,1,1045.197323,1045.197323,1045.197323,None,None,2,0,0.3341882,,,,,,,,,,,,,,,,,,,,,,10,8,2,2024-10-20_17h02.44.274,uWM_experiment,2022.2.3,60.00438032
,,,,,,,,,,,,,,,,,,,,1,0,1,0,12,0,12,0,,,,,,,,,,,,,,,,,,,,,,,,,,,,,,,,,,,,,,,,,,,,,,,,,,,,,,,,,,,,,,,,,,,,,,0.063413657,,,,,,,,,,,,,,,,,,,,,,,,,,,,left,1,40,-30,10,1,1051.314243,1051.314243,1051.314243,None,None,2,0,0.4972738,,,,,,,,,,,,,,,,,,,,,,10,8,2,2024-10-20_17h02.44.274,uWM_experiment,2022.2.3,60.00438032
,,,,,,,,,,,,,,,,,,,,1,0,1,0,13,0,13,0,,,,,,,,,,,,,,,,,,,,,,,,,,,,,,,,,,,,,,,,,,,,,,,,,,,,,,,,,,,,,,,,,,,,,,0.053413657,,,,,,,,,,,,,,,,,,,,,,,,,,,,left,1,10,-30,-20,1,1057.714519,1057.714519,1057.714519,None,None,1,1,0.617176,,,,,,,,,,,,,,,,,,,,,,10,8,2,2024-10-20_17h02.44.274,uWM_experiment,2022.2.3,60.00438032
,,,,,,,,,,,,,,,,,,,,1,0,1,0,14,0,14,0,,,,,,,,,,,,,,,,,,,,,,,,,,,,,,,,,,,,,,,,,,,,,,,,,,,,,,,,,,,,,,,,,,,,,,0.063413657,,,,,,,,,,,,,,,,,,,,,,,,,,,,left,1,160,-30,130,1,1064.114778,1064.114778,1064.114778,None,None,2,0,0.1366177,,,,,,,,,,,,,,,,,,,,,,10,8,2,2024-10-20_17h02.44.274,uWM_experiment,2022.2.3,60.00438032
,,,,,,,,,,,,,,,,,,,,1,0,1,0,15,0,15,0,,,,,,,,,,,,,,,,,,,,,,,,,,,,,,,,,,,,,,,,,,,,,,,,,,,,,,,,,,,,,,,,,,,,,,0,,,,,,,,,,,,,,,,,,,,,,,,,,,,right,0,70,-30,40,0,1070.648402,1070.648402,1070.648402,None,None,2,0,0.418986,,,,,,,,,,,,,,,,,,,,,,10,8,2,2024-10-20_17h02.44.274,uWM_experiment,2022.2.3,60.00438032
,,,,,,,,,,,,,,,,,,,,1,0,1,0,16,0,16,0,,,,,,,,,,,,,,,,,,,,,,,,,,,,,,,,,,,,,,,,,,,,,,,,,,,,,,,,,,,,,,,,,,,,,,0,,,,,,,,,,,,,,,,,,,,,,,,,,,,left,1,40,-30,10,0,1077.115302,1077.115302,1077.115302,None,None,1,1,0.3282375,,,,,,,,,,,,,,,,,,,,,,10,8,2,2024-10-20_17h02.44.274,uWM_experiment,2022.2.3,60.00438032
,,,,,,,,,,,,,,,,,,,,1,0,1,0,17,0,17,0,,,,,,,,,,,,,,,,,,,,,,,,,,,,,,,,,,,,,,,,,,,,,,,,,,,,,,,,,,,,,,,,,,,,,,0,,,,,,,,,,,,,,,,,,,,,,,,,,,,left,0,40,30,70,0,1087.415742,1087.415742,1087.415742,None,None,1,1,1.5957636,,,,,,,,,,,,,,,,,,,,,,10,8,2,2024-10-20_17h02.44.274,uWM_experiment,2022.2.3,60.00438032
,,,,,,,,,,,,,,,,,,,,1,0,1,0,18,0,18,0,,,,,,,,,,,,,,,,,,,,,,,,,,,,,,,,,,,,,,,,,,,,,,,,,,,,,,,,,,,,,,,,,,,,,,0.053413657,,,,,,,,,,,,,,,,,,,,,,,,,,,,left,1,100,-30,70,1,1095.382724,1095.382724,1095.382724,None,None,2,0,0.3807972,,,,,,,,,,,,,,,,,,,,,,10,8,2,2024-10-20_17h02.44.274,uWM_experiment,2022.2.3,60.00438032
,,,,,,,,,,,,,,,,,,,,1,0,1,0,19,0,19,0,,,,,,,,,,,,,,,,,,,,,,,,,,,,,,,,,,,,,,,,,,,,,,,,,,,,,,,,,,,,,,,,,,,,,,0,,,,,,,,,,,,,,,,,,,,,,,,,,,,right,0,100,-30,70,0,1101.416294,1101.416294,1101.416294,None,None,1,1,0.1790891,,,,,,,,,,,,,,,,,,,,,,10,8,2,2024-10-20_17h02.44.274,uWM_experiment,2022.2.3,60.00438032
,,,,,,,,,,,,,,,,,,,,1,0,1,0,20,0,20,0,,,,,,,,,,,,,,,,,,,,,,,,,,,,,,,,,,,,,,,,,,,,,,,,,,,,,,,,,,,,,,,,,,,,,,0.043413657,,,,,,,,,,,,,,,,,,,,,,,,,,,,left,1,70,-30,40,1,1107.29987,1107.29987,1107.29987,None,None,2,0,0.3994512,,,,,,,,,,,,,,,,,,,,,,10,8,2,2024-10-20_17h02.44.274,uWM_experiment,2022.2.3,60.00438032
,,,,,,,,,,,,,,,,,,,,1,0,1,0,21,0,21,0,,,,,,,,,,,,,,,,,,,,,,,,,,,,,,,,,,,,,,,,,,,,,,,,,,,,,,,,,,,,,,,,,,,,,,0,,,,,,,,,,,,,,,,,,,,,,,,,,,,right,1,70,30,100,0,1113.900131,1113.900131,1113.900131,None,None,1,1,0.191147,,,,,,,,,,,,,,,,,,,,,,10,8,2,2024-10-20_17h02.44.274,uWM_experiment,2022.2.3,60.00438032
,,,,,,,,,,,,,,,,,,,,1,0,1,0,22,0,22,0,,,,,,,,,,,,,,,,,,,,,,,,,,,,,,,,,,,,,,,,,,,,,,,,,,,,,,,,,,,,,,,,,,,,,,0.1,,,,,,,,,,,,,,,,,,,,,,,,,,,,right,1,100,30,130,2,1121.083782,1121.083782,1121.083782,None,None,4,0,0.9836,,,,,,,,,,,,,,,,,,,,,,10,8,2,2024-10-20_17h02.44.274,uWM_experiment,2022.2.3,60.00438032
,,,,,,,,,,,,,,,,,,,,1,0,1,0,23,0,23,0,,,,,,,,,,,,,,,,,,,,,,,,,,,,,,,,,,,,,,,,,,,,,,,,,,,,,,,,,,,,,,,,,,,,,,0.033413657,,,,,,,,,,,,,,,,,,,,,,,,,,,,left,1,100,-30,70,1,1128.217382,1128.217382,1128.217382,None,None,2,0,0.2659842,,,,,,,,,,,,,,,,,,,,,,10,8,2,2024-10-20_17h02.44.274,uWM_experiment,2022.2.3,60.00438032
,,,,,,,,,,,,,,,,,,,,1,0,1,0,,,,,0,0,0,0,,,,,,,,,,,,,,,,,,,,,,,,,,,,,,,,,,,,,,,,,,,,,,,,,,,,,,,,,,,,,,,,,,,,,,,,,,,,,,,,,,,,,,,,,,,,,,,,,,,,,,,,,,,,1128.500723,1128.500723,space,17.6865959,None,None,,,,,,,,,,,,,,,,10,8,2,2024-10-20_17h02.44.274,uWM_experiment,2022.2.3,60.00438032
,,,,,,,,,,,,,,,,,,,,1,0,1,0,,,,,1,0,1,0,,,,,,,,,,,,,,,,,,,,,,,,,,,,,,,,,,,,,,,,,,,,,,,,,,,,,,,,,,,,,,,,,,,,,,,,,,,,,,,,,,,,,,,,,,,,,,,,,,,,,,,,,,,,,,,,,,,,,,,,,,,,,,,,,10,8,2,2024-10-20_17h02.44.274,uWM_experiment,2022.2.3,60.00438032
,,,,,,,,,,,,,,,,,,,,1,0,1,0,,,,,2,0,2,0,,,,,,,,,,,,,,,,,,,,,,,,,,,,,,,,,,,,,,,,,,,,,,,,,,,,,,,,,,,,,,,,,,,,,,,,,,,,,,,,,,,,,,,,,,,,,,,,,,,,,,,,,,,,,,,,,,,,,,,,,,,,,,,,,10,8,2,2024-10-20_17h02.44.274,uWM_experiment,2022.2.3,60.00438032
,,,,,,,,,,,,,,,,,,,,2,0,2,0,0,0,0,0,,,,,,,,,,,,,,,,,,,,,,,,,,,,,,,,,,,,,,,,,,,,,,,,,,,,,,,,,,,,,,,,,,,,,,0.023413657,,,,,,,,,,,,,,,,,,,,1146.218124,1146.91815,1147.218159,1147.918196,1148.218208,1148.918233,1148.918233,1149.234923,right,0,40,-30,10,1,1154.951806,1154.951806,1154.951806,None,None,1,1,0.1234066,,,,,,,None,,,,,,,,,,,,,,,10,8,2,2024-10-20_17h02.44.274,uWM_experiment,2022.2.3,60.00438032
,,,,,,,,,,,,,,,,,,,,2,0,2,0,1,0,1,0,,,,,,,,,,,,,,,,,,,,,,,,,,,,,,,,,,,,,,,,,,,,,,,,,,,,,,,,,,,,,,,,,,,,,,0.033413657,,,,,,,,,,,,,,,,,,,,,,,,,,,,left,1,130,-30,100,1,1160.868722,1160.868722,1160.868722,None,None,1,1,0.3905363,,,,,,,,,,,,,,,,,,,,,,10,8,2,2024-10-20_17h02.44.274,uWM_experiment,2022.2.3,60.00438032
,,,,,,,,,,,,,,,,,,,,2,0,2,0,2,0,2,0,,,,,,,,,,,,,,,,,,,,,,,,,,,,,,,,,,,,,,,,,,,,,,,,,,,,,,,,,,,,,,,,,,,,,,0,,,,,,,,,,,,,,,,,,,,,,,,,,,,left,0,40,30,70,0,1168.535708,1168.535708,1168.535708,None,None,1,1,0.4595668,,,,,,,,,,,,,,,,,,,,,,10,8,2,2024-10-20_17h02.44.274,uWM_experiment,2022.2.3,60.00438032
,,,,,,,,,,,,,,,,,,,,2,0,2,0,3,0,3,0,,,,,,,,,,,,,,,,,,,,,,,,,,,,,,,,,,,,,,,,,,,,,,,,,,,,,,,,,,,,,,,,,,,,,,0.1,,,,,,,,,,,,,,,,,,,,,,,,,,,,right,1,70,30,100,2,1179.402846,1179.402846,1179.402846,None,None,4,0,1.4722185,,,,,,,,,,,,,,,,,,,,,,10,8,2,2024-10-20_17h02.44.274,uWM_experiment,2022.2.3,60.00438032
,,,,,,,,,,,,,,,,,,,,2,0,2,0,4,0,4,0,,,,,,,,,,,,,,,,,,,,,,,,,,,,,,,,,,,,,,,,,,,,,,,,,,,,,,,,,,,,,,,,,,,,,,0.043413657,,,,,,,,,,,,,,,,,,,,,,,,,,,,left,0,130,30,160,1,1189.386584,1189.386584,1189.386584,None,None,2,0,0.5364307,,,,,,,,,,,,,,,,,,,,,,10,8,2,2024-10-20_17h02.44.274,uWM_experiment,2022.2.3,60.00438032
,,,,,,,,,,,,,,,,,,,,2,0,2,0,5,0,5,0,,,,,,,,,,,,,,,,,,,,,,,,,,,,,,,,,,,,,,,,,,,,,,,,,,,,,,,,,,,,,,,,,,,,,,0.033413657,,,,,,,,,,,,,,,,,,,,,,,,,,,,left,1,160,-30,130,1,1195.753487,1195.753487,1195.753487,None,None,1,1,1.1695118,,,,,,,,,,,,,,,,,,,,,,10,8,2,2024-10-20_17h02.44.274,uWM_experiment,2022.2.3,60.00438032
,,,,,,,,,,,,,,,,,,,,2,0,2,0,6,0,6,0,,,,,,,,,,,,,,,,,,,,,,,,,,,,,,,,,,,,,,,,,,,,,,,,,,,,,,,,,,,,,,,,,,,,,,0.043413657,,,,,,,,,,,,,,,,,,,,,,,,,,,,right,1,40,30,70,1,1202.670436,1202.670436,1202.670436,None,None,1,1,0.3566756,,,,,,,,,,,,,,,,,,,,,,10,8,2,2024-10-20_17h02.44.274,uWM_experiment,2022.2.3,60.00438032
,,,,,,,,,,,,,,,,,,,,2,0,2,0,7,0,7,0,,,,,,,,,,,,,,,,,,,,,,,,,,,,,,,,,,,,,,,,,,,,,,,,,,,,,,,,,,,,,,,,,,,,,,0.053413657,,,,,,,,,,,,,,,,,,,,,,,,,,,,right,1,10,30,40,1,1208.920711,1208.920711,1208.920711,None,None,1,1,0.3783471,,,,,,,,,,,,,,,,,,,,,,10,8,2,2024-10-20_17h02.44.274,uWM_experiment,2022.2.3,60.00438032
,,,,,,,,,,,,,,,,,,,,2,0,2,0,8,0,8,0,,,,,,,,,,,,,,,,,,,,,,,,,,,,,,,,,,,,,,,,,,,,,,,,,,,,,,,,,,,,,,,,,,,,,,0.063413657,,,,,,,,,,,,,,,,,,,,,,,,,,,,right,1,70,30,100,1,1215.15428,1215.15428,1215.15428,None,None,1,1,3.7686493,,,,,,,,,,,,,,,,,,,,,,10,8,2,2024-10-20_17h02.44.274,uWM_experiment,2022.2.3,60.00438032
,,,,,,,,,,,,,,,,,,,,2,0,2,0,9,0,9,0,,,,,,,,,,,,,,,,,,,,,,,,,,,,,,,,,,,,,,,,,,,,,,,,,,,,,,,,,,,,,,,,,,,,,,0,,,,,,,,,,,,,,,,,,,,,,,,,,,,right,0,130,-30,100,0,1225.02134,1225.02134,1225.02134,None,None,1,1,0.2456186,,,,,,,,,,,,,,,,,,,,,,10,8,2,2024-10-20_17h02.44.274,uWM_experiment,2022.2.3,60.00438032
,,,,,,,,,,,,,,,,,,,,2,0,2,0,10,0,10,0,,,,,,,,,,,,,,,,,,,,,,,,,,,,,,,,,,,,,,,,,,,,,,,,,,,,,,,,,,,,,,,,,,,,,,0.073413657,,,,,,,,,,,,,,,,,,,,,,,,,,,,right,1,10,30,40,1,1231.304947,1231.304947,1231.304947,None,None,2,0,0.2661206,,,,,,,,,,,,,,,,,,,,,,10,8,2,2024-10-20_17h02.44.274,uWM_experiment,2022.2.3,60.00438032
,,,,,,,,,,,,,,,,,,,,2,0,2,0,11,0,11,0,,,,,,,,,,,,,,,,,,,,,,,,,,,,,,,,,,,,,,,,,,,,,,,,,,,,,,,,,,,,,,,,,,,,,,0.063413657,,,,,,,,,,,,,,,,,,,,,,,,,,,,left,0,40,30,70,1,1239.288625,1239.288625,1239.288625,None,None,1,1,0.6263761,,,,,,,,,,,,,,,,,,,,,,10,8,2,2024-10-20_17h02.44.274,uWM_experiment,2022.2.3,60.00438032
,,,,,,,,,,,,,,,,,,,,2,0,2,0,12,0,12,0,,,,,,,,,,,,,,,,,,,,,,,,,,,,,,,,,,,,,,,,,,,,,,,,,,,,,,,,,,,,,,,,,,,,,,0,,,,,,,,,,,,,,,,,,,,,,,,,,,,left,0,40,30,70,0,1245.85555,1245.85555,1245.85555,None,None,1,1,0.3073571,,,,,,,,,,,,,,,,,,,,,,10,8,2,2024-10-20_17h02.44.274,uWM_experiment,2022.2.3,60.00438032
,,,,,,,,,,,,,,,,,,,,2,0,2,0,13,0,13,0,,,,,,,,,,,,,,,,,,,,,,,,,,,,,,,,,,,,,,,,,,,,,,,,,,,,,,,,,,,,,,,,,,,,,,0.073413657,,,,,,,,,,,,,,,,,,,,,,,,,,,,left,0,70,30,100,1,1252.722476,1252.722476,1252.722476,None,None,1,1,0.1843707,,,,,,,,,,,,,,,,,,,,,,10,8,2,2024-10-20_17h02.44.274,uWM_experiment,2022.2.3,60.00438032
,,,,,,,,,,,,,,,,,,,,2,0,2,0,14,0,14,0,,,,,,,,,,,,,,,,,,,,,,,,,,,,,,,,,,,,,,,,,,,,,,,,,,,,,,,,,,,,,,,,,,,,,,0.083413657,,,,,,,,,,,,,,,,,,,,,,,,,,,,left,1,40,-30,10,1,1258.856056,1258.856056,1258.856056,None,None,3,0,0.586799,,,,,,,,,,,,,,,,,,,,,,10,8,2,2024-10-20_17h02.44.274,uWM_experiment,2022.2.3,60.00438032
,,,,,,,,,,,,,,,,,,,,2,0,2,0,15,0,15,0,,,,,,,,,,,,,,,,,,,,,,,,,,,,,,,,,,,,,,,,,,,,,,,,,,,,,,,,,,,,,,,,,,,,,,0,,,,,,,,,,,,,,,,,,,,,,,,,,,,right,0,130,-30,100,0,1265.306314,1265.306314,1265.306314,None,None,1,1,1.5844554,,,,,,,,,,,,,,,,,,,,,,10,8,2,2024-10-20_17h02.44.274,uWM_experiment,2022.2.3,60.00438032
,,,,,,,,,,,,,,,,,,,,2,0,2,0,16,0,16,0,,,,,,,,,,,,,,,,,,,,,,,,,,,,,,,,,,,,,,,,,,,,,,,,,,,,,,,,,,,,,,,,,,,,,,0,,,,,,,,,,,,,,,,,,,,,,,,,,,,left,0,40,30,70,0,1273.523312,1273.523312,1273.523312,None,None,2,0,2.8235761,,,,,,,,,,,,,,,,,,,,,,10,8,2,2024-10-20_17h02.44.274,uWM_experiment,2022.2.3,60.00438032
,,,,,,,,,,,,,,,,,,,,2,0,2,0,17,0,17,0,,,,,,,,,,,,,,,,,,,,,,,,,,,,,,,,,,,,,,,,,,,,,,,,,,,,,,,,,,,,,,,,,,,,,,0.073413657,,,,,,,,,,,,,,,,,,,,,,,,,,,,right,1,40,30,70,1,1282.257022,1282.257022,1282.257022,None,None,2,0,0.5138144,,,,,,,,,,,,,,,,,,,,,,10,8,2,2024-10-20_17h02.44.274,uWM_experiment,2022.2.3,60.00438032
,,,,,,,,,,,,,,,,,,,,2,0,2,0,18,0,18,0,,,,,,,,,,,,,,,,,,,,,,,,,,,,,,,,,,,,,,,,,,,,,,,,,,,,,,,,,,,,,,,,,,,,,,0.063413657,,,,,,,,,,,,,,,,,,,,,,,,,,,,left,1,130,-30,100,1,1288.540617,1288.540617,1288.540617,None,None,2,0,0.3582106,,,,,,,,,,,,,,,,,,,,,,10,8,2,2024-10-20_17h02.44.274,uWM_experiment,2022.2.3,60.00438032
,,,,,,,,,,,,,,,,,,,,2,0,2,0,19,0,19,0,,,,,,,,,,,,,,,,,,,,,,,,,,,,,,,,,,,,,,,,,,,,,,,,,,,,,,,,,,,,,,,,,,,,,,0,,,,,,,,,,,,,,,,,,,,,,,,,,,,left,0,70,30,100,0,1294.490882,1294.490882,1294.490882,None,None,1,1,0.2799669,,,,,,,,,,,,,,,,,,,,,,10,8,2,2024-10-20_17h02.44.274,uWM_experiment,2022.2.3,60.00438032
,,,,,,,,,,,,,,,,,,,,2,0,2,0,20,0,20,0,,,,,,,,,,,,,,,,,,,,,,,,,,,,,,,,,,,,,,,,,,,,,,,,,,,,,,,,,,,,,,,,,,,,,,0.053413657,,,,,,,,,,,,,,,,,,,,,,,,,,,,left,1,40,-30,10,1,1300.441139,1300.441139,1300.441139,None,None,1,1,0.4097282,,,,,,,,,,,,,,,,,,,,,,10,8,2,2024-10-20_17h02.44.274,uWM_experiment,2022.2.3,60.00438032
,,,,,,,,,,,,,,,,,,,,2,0,2,0,21,0,21,0,,,,,,,,,,,,,,,,,,,,,,,,,,,,,,,,,,,,,,,,,,,,,,,,,,,,,,,,,,,,,,,,,,,,,,0.1,,,,,,,,,,,,,,,,,,,,,,,,,,,,left,1,70,-30,40,2,1306.891388,1306.891388,1306.891388,None,None,4,0,0.6872701,,,,,,,,,,,,,,,,,,,,,,10,8,2,2024-10-20_17h02.44.274,uWM_experiment,2022.2.3,60.00438032
,,,,,,,,,,,,,,,,,,,,2,0,2,0,22,0,22,0,,,,,,,,,,,,,,,,,,,,,,,,,,,,,,,,,,,,,,,,,,,,,,,,,,,,,,,,,,,,,,,,,,,,,,0,,,,,,,,,,,,,,,,,,,,,,,,,,,,right,0,160,-30,130,0,1315.008377,1315.008377,1315.008377,None,None,3,0,1.1783796,,,,,,,,,,,,,,,,,,,,,,10,8,2,2024-10-20_17h02.44.274,uWM_experiment,2022.2.3,60.00438032
,,,,,,,,,,,,,,,,,,,,2,0,2,0,23,0,23,0,,,,,,,,,,,,,,,,,,,,,,,,,,,,,,,,,,,,,,,,,,,,,,,,,,,,,,,,,,,,,,,,,,,,,,0.063413657,,,,,,,,,,,,,,,,,,,,,,,,,,,,left,1,40,-30,10,1,1321.792029,1321.792029,1321.792029,None,None,2,0,0.8266377,,,,,,,,,,,,,,,,,,,,,,10,8,2,2024-10-20_17h02.44.274,uWM_experiment,2022.2.3,60.00438032
,,,,,,,,,,,,,,,,,,,,2,0,2,0,,,,,0,0,0,0,,,,,,,,,,,,,,,,,,,,,,,,,,,,,,,,,,,,,,,,,,,,,,,,,,,,,,,,,,,,,,,,,,,,,,,,,,,,,,,,,,,,,,,,,,,,,,,,,,,,,,,,,,,,1322.641998,1322.641998,space,22.7366723,space,None,,1345.409599,1345.409599,3.1450688,,,,,,,,,,,,10,8,2,2024-10-20_17h02.44.274,uWM_experiment,2022.2.3,60.00438032
,,,,,,,,,,,,,,,,,,,,2,0,2,0,,,,,1,0,1,0,,,,,,,,,,,,,,,,,,,,,,,,,,,,,,,,,,,,,,,,,,,,,,,,,,,,,,,,,,,,,,,,,,,,,,,,,,,,,,,,,,,,,,,,,,,,,,,,,,,,,,,,,,,,,,,,,,,,,,,,,,,,,,,,,10,8,2,2024-10-20_17h02.44.274,uWM_experiment,2022.2.3,60.00438032
,,,,,,,,,,,,,,,,,,,,2,0,2,0,,,,,2,0,2,0,,,,,,,,,,,,,,,,,,,,,,,,,,,,,,,,,,,,,,,,,,,,,,,,,,,,,,,,,,,,,,,,,,,,,,,,,,,,,,,,,,,,,,,,,,,,,,,,,,,,,,,,,,,,,,,,,,,,,,,,,,,,,,,,,10,8,2,2024-10-20_17h02.44.274,uWM_experiment,2022.2.3,60.00438032
,,,,,,,,,,,,,,,,,,,,3,0,3,0,0,0,0,0,,,,,,,,,,,,,,,,,,,,,,,,,,,,,,,,,,,,,,,,,,,,,,,,,,,,,,,,,,,,,,,,,,,,,,0.053413657,,,,,,,,,,,,,,,,,,,,1348.576395,1349.276434,1349.576435,1350.276454,1350.576473,1351.276522,1351.276522,1351.593221,right,1,100,30,130,1,1357.34349,1357.34349,1357.34349,None,None,1,1,1.7151358,,,,,,,None,,,,,,,,,,,,,,,10,8,2,2024-10-20_17h02.44.274,uWM_experiment,2022.2.3,60.00438032
,,,,,,,,,,,,,,,,,,,,3,0,3,0,1,0,1,0,,,,,,,,,,,,,,,,,,,,,,,,,,,,,,,,,,,,,,,,,,,,,,,,,,,,,,,,,,,,,,,,,,,,,,0.063413657,,,,,,,,,,,,,,,,,,,,,,,,,,,,left,1,10,-30,-20,1,1364.610391,1364.610391,1364.610391,None,None,2,0,1.0721098,,,,,,,,,,,,,,,,,,,,,,10,8,2,2024-10-20_17h02.44.274,uWM_experiment,2022.2.3,60.00438032
,,,,,,,,,,,,,,,,,,,,3,0,3,0,2,0,2,0,,,,,,,,,,,,,,,,,,,,,,,,,,,,,,,,,,,,,,,,,,,,,,,,,,,,,,,,,,,,,,,,,,,,,,0.053413657,,,,,,,,,,,,,,,,,,,,,,,,,,,,left,0,100,30,130,1,1371.210639,1371.210639,1371.210639,None,None,1,1,2.9678042,,,,,,,,,,,,,,,,,,,,,,10,8,2,2024-10-20_17h02.44.274,uWM_experiment,2022.2.3,60.00438032
,,,,,,,,,,,,,,,,,,,,3,0,3,0,3,0,3,0,,,,,,,,,,,,,,,,,,,,,,,,,,,,,,,,,,,,,,,,,,,,,,,,,,,,,,,,,,,,,,,,,,,,,,0.063413657,,,,,,,,,,,,,,,,,,,,,,,,,,,,left,1,10,-30,-20,1,1379.84434,1379.84434,1379.84434,None,None,1,1,1.0942247,,,,,,,,,,,,,,,,,,,,,,10,8,2,2024-10-20_17h02.44.274,uWM_experiment,2022.2.3,60.00438032
,,,,,,,,,,,,,,,,,,,,3,0,3,0,4,0,4,0,,,,,,,,,,,,,,,,,,,,,,,,,,,,,,,,,,,,,,,,,,,,,,,,,,,,,,,,,,,,,,,,,,,,,,0,,,,,,,,,,,,,,,,,,,,,,,,,,,,right,1,10,30,40,0,1386.494602,1386.494602,1386.494602,None,None,1,1,0.6198328,,,,,,,,,,,,,,,,,,,,,,10,8,2,2024-10-20_17h02.44.274,uWM_experiment,2022.2.3,60.00438032
,,,,,,,,,,,,,,,,,,,,3,0,3,0,5,0,5,0,,,,,,,,,,,,,,,,,,,,,,,,,,,,,,,,,,,,,,,,,,,,,,,,,,,,,,,,,,,,,,,,,,,,,,0.073413657,,,,,,,,,,,,,,,,,,,,,,,,,,,,right,1,40,30,70,1,1392.944925,1392.944925,1392.944925,None,None,2,0,0.7136638,,,,,,,,,,,,,,,,,,,,,,10,8,2,2024-10-20_17h02.44.274,uWM_experiment,2022.2.3,60.00438032
,,,,,,,,,,,,,,,,,,,,3,0,3,0,6,0,6,0,,,,,,,,,,,,,,,,,,,,,,,,,,,,,,,,,,,,,,,,,,,,,,,,,,,,,,,,,,,,,,,,,,,,,,0.063413657,,,,,,,,,,,,,,,,,,,,,,,,,,,,left,0,160,30,190,1,1399.945172,1399.945172,1399.945172,None,None,1,1,0.289181,,,,,,,,,,,,,,,,,,,,,,10,8,2,2024-10-20_17h02.44.274,uWM_experiment,2022.2.3,60.00438032
,,,,,,,,,,,,,,,,,,,,3,0,3,0,7,0,7,0,,,,,,,,,,,,,,,,,,,,,,,,,,,,,,,,,,,,,,,,,,,,,,,,,,,,,,,,,,,,,,,,,,,,,,0,,,,,,,,,,,,,,,,,,,,,,,,,,,,left,1,40,-30,10,0,1407.112134,1407.112134,1407.112134,None,None,2,0,1.8103234,,,,,,,,,,,,,,,,,,,,,,10,8,2,2024-10-20_17h02.44.274,uWM_experiment,2022.2.3,60.00438032
,,,,,,,,,,,,,,,,,,,,3,0,3,0,8,0,8,0,,,,,,,,,,,,,,,,,,,,,,,,,,,,,,,,,,,,,,,,,,,,,,,,,,,,,,,,,,,,,,,,,,,,,,0.073413657,,,,,,,,,,,,,,,,,,,,,,,,,,,,left,1,40,-30,10,1,1414.69578,1414.69578,1414.69578,None,None,2,0,0.8666204,,,,,,,,,,,,,,,,,,,,,,10,8,2,2024-10-20_17h02.44.274,uWM_experiment,2022.2.3,60.00438032
,,,,,,,,,,,,,,,,,,,,3,0,3,0,9,0,9,0,,,,,,,,,,,,,,,,,,,,,,,,,,,,,,,,,,,,,,,,,,,,,,,,,,,,,,,,,,,,,,,,,,,,,,0.063413657,,,,,,,,,,,,,,,,,,,,,,,,,,,,left,0,70,30,100,1,1421.36269,1421.36269,1421.36269,None,None,1,1,0.239641,,,,,,,,,,,,,,,,,,,,,,10,8,2,2024-10-20_17h02.44.274,uWM_experiment,2022.2.3,60.00438032
,,,,,,,,,,,,,,,,,,,,3,0,3,0,10,0,10,0,,,,,,,,,,,,,,,,,,,,,,,,,,,,,,,,,,,,,,,,,,,,,,,,,,,,,,,,,,,,,,,,,,,,,,0.073413657,,,,,,,,,,,,,,,,,,,,,,,,,,,,right,1,160,30,190,1,1427.212953,1427.212953,1427.212953,None,None,2,0,0.6213574,,,,,,,,,,,,,,,,,,,,,,10,8,2,2024-10-20_17h02.44.274,uWM_experiment,2022.2.3,60.00438032
,,,,,,,,,,,,,,,,,,,,3,0,3,0,11,0,11,0,,,,,,,,,,,,,,,,,,,,,,,,,,,,,,,,,,,,,,,,,,,,,,,,,,,,,,,,,,,,,,,,,,,,,,0.063413657,,,,,,,,,,,,,,,,,,,,,,,,,,,,right,1,130,30,160,1,1433.613206,1433.613206,1433.613206,None,None,2,0,0.2771618,,,,,,,,,,,,,,,,,,,,,,10,8,2,2024-10-20_17h02.44.274,uWM_experiment,2022.2.3,60.00438032
,,,,,,,,,,,,,,,,,,,,3,0,3,0,12,0,12,0,,,,,,,,,,,,,,,,,,,,,,,,,,,,,,,,,,,,,,,,,,,,,,,,,,,,,,,,,,,,,,,,,,,,,,0,,,,,,,,,,,,,,,,,,,,,,,,,,,,right,0,160,-30,130,0,1444.496963,1444.496963,1444.496963,None,None,1,1,0.9294001,,,,,,,,,,,,,,,,,,,,,,10,8,2,2024-10-20_17h02.44.274,uWM_experiment,2022.2.3,60.00438032
,,,,,,,,,,,,,,,,,,,,3,0,3,0,13,0,13,0,,,,,,,,,,,,,,,,,,,,,,,,,,,,,,,,,,,,,,,,,,,,,,,,,,,,,,,,,,,,,,,,,,,,,,0.053413657,,,,,,,,,,,,,,,,,,,,,,,,,,,,left,1,100,-30,70,1,1452.380651,1452.380651,1452.380651,None,None,1,1,0.613557,,,,,,,,,,,,,,,,,,,,,,10,8,2,2024-10-20_17h02.44.274,uWM_experiment,2022.2.3,60.00438032
,,,,,,,,,,,,,,,,,,,,3,0,3,0,14,0,14,0,,,,,,,,,,,,,,,,,,,,,,,,,,,,,,,,,,,,,,,,,,,,,,,,,,,,,,,,,,,,,,,,,,,,,,0.063413657,,,,,,,,,,,,,,,,,,,,,,,,,,,,left,0,10,30,40,1,1458.947576,1458.947576,1458.947576,None,None,1,1,0.3987349,,,,,,,,,,,,,,,,,,,,,,10,8,2,2024-10-20_17h02.44.274,uWM_experiment,2022.2.3,60.00438032
,,,,,,,,,,,,,,,,,,,,3,0,3,0,15,0,15,0,,,,,,,,,,,,,,,,,,,,,,,,,,,,,,,,,,,,,,,,,,,,,,,,,,,,,,,,,,,,,,,,,,,,,,0.1,,,,,,,,,,,,,,,,,,,,,,,,,,,,right,1,160,30,190,2,1465.464528,1465.464528,1465.464528,None,None,4,0,0.8257637,,,,,,,,,,,,,,,,,,,,,,10,8,2,2024-10-20_17h02.44.274,uWM_experiment,2022.2.3,60.00438032
,,,,,,,,,,,,,,,,,,,,3,0,3,0,16,0,16,0,,,,,,,,,,,,,,,,,,,,,,,,,,,,,,,,,,,,,,,,,,,,,,,,,,,,,,,,,,,,,,,,,,,,,,0.073413657,,,,,,,,,,,,,,,,,,,,,,,,,,,,right,0,70,-30,40,1,1472.414798,1472.414798,1472.414798,None,None,2,0,1.6755286,,,,,,,,,,,,,,,,,,,,,,10,8,2,2024-10-20_17h02.44.274,uWM_experiment,2022.2.3,60.00438032
,,,,,,,,,,,,,,,,,,,,3,0,3,0,17,0,17,0,,,,,,,,,,,,,,,,,,,,,,,,,,,,,,,,,,,,,,,,,,,,,,,,,,,,,,,,,,,,,,,,,,,,,,0.063413657,,,,,,,,,,,,,,,,,,,,,,,,,,,,left,1,130,-30,100,1,1479.998434,1479.998434,1479.998434,None,None,1,1,1.171656,,,,,,,,,,,,,,,,,,,,,,10,8,2,2024-10-20_17h02.44.274,uWM_experiment,2022.2.3,60.00438032
,,,,,,,,,,,,,,,,,,,,3,0,3,0,18,0,18,0,,,,,,,,,,,,,,,,,,,,,,,,,,,,,,,,,,,,,,,,,,,,,,,,,,,,,,,,,,,,,,,,,,,,,,0.073413657,,,,,,,,,,,,,,,,,,,,,,,,,,,,left,0,100,30,130,1,1487.232064,1487.232064,1487.232064,None,None,2,0,0.3461409,,,,,,,,,,,,,,,,,,,,,,10,8,2,2024-10-20_17h02.44.274,uWM_experiment,2022.2.3,60.00438032
,,,,,,,,,,,,,,,,,,,,3,0,3,0,19,0,19,0,,,,,,,,,,,,,,,,,,,,,,,,,,,,,,,,,,,,,,,,,,,,,,,,,,,,,,,,,,,,,,,,,,,,,,0.1,,,,,,,,,,,,,,,,,,,,,,,,,,,,right,1,160,30,190,2,1493.798992,1493.798992,1493.798992,None,None,4,0,0.4592575,,,,,,,,,,,,,,,,,,,,,,10,8,2,2024-10-20_17h02.44.274,uWM_experiment,2022.2.3,60.00438032
,,,,,,,,,,,,,,,,,,,,3,0,3,0,20,0,20,0,,,,,,,,,,,,,,,,,,,,,,,,,,,,,,,,,,,,,,,,,,,,,,,,,,,,,,,,,,,,,,,,,,,,,,0,,,,,,,,,,,,,,,,,,,,,,,,,,,,left,0,100,30,130,0,1500.099255,1500.099255,1500.099255,None,None,1,1,0.33483,,,,,,,,,,,,,,,,,,,,,,10,8,2,2024-10-20_17h02.44.274,uWM_experiment,2022.2.3,60.00438032
,,,,,,,,,,,,,,,,,,,,3,0,3,0,21,0,21,0,,,,,,,,,,,,,,,,,,,,,,,,,,,,,,,,,,,,,,,,,,,,,,,,,,,,,,,,,,,,,,,,,,,,,,0.063413657,,,,,,,,,,,,,,,,,,,,,,,,,,,,left,0,100,30,130,1,1505.932828,1505.932828,1505.932828,None,None,1,1,0.4532244,,,,,,,,,,,,,,,,,,,,,,10,8,2,2024-10-20_17h02.44.274,uWM_experiment,2022.2.3,60.00438032
,,,,,,,,,,,,,,,,,,,,3,0,3,0,22,0,22,0,,,,,,,,,,,,,,,,,,,,,,,,,,,,,,,,,,,,,,,,,,,,,,,,,,,,,,,,,,,,,,,,,,,,,,0.073413657,,,,,,,,,,,,,,,,,,,,,,,,,,,,right,1,160,30,190,1,1511.783082,1511.783082,1511.783082,None,None,1,1,0.578983,,,,,,,,,,,,,,,,,,,,,,10,8,2,2024-10-20_17h02.44.274,uWM_experiment,2022.2.3,60.00438032
,,,,,,,,,,,,,,,,,,,,3,0,3,0,23,0,23,0,,,,,,,,,,,,,,,,,,,,,,,,,,,,,,,,,,,,,,,,,,,,,,,,,,,,,,,,,,,,,,,,,,,,,,0.083413657,,,,,,,,,,,,,,,,,,,,,,,,,,,,right,1,130,30,160,1,1518.633347,1518.633347,1518.633347,None,None,2,0,0.3526304,,,,,,,,,,,,,,,,,,,,,,10,8,2,2024-10-20_17h02.44.274,uWM_experiment,2022.2.3,60.00438032
,,,,,,,,,,,,,,,,,,,,3,0,3,0,,,,,0,0,0,0,,,,,,,,,,,,,,,,,,,,,,,,,,,,,,,,,,,,,,,,,,,,,,,,,,,,,,,,,,,,,,,,,,,,,,,,,,,,,,,,,,,,,,,,,,,,,,,,,,,,,,,,,,,,1519.016696,1519.016696,space,30.3133128,None,None,,,,,,,,,,,,,,,,10,8,2,2024-10-20_17h02.44.274,uWM_experiment,2022.2.3,60.00438032
,,,,,,,,,,,,,,,,,,,,3,0,3,0,,,,,1,0,1,0,,,,,,,,,,,,,,,,,,,,,,,,,,,,,,,,,,,,,,,,,,,,,,,,,,,,,,,,,,,,,,,,,,,,,,,,,,,,,,,,,,,,,,,,,,,,,,,,,,,,,,,,,,,,,,,,,,,,,,,,,,,,,,,,,10,8,2,2024-10-20_17h02.44.274,uWM_experiment,2022.2.3,60.00438032
,,,,,,,,,,,,,,,,,,,,3,0,3,0,,,,,2,0,2,0,,,,,,,,,,,,,,,,,,,,,,,,,,,,,,,,,,,,,,,,,,,,,,,,,,,,,,,,,,,,,,,,,,,,,,,,,,,,,,,,,,,,,,,,,,,,,,,,,,,,,,,,,,,,,,,,,,,,,,,,,,,,,,,,,10,8,2,2024-10-20_17h02.44.274,uWM_experiment,2022.2.3,60.00438032
,,,,,,,,,,,,,,,,,,,,4,0,4,0,0,0,0,0,,,,,,,,,,,,,,,,,,,,,,,,,,,,,,,,,,,,,,,,,,,,,,,,,,,,,,,,,,,,,,,,,,,,,,0.073413657,,,,,,,,,,,,,,,,,,,,1549.367953,1550.067942,1550.351301,1551.051328,1551.351346,1552.051375,1552.051375,1552.368054,right,1,130,30,160,1,1557.051576,1557.051576,1557.051576,None,None,2,0,0.5183258,,,,,,,None,,,,,,,,,,,,,,,10,8,2,2024-10-20_17h02.44.274,uWM_experiment,2022.2.3,60.00438032
,,,,,,,,,,,,,,,,,,,,4,0,4,0,1,0,1,0,,,,,,,,,,,,,,,,,,,,,,,,,,,,,,,,,,,,,,,,,,,,,,,,,,,,,,,,,,,,,,,,,,,,,,0,,,,,,,,,,,,,,,,,,,,,,,,,,,,right,0,160,-30,130,0,1563.951906,1563.951906,1563.951906,None,None,1,1,0.562002,,,,,,,,,,,,,,,,,,,,,,10,8,2,2024-10-20_17h02.44.274,uWM_experiment,2022.2.3,60.00438032
,,,,,,,,,,,,,,,,,,,,4,0,4,0,2,0,2,0,,,,,,,,,,,,,,,,,,,,,,,,,,,,,,,,,,,,,,,,,,,,,,,,,,,,,,,,,,,,,,,,,,,,,,0.063413657,,,,,,,,,,,,,,,,,,,,,,,,,,,,right,1,70,30,100,1,1570.368772,1570.368772,1570.368772,None,None,2,0,0.9612453,,,,,,,,,,,,,,,,,,,,,,10,8,2,2024-10-20_17h02.44.274,uWM_experiment,2022.2.3,60.00438032
,,,,,,,,,,,,,,,,,,,,4,0,4,0,3,0,3,0,,,,,,,,,,,,,,,,,,,,,,,,,,,,,,,,,,,,,,,,,,,,,,,,,,,,,,,,,,,,,,,,,,,,,,0.1,,,,,,,,,,,,,,,,,,,,,,,,,,,,left,1,160,-30,130,2,1577.952412,1577.952412,1577.952412,None,None,4,0,0.4494653,,,,,,,,,,,,,,,,,,,,,,10,8,2,2024-10-20_17h02.44.274,uWM_experiment,2022.2.3,60.00438032
,,,,,,,,,,,,,,,,,,,,4,0,4,0,4,0,4,0,,,,,,,,,,,,,,,,,,,,,,,,,,,,,,,,,,,,,,,,,,,,,,,,,,,,,,,,,,,,,,,,,,,,,,0,,,,,,,,,,,,,,,,,,,,,,,,,,,,right,0,160,-30,130,0,1587.286167,1587.286167,1587.286167,None,None,2,0,0.1875571,,,,,,,,,,,,,,,,,,,,,,10,8,2,2024-10-20_17h02.44.274,uWM_experiment,2022.2.3,60.00438032
,,,,,,,,,,,,,,,,,,,,4,0,4,0,5,0,5,0,,,,,,,,,,,,,,,,,,,,,,,,,,,,,,,,,,,,,,,,,,,,,,,,,,,,,,,,,,,,,,,,,,,,,,0.1,,,,,,,,,,,,,,,,,,,,,,,,,,,,left,1,160,-30,130,2,1594.119761,1594.119761,1594.119761,None,None,4,0,0.3461625,,,,,,,,,,,,,,,,,,,,,,10,8,2,2024-10-20_17h02.44.274,uWM_experiment,2022.2.3,60.00438032
,,,,,,,,,,,,,,,,,,,,4,0,4,0,6,0,6,0,,,,,,,,,,,,,,,,,,,,,,,,,,,,,,,,,,,,,,,,,,,,,,,,,,,,,,,,,,,,,,,,,,,,,,0.053413657,,,,,,,,,,,,,,,,,,,,,,,,,,,,left,1,130,-30,100,1,1600.436701,1600.436701,1600.436701,None,None,2,0,0.6772157,,,,,,,,,,,,,,,,,,,,,,10,8,2,2024-10-20_17h02.44.274,uWM_experiment,2022.2.3,60.00438032
,,,,,,,,,,,,,,,,,,,,4,0,4,0,7,0,7,0,,,,,,,,,,,,,,,,,,,,,,,,,,,,,,,,,,,,,,,,,,,,,,,,,,,,,,,,,,,,,,,,,,,,,,0.043413657,,,,,,,,,,,,,,,,,,,,,,,,,,,,right,1,40,30,70,1,1607.436996,1607.436996,1607.436996,None,None,2,0,0.3728804,,,,,,,,,,,,,,,,,,,,,,10,8,2,2024-10-20_17h02.44.274,uWM_experiment,2022.2.3,60.00438032
,,,,,,,,,,,,,,,,,,,,4,0,4,0,8,0,8,0,,,,,,,,,,,,,,,,,,,,,,,,,,,,,,,,,,,,,,,,,,,,,,,,,,,,,,,,,,,,,,,,,,,,,,0.033413657,,,,,,,,,,,,,,,,,,,,,,,,,,,,left,1,70,-30,40,1,1613.720575,1613.720575,1613.720575,None,None,1,1,0.2811334,,,,,,,,,,,,,,,,,,,,,,10,8,2,2024-10-20_17h02.44.274,uWM_experiment,2022.2.3,60.00438032
,,,,,,,,,,,,,,,,,,,,4,0,4,0,9,0,9,0,,,,,,,,,,,,,,,,,,,,,,,,,,,,,,,,,,,,,,,,,,,,,,,,,,,,,,,,,,,,,,,,,,,,,,0.043413657,,,,,,,,,,,,,,,,,,,,,,,,,,,,right,1,70,30,100,1,1619.854134,1619.854134,1619.854134,None,None,1,1,0.6675646,,,,,,,,,,,,,,,,,,,,,,10,8,2,2024-10-20_17h02.44.274,uWM_experiment,2022.2.3,60.00438032
,,,,,,,,,,,,,,,,,,,,4,0,4,0,10,0,10,0,,,,,,,,,,,,,,,,,,,,,,,,,,,,,,,,,,,,,,,,,,,,,,,,,,,,,,,,,,,,,,,,,,,,,,0.053413657,,,,,,,,,,,,,,,,,,,,,,,,,,,,right,1,40,30,70,1,1626.604436,1626.604436,1626.604436,None,None,2,0,0.1572071,,,,,,,,,,,,,,,,,,,,,,10,8,2,2024-10-20_17h02.44.274,uWM_experiment,2022.2.3,60.00438032
,,,,,,,,,,,,,,,,,,,,4,0,4,0,11,0,11,0,,,,,,,,,,,,,,,,,,,,,,,,,,,,,,,,,,,,,,,,,,,,,,,,,,,,,,,,,,,,,,,,,,,,,,0.043413657,,,,,,,,,,,,,,,,,,,,,,,,,,,,right,0,130,-30,100,1,1632.804671,1632.804671,1632.804671,None,None,1,1,0.8930304,,,,,,,,,,,,,,,,,,,,,,10,8,2,2024-10-20_17h02.44.274,uWM_experiment,2022.2.3,60.00438032
,,,,,,,,,,,,,,,,,,,,4,0,4,0,12,0,12,0,,,,,,,,,,,,,,,,,,,,,,,,,,,,,,,,,,,,,,,,,,,,,,,,,,,,,,,,,,,,,,,,,,,,,,0.053413657,,,,,,,,,,,,,,,,,,,,,,,,,,,,left,1,160,-30,130,1,1639.271606,1639.271606,1639.271606,None,None,1,1,0.5781183,,,,,,,,,,,,,,,,,,,,,,10,8,2,2024-10-20_17h02.44.274,uWM_experiment,2022.2.3,60.00438032
,,,,,,,,,,,,,,,,,,,,4,0,4,0,13,0,13,0,,,,,,,,,,,,,,,,,,,,,,,,,,,,,,,,,,,,,,,,,,,,,,,,,,,,,,,,,,,,,,,,,,,,,,0,,,,,,,,,,,,,,,,,,,,,,,,,,,,left,1,40,-30,10,0,1645.455195,1645.455195,1645.455195,None,None,1,1,0.4985691,,,,,,,,,,,,,,,,,,,,,,10,8,2,2024-10-20_17h02.44.274,uWM_experiment,2022.2.3,60.00438032
,,,,,,,,,,,,,,,,,,,,4,0,4,0,14,0,14,0,,,,,,,,,,,,,,,,,,,,,,,,,,,,,,,,,,,,,,,,,,,,,,,,,,,,,,,,,,,,,,,,,,,,,,0.063413657,,,,,,,,,,,,,,,,,,,,,,,,,,,,left,0,100,30,130,1,1652.155469,1652.155469,1652.155469,None,None,1,1,1.7421837,,,,,,,,,,,,,,,,,,,,,,10,8,2,2024-10-20_17h02.44.274,uWM_experiment,2022.2.3,60.00438032
,,,,,,,,,,,,,,,,,,,,4,0,4,0,15,0,15,0,,,,,,,,,,,,,,,,,,,,,,,,,,,,,,,,,,,,,,,,,,,,,,,,,,,,,,,,,,,,,,,,,,,,,,0,,,,,,,,,,,,,,,,,,,,,,,,,,,,left,1,70,-30,40,0,1662.472542,1662.472542,1662.472542,None,None,1,1,0.5611244,,,,,,,,,,,,,,,,,,,,,,10,8,2,2024-10-20_17h02.44.274,uWM_experiment,2022.2.3,60.00438032
,,,,,,,,,,,,,,,,,,,,4,0,4,0,16,0,16,0,,,,,,,,,,,,,,,,,,,,,,,,,,,,,,,,,,,,,,,,,,,,,,,,,,,,,,,,,,,,,,,,,,,,,,0.073413657,,,,,,,,,,,,,,,,,,,,,,,,,,,,left,1,10,-30,-20,1,1669.889516,1669.889516,1669.889516,None,None,2,0,0.6800714,,,,,,,,,,,,,,,,,,,,,,10,8,2,2024-10-20_17h02.44.274,uWM_experiment,2022.2.3,60.00438032
,,,,,,,,,,,,,,,,,,,,4,0,4,0,17,0,17,0,,,,,,,,,,,,,,,,,,,,,,,,,,,,,,,,,,,,,,,,,,,,,,,,,,,,,,,,,,,,,,,,,,,,,,0.1,,,,,,,,,,,,,,,,,,,,,,,,,,,,left,1,160,-30,130,2,1676.756491,1676.756491,1676.756491,None,None,4,0,0.3570388,,,,,,,,,,,,,,,,,,,,,,10,8,2,2024-10-20_17h02.44.274,uWM_experiment,2022.2.3,60.00438032
,,,,,,,,,,,,,,,,,,,,4,0,4,0,18,0,18,0,,,,,,,,,,,,,,,,,,,,,,,,,,,,,,,,,,,,,,,,,,,,,,,,,,,,,,,,,,,,,,,,,,,,,,0,,,,,,,,,,,,,,,,,,,,,,,,,,,,left,0,70,30,100,0,1683.773427,1683.773427,1683.773427,None,None,1,1,0.1560298,,,,,,,,,,,,,,,,,,,,,,10,8,2,2024-10-20_17h02.44.274,uWM_experiment,2022.2.3,60.00438032
,,,,,,,,,,,,,,,,,,,,4,0,4,0,19,0,19,0,,,,,,,,,,,,,,,,,,,,,,,,,,,,,,,,,,,,,,,,,,,,,,,,,,,,,,,,,,,,,,,,,,,,,,0.063413657,,,,,,,,,,,,,,,,,,,,,,,,,,,,left,0,100,30,130,1,1691.207059,1691.207059,1691.207059,None,None,1,1,1.3225146,,,,,,,,,,,,,,,,,,,,,,10,8,2,2024-10-20_17h02.44.274,uWM_experiment,2022.2.3,60.00438032
,,,,,,,,,,,,,,,,,,,,4,0,4,0,20,0,20,0,,,,,,,,,,,,,,,,,,,,,,,,,,,,,,,,,,,,,,,,,,,,,,,,,,,,,,,,,,,,,,,,,,,,,,0,,,,,,,,,,,,,,,,,,,,,,,,,,,,right,0,10,-30,-20,0,1698.524012,1698.524012,1698.524012,None,None,1,1,0.981596,,,,,,,,,,,,,,,,,,,,,,10,8,2,2024-10-20_17h02.44.274,uWM_experiment,2022.2.3,60.00438032
,,,,,,,,,,,,,,,,,,,,4,0,4,0,21,0,21,0,,,,,,,,,,,,,,,,,,,,,,,,,,,,,,,,,,,,,,,,,,,,,,,,,,,,,,,,,,,,,,,,,,,,,,0.073413657,,,,,,,,,,,,,,,,,,,,,,,,,,,,right,0,70,-30,40,1,1705.224314,1705.224314,1705.224314,None,None,1,1,0.8572158,,,,,,,,,,,,,,,,,,,,,,10,8,2,2024-10-20_17h02.44.274,uWM_experiment,2022.2.3,60.00438032
,,,,,,,,,,,,,,,,,,,,4,0,4,0,22,0,22,0,,,,,,,,,,,,,,,,,,,,,,,,,,,,,,,,,,,,,,,,,,,,,,,,,,,,,,,,,,,,,,,,,,,,,,0.083413657,,,,,,,,,,,,,,,,,,,,,,,,,,,,left,1,160,-30,130,1,1712.357949,1712.357949,1712.357949,None,None,1,1,0.403483,,,,,,,,,,,,,,,,,,,,,,10,8,2,2024-10-20_17h02.44.274,uWM_experiment,2022.2.3,60.00438032
,,,,,,,,,,,,,,,,,,,,4,0,4,0,23,0,23,0,,,,,,,,,,,,,,,,,,,,,,,,,,,,,,,,,,,,,,,,,,,,,,,,,,,,,,,,,,,,,,,,,,,,,,0.093413657,,,,,,,,,,,,,,,,,,,,,,,,,,,,left,1,160,-30,130,1,1718.408185,1718.408185,1718.408185,None,None,2,0,0.4172921,,,,,,,,,,,,,,,,,,,,,,10,8,2,2024-10-20_17h02.44.274,uWM_experiment,2022.2.3,60.00438032
,,,,,,,,,,,,,,,,,,,,4,0,4,0,,,,,0,0,0,0,,,,,,,,,,,,,,,,,,,,,,,,,,,,,,,,,,,,,,,,,,,,,,,,,,,,,,,,,,,,,,,,,,,,,,,,,,,,,,,,,,,,,,,,,,,,,,,,,,,,,,,,,,,,1718.85816,1718.85816,space,27.0231971,None,None,,,,,,,,,,,,,,,,10,8,2,2024-10-20_17h02.44.274,uWM_experiment,2022.2.3,60.00438032
,,,,,,,,,,,,,,,,,,,,4,0,4,0,,,,,1,0,1,0,,,,,,,,,,,,,,,,,,,,,,,,,,,,,,,,,,,,,,,,,,,,,,,,,,,,,,,,,,,,,,,,,,,,,,,,,,,,,,,,,,,,,,,,,,,,,,,,,,,,,,,,,,,,,,,,,,,,,,,,,,,,,,,,,10,8,2,2024-10-20_17h02.44.274,uWM_experiment,2022.2.3,60.00438032
,,,,,,,,,,,,,,,,,,,,4,0,4,0,,,,,2,0,2,0,,,,,,,,,,,,,,,,,,,,,,,,,,,,,,,,,,,,,,,,,,,,,,,,,,,,,,,,,,,,,,,,,,,,,,,,,,,,,,,,,,,,,,,,,,,,,,,,,,,,,,,,,,,,,,,,,,,,,,,,,,,,,,,,,10,8,2,2024-10-20_17h02.44.274,uWM_experiment,2022.2.3,60.00438032
,,,,,,,,,,,,,,,,,,,,5,0,5,0,0,0,0,0,,,,,,,,,,,,,,,,,,,,,,,,,,,,,,,,,,,,,,,,,,,,,,,,,,,,,,,,,,,,,,,,,,,,,,0.083413657,,,,,,,,,,,,,,,,,,,,1745.909296,1746.609321,1746.909381,1747.60936,1747.909372,1748.609418,1748.609418,1748.92609,left,1,10,-30,-20,1,1754.359645,1754.359645,1754.359645,None,None,1,1,0.8577864,,,,,,,None,,,,,,,,,,,,,,,10,8,2,2024-10-20_17h02.44.274,uWM_experiment,2022.2.3,60.00438032
,,,,,,,,,,,,,,,,,,,,5,0,5,0,1,0,1,0,,,,,,,,,,,,,,,,,,,,,,,,,,,,,,,,,,,,,,,,,,,,,,,,,,,,,,,,,,,,,,,,,,,,,,0.093413657,,,,,,,,,,,,,,,,,,,,,,,,,,,,right,1,40,30,70,1,1761.259938,1761.259938,1761.259938,None,None,2,0,0.3093786,,,,,,,,,,,,,,,,,,,,,,10,8,2,2024-10-20_17h02.44.274,uWM_experiment,2022.2.3,60.00438032
,,,,,,,,,,,,,,,,,,,,5,0,5,0,2,0,2,0,,,,,,,,,,,,,,,,,,,,,,,,,,,,,,,,,,,,,,,,,,,,,,,,,,,,,,,,,,,,,,,,,,,,,,0.083413657,,,,,,,,,,,,,,,,,,,,,,,,,,,,right,1,10,30,40,1,1768.010202,1768.010202,1768.010202,None,None,2,0,0.815031,,,,,,,,,,,,,,,,,,,,,,10,8,2,2024-10-20_17h02.44.274,uWM_experiment,2022.2.3,60.00438032
,,,,,,,,,,,,,,,,,,,,5,0,5,0,3,0,3,0,,,,,,,,,,,,,,,,,,,,,,,,,,,,,,,,,,,,,,,,,,,,,,,,,,,,,,,,,,,,,,,,,,,,,,0,,,,,,,,,,,,,,,,,,,,,,,,,,,,right,0,160,-30,130,0,1775.327185,1775.327185,1775.327185,None,None,1,1,0.6502318,,,,,,,,,,,,,,,,,,,,,,10,8,2,2024-10-20_17h02.44.274,uWM_experiment,2022.2.3,60.00438032
,,,,,,,,,,,,,,,,,,,,5,0,5,0,4,0,4,0,,,,,,,,,,,,,,,,,,,,,,,,,,,,,,,,,,,,,,,,,,,,,,,,,,,,,,,,,,,,,,,,,,,,,,0,,,,,,,,,,,,,,,,,,,,,,,,,,,,right,1,100,30,130,0,1781.644082,1781.644082,1781.644082,None,None,1,1,0.3731473,,,,,,,,,,,,,,,,,,,,,,10,8,2,2024-10-20_17h02.44.274,uWM_experiment,2022.2.3,60.00438032
,,,,,,,,,,,,,,,,,,,,5,0,5,0,5,0,5,0,,,,,,,,,,,,,,,,,,,,,,,,,,,,,,,,,,,,,,,,,,,,,,,,,,,,,,,,,,,,,,,,,,,,,,0.1,,,,,,,,,,,,,,,,,,,,,,,,,,,,right,1,40,30,70,2,1788.094341,1788.094341,1788.094341,None,None,4,0,0.4268735,,,,,,,,,,,,,,,,,,,,,,10,8,2,2024-10-20_17h02.44.274,uWM_experiment,2022.2.3,60.00438032
,,,,,,,,,,,,,,,,,,,,5,0,5,0,6,0,6,0,,,,,,,,,,,,,,,,,,,,,,,,,,,,,,,,,,,,,,,,,,,,,,,,,,,,,,,,,,,,,,,,,,,,,,0,,,,,,,,,,,,,,,,,,,,,,,,,,,,right,1,10,30,40,0,1797.244734,1797.244734,1797.244734,None,None,2,0,1.0444734,,,,,,,,,,,,,,,,,,,,,,10,8,2,2024-10-20_17h02.44.274,uWM_experiment,2022.2.3,60.00438032
,,,,,,,,,,,,,,,,,,,,5,0,5,0,7,0,7,0,,,,,,,,,,,,,,,,,,,,,,,,,,,,,,,,,,,,,,,,,,,,,,,,,,,,,,,,,,,,,,,,,,,,,,0,,,,,,,,,,,,,,,,,,,,,,,,,,,,left,1,160,-30,130,0,1804.095004,1804.095004,1804.095004,None,None,1,1,0.4662465,,,,,,,,,,,,,,,,,,,,,,10,8,2,2024-10-20_17h02.44.274,uWM_experiment,2022.2.3,60.00438032
,,,,,,,,,,,,,,,,,,,,5,0,5,0,8,0,8,0,,,,,,,,,,,,,,,,,,,,,,,,,,,,,,,,,,,,,,,,,,,,,,,,,,,,,,,,,,,,,,,,,,,,,,0.073413657,,,,,,,,,,,,,,,,,,,,,,,,,,,,right,1,40,30,70,1,1810.395264,1810.395264,1810.395264,None,None,2,0,1.1819912,,,,,,,,,,,,,,,,,,,,,,10,8,2,2024-10-20_17h02.44.274,uWM_experiment,2022.2.3,60.00438032
,,,,,,,,,,,,,,,,,,,,5,0,5,0,9,0,9,0,,,,,,,,,,,,,,,,,,,,,,,,,,,,,,,,,,,,,,,,,,,,,,,,,,,,,,,,,,,,,,,,,,,,,,0.063413657,,,,,,,,,,,,,,,,,,,,,,,,,,,,left,0,100,30,130,1,1817.312222,1817.312222,1817.312222,None,None,1,1,0.7129087,,,,,,,,,,,,,,,,,,,,,,10,8,2,2024-10-20_17h02.44.274,uWM_experiment,2022.2.3,60.00438032
,,,,,,,,,,,,,,,,,,,,5,0,5,0,10,0,10,0,,,,,,,,,,,,,,,,,,,,,,,,,,,,,,,,,,,,,,,,,,,,,,,,,,,,,,,,,,,,,,,,,,,,,,0.073413657,,,,,,,,,,,,,,,,,,,,,,,,,,,,left,1,100,-30,70,1,1824.179174,1824.179174,1824.179174,None,None,2,0,0.5258898,,,,,,,,,,,,,,,,,,,,,,10,8,2,2024-10-20_17h02.44.274,uWM_experiment,2022.2.3,60.00438032
,,,,,,,,,,,,,,,,,,,,5,0,5,0,11,0,11,0,,,,,,,,,,,,,,,,,,,,,,,,,,,,,,,,,,,,,,,,,,,,,,,,,,,,,,,,,,,,,,,,,,,,,,0.063413657,,,,,,,,,,,,,,,,,,,,,,,,,,,,left,1,100,-30,70,1,1830.362767,1830.362767,1830.362767,None,None,1,1,0.5822733,,,,,,,,,,,,,,,,,,,,,,10,8,2,2024-10-20_17h02.44.274,uWM_experiment,2022.2.3,60.00438032
,,,,,,,,,,,,,,,,,,,,5,0,5,0,12,0,12,0,,,,,,,,,,,,,,,,,,,,,,,,,,,,,,,,,,,,,,,,,,,,,,,,,,,,,,,,,,,,,,,,,,,,,,0.073413657,,,,,,,,,,,,,,,,,,,,,,,,,,,,left,0,40,30,70,1,1837.896411,1837.896411,1837.896411,None,None,1,1,0.680674,,,,,,,,,,,,,,,,,,,,,,10,8,2,2024-10-20_17h02.44.274,uWM_experiment,2022.2.3,60.00438032
,,,,,,,,,,,,,,,,,,,,5,0,5,0,13,0,13,0,,,,,,,,,,,,,,,,,,,,,,,,,,,,,,,,,,,,,,,,,,,,,,,,,,,,,,,,,,,,,,,,,,,,,,0.083413657,,,,,,,,,,,,,,,,,,,,,,,,,,,,right,1,160,30,190,1,1844.613355,1844.613355,1844.613355,None,None,1,1,0.4917122,,,,,,,,,,,,,,,,,,,,,,10,8,2,2024-10-20_17h02.44.274,uWM_experiment,2022.2.3,60.00438032
,,,,,,,,,,,,,,,,,,,,5,0,5,0,14,0,14,0,,,,,,,,,,,,,,,,,,,,,,,,,,,,,,,,,,,,,,,,,,,,,,,,,,,,,,,,,,,,,,,,,,,,,,0.093413657,,,,,,,,,,,,,,,,,,,,,,,,,,,,left,0,70,30,100,1,1851.563611,1851.563611,1851.563611,None,None,1,1,0.57352,,,,,,,,,,,,,,,,,,,,,,10,8,2,2024-10-20_17h02.44.274,uWM_experiment,2022.2.3,60.00438032
,,,,,,,,,,,,,,,,,,,,5,0,5,0,15,0,15,0,,,,,,,,,,,,,,,,,,,,,,,,,,,,,,,,,,,,,,,,,,,,,,,,,,,,,,,,,,,,,,,,,,,,,,0.103413657,,,,,,,,,,,,,,,,,,,,,,,,,,,,right,1,130,30,160,1,1859.397282,1859.397282,1859.397282,None,None,2,0,0.6597261,,,,,,,,,,,,,,,,,,,,,,10,8,2,2024-10-20_17h02.44.274,uWM_experiment,2022.2.3,60.00438032
,,,,,,,,,,,,,,,,,,,,5,0,5,0,16,0,16,0,,,,,,,,,,,,,,,,,,,,,,,,,,,,,,,,,,,,,,,,,,,,,,,,,,,,,,,,,,,,,,,,,,,,,,0,,,,,,,,,,,,,,,,,,,,,,,,,,,,right,1,40,30,70,0,1865.980874,1865.980874,1865.980874,None,None,1,1,0.1561445,,,,,,,,,,,,,,,,,,,,,,10,8,2,2024-10-20_17h02.44.274,uWM_experiment,2022.2.3,60.00438032
,,,,,,,,,,,,,,,,,,,,5,0,5,0,17,0,17,0,,,,,,,,,,,,,,,,,,,,,,,,,,,,,,,,,,,,,,,,,,,,,,,,,,,,,,,,,,,,,,,,,,,,,,0.093413657,,,,,,,,,,,,,,,,,,,,,,,,,,,,right,1,10,30,40,1,1871.947779,1871.947779,1871.947779,None,None,1,1,0.1732154,,,,,,,,,,,,,,,,,,,,,,10,8,2,2024-10-20_17h02.44.274,uWM_experiment,2022.2.3,60.00438032
,,,,,,,,,,,,,,,,,,,,5,0,5,0,18,0,18,0,,,,,,,,,,,,,,,,,,,,,,,,,,,,,,,,,,,,,,,,,,,,,,,,,,,,,,,,,,,,,,,,,,,,,,0.103413657,,,,,,,,,,,,,,,,,,,,,,,,,,,,left,1,130,-30,100,1,1877.864695,1877.864695,1877.864695,None,None,1,1,0.1921859,,,,,,,,,,,,,,,,,,,,,,10,8,2,2024-10-20_17h02.44.274,uWM_experiment,2022.2.3,60.00438032
,,,,,,,,,,,,,,,,,,,,5,0,5,0,19,0,19,0,,,,,,,,,,,,,,,,,,,,,,,,,,,,,,,,,,,,,,,,,,,,,,,,,,,,,,,,,,,,,,,,,,,,,,0.113413657,,,,,,,,,,,,,,,,,,,,,,,,,,,,right,1,10,30,40,1,1883.864941,1883.864941,1883.864941,None,None,1,1,0.2320051,,,,,,,,,,,,,,,,,,,,,,10,8,2,2024-10-20_17h02.44.274,uWM_experiment,2022.2.3,60.00438032
,,,,,,,,,,,,,,,,,,,,5,0,5,0,20,0,20,0,,,,,,,,,,,,,,,,,,,,,,,,,,,,,,,,,,,,,,,,,,,,,,,,,,,,,,,,,,,,,,,,,,,,,,0.123413657,,,,,,,,,,,,,,,,,,,,,,,,,,,,left,0,70,30,100,1,1891.265256,1891.265256,1891.265256,None,None,1,1,0.4875789,,,,,,,,,,,,,,,,,,,,,,10,8,2,2024-10-20_17h02.44.274,uWM_experiment,2022.2.3,60.00438032
,,,,,,,,,,,,,,,,,,,,5,0,5,0,21,0,21,0,,,,,,,,,,,,,,,,,,,,,,,,,,,,,,,,,,,,,,,,,,,,,,,,,,,,,,,,,,,,,,,,,,,,,,0.133413657,,,,,,,,,,,,,,,,,,,,,,,,,,,,left,1,160,-30,130,1,1898.298877,1898.298877,1898.298877,None,None,1,1,0.3739588,,,,,,,,,,,,,,,,,,,,,,10,8,2,2024-10-20_17h02.44.274,uWM_experiment,2022.2.3,60.00438032
,,,,,,,,,,,,,,,,,,,,5,0,5,0,22,0,22,0,,,,,,,,,,,,,,,,,,,,,,,,,,,,,,,,,,,,,,,,,,,,,,,,,,,,,,,,,,,,,,,,,,,,,,0,,,,,,,,,,,,,,,,,,,,,,,,,,,,right,0,160,-30,130,0,1904.665776,1904.665776,1904.665776,None,None,1,1,1.039047,,,,,,,,,,,,,,,,,,,,,,10,8,2,2024-10-20_17h02.44.274,uWM_experiment,2022.2.3,60.00438032
,,,,,,,,,,,,,,,,,,,,5,0,5,0,23,0,23,0,,,,,,,,,,,,,,,,,,,,,,,,,,,,,,,,,,,,,,,,,,,,,,,,,,,,,,,,,,,,,,,,,,,,,,0.143413657,,,,,,,,,,,,,,,,,,,,,,,,,,,,left,1,10,-30,-20,1,1911.432735,1911.432735,1911.432735,None,None,2,0,0.1921003,,,,,,,,,,,,,,,,,,,,,,10,8,2,2024-10-20_17h02.44.274,uWM_experiment,2022.2.3,60.00438032
,,,,,,,,,,,,,,,,,,,,5,0,5,0,,,,,0,0,0,0,,,,,,,,,,,,,,,,,,,,,,,,,,,,,,,,,,,,,,,,,,,,,,,,,,,,,,,,,,,,,,,,,,,,,,,,,,,,,,,,,,,,,,,,,,,,,,,,,,,,,,,,,,,,1911.649435,1911.649435,space,17.5515746,space,None,,1929.233446,1929.233446,3.4473363,,,,,,,,,,,,10,8,2,2024-10-20_17h02.44.274,uWM_experiment,2022.2.3,60.00438032
,,,,,,,,,,,,,,,,,,,,5,0,5,0,,,,,1,0,1,0,,,,,,,,,,,,,,,,,,,,,,,,,,,,,,,,,,,,,,,,,,,,,,,,,,,,,,,,,,,,,,,,,,,,,,,,,,,,,,,,,,,,,,,,,,,,,,,,,,,,,,,,,,,,,,,,,,,,,,,,,,,,,,,,,10,8,2,2024-10-20_17h02.44.274,uWM_experiment,2022.2.3,60.00438032
,,,,,,,,,,,,,,,,,,,,5,0,5,0,,,,,2,0,2,0,,,,,,,,,,,,,,,,,,,,,,,,,,,,,,,,,,,,,,,,,,,,,,,,,,,,,,,,,,,,,,,,,,,,,,,,,,,,,,,,,,,,,,,,,,,,,,,,,,,,,,,,,,,,,,,,,,,,,,,,,,,,,,,,,10,8,2,2024-10-20_17h02.44.274,uWM_experiment,2022.2.3,60.00438032
,,,,,,,,,,,,,,,,,,,,6,0,6,0,0,0,0,0,,,,,,,,,,,,,,,,,,,,,,,,,,,,,,,,,,,,,,,,,,,,,,,,,,,,,,,,,,,,,,,,,,,,,,0.133413657,,,,,,,,,,,,,,,,,,,,1932.70026,1933.400292,1933.700304,1934.40033,1934.700345,1935.400374,1935.400374,1935.717058,left,1,130,-30,100,1,1940.517247,1940.517247,1940.517247,None,None,2,0,0.7955111,,,,,,,None,,,,,,,,,,,,,,,10,8,2,2024-10-20_17h02.44.274,uWM_experiment,2022.2.3,60.00438032
,,,,,,,,,,,,,,,,,,,,6,0,6,0,1,0,1,0,,,,,,,,,,,,,,,,,,,,,,,,,,,,,,,,,,,,,,,,,,,,,,,,,,,,,,,,,,,,,,,,,,,,,,0.123413657,,,,,,,,,,,,,,,,,,,,,,,,,,,,right,1,160,30,190,1,1946.934201,1946.934201,1946.934201,None,None,2,0,0.5144936,,,,,,,,,,,,,,,,,,,,,,10,8,2,2024-10-20_17h02.44.274,uWM_experiment,2022.2.3,60.00438032
,,,,,,,,,,,,,,,,,,,,6,0,6,0,2,0,2,0,,,,,,,,,,,,,,,,,,,,,,,,,,,,,,,,,,,,,,,,,,,,,,,,,,,,,,,,,,,,,,,,,,,,,,0.113413657,,,,,,,,,,,,,,,,,,,,,,,,,,,,left,1,130,-30,100,1,1953.101083,1953.101083,1953.101083,None,None,2,0,0.2755302,,,,,,,,,,,,,,,,,,,,,,10,8,2,2024-10-20_17h02.44.274,uWM_experiment,2022.2.3,60.00438032
,,,,,,,,,,,,,,,,,,,,6,0,6,0,3,0,3,0,,,,,,,,,,,,,,,,,,,,,,,,,,,,,,,,,,,,,,,,,,,,,,,,,,,,,,,,,,,,,,,,,,,,,,0.103413657,,,,,,,,,,,,,,,,,,,,,,,,,,,,left,1,10,-30,-20,1,1959.017997,1959.017997,1959.017997,None,None,2,0,0.3426832,,,,,,,,,,,,,,,,,,,,,,10,8,2,2024-10-20_17h02.44.274,uWM_experiment,2022.2.3,60.00438032
,,,,,,,,,,,,,,,,,,,,6,0,6,0,4,0,4,0,,,,,,,,,,,,,,,,,,,,,,,,,,,,,,,,,,,,,,,,,,,,,,,,,,,,,,,,,,,,,,,,,,,,,,0.093413657,,,,,,,,,,,,,,,,,,,,,,,,,,,,right,1,70,30,100,1,1965.668276,1965.668276,1965.668276,None,None,2,0,1.4764007,,,,,,,,,,,,,,,,,,,,,,10,8,2,2024-10-20_17h02.44.274,uWM_experiment,2022.2.3,60.00438032
,,,,,,,,,,,,,,,,,,,,6,0,6,0,5,0,5,0,,,,,,,,,,,,,,,,,,,,,,,,,,,,,,,,,,,,,,,,,,,,,,,,,,,,,,,,,,,,,,,,,,,,,,0,,,,,,,,,,,,,,,,,,,,,,,,,,,,left,0,160,30,190,0,1972.685216,1972.685216,1972.685216,None,None,1,1,0.1553563,,,,,,,,,,,,,,,,,,,,,,10,8,2,2024-10-20_17h02.44.274,uWM_experiment,2022.2.3,60.00438032
,,,,,,,,,,,,,,,,,,,,6,0,6,0,6,0,6,0,,,,,,,,,,,,,,,,,,,,,,,,,,,,,,,,,,,,,,,,,,,,,,,,,,,,,,,,,,,,,,,,,,,,,,0.083413657,,,,,,,,,,,,,,,,,,,,,,,,,,,,right,1,10,30,40,1,1979.202166,1979.202166,1979.202166,None,None,1,1,0.2784676,,,,,,,,,,,,,,,,,,,,,,10,8,2,2024-10-20_17h02.44.274,uWM_experiment,2022.2.3,60.00438032
,,,,,,,,,,,,,,,,,,,,6,0,6,0,7,0,7,0,,,,,,,,,,,,,,,,,,,,,,,,,,,,,,,,,,,,,,,,,,,,,,,,,,,,,,,,,,,,,,,,,,,,,,0.093413657,,,,,,,,,,,,,,,,,,,,,,,,,,,,left,1,40,-30,10,1,1985.252408,1985.252408,1985.252408,None,None,2,0,0.8041236,,,,,,,,,,,,,,,,,,,,,,10,8,2,2024-10-20_17h02.44.274,uWM_experiment,2022.2.3,60.00438032
,,,,,,,,,,,,,,,,,,,,6,0,6,0,8,0,8,0,,,,,,,,,,,,,,,,,,,,,,,,,,,,,,,,,,,,,,,,,,,,,,,,,,,,,,,,,,,,,,,,,,,,,,0.083413657,,,,,,,,,,,,,,,,,,,,,,,,,,,,right,1,10,30,40,1,1992.002687,1992.002687,1992.002687,None,None,2,0,0.9818934,,,,,,,,,,,,,,,,,,,,,,10,8,2,2024-10-20_17h02.44.274,uWM_experiment,2022.2.3,60.00438032
,,,,,,,,,,,,,,,,,,,,6,0,6,0,9,0,9,0,,,,,,,,,,,,,,,,,,,,,,,,,,,,,,,,,,,,,,,,,,,,,,,,,,,,,,,,,,,,,,,,,,,,,,0.073413657,,,,,,,,,,,,,,,,,,,,,,,,,,,,left,1,10,-30,-20,1,1998.752983,1998.752983,1998.752983,None,None,2,0,0.743671,,,,,,,,,,,,,,,,,,,,,,10,8,2,2024-10-20_17h02.44.274,uWM_experiment,2022.2.3,60.00438032
,,,,,,,,,,,,,,,,,,,,6,0,6,0,10,0,10,0,,,,,,,,,,,,,,,,,,,,,,,,,,,,,,,,,,,,,,,,,,,,,,,,,,,,,,,,,,,,,,,,,,,,,,0.063413657,,,,,,,,,,,,,,,,,,,,,,,,,,,,right,0,100,-30,70,1,2005.469901,2005.469901,2005.469901,None,None,1,1,0.338585,,,,,,,,,,,,,,,,,,,,,,10,8,2,2024-10-20_17h02.44.274,uWM_experiment,2022.2.3,60.00438032
,,,,,,,,,,,,,,,,,,,,6,0,6,0,11,0,11,0,,,,,,,,,,,,,,,,,,,,,,,,,,,,,,,,,,,,,,,,,,,,,,,,,,,,,,,,,,,,,,,,,,,,,,0.073413657,,,,,,,,,,,,,,,,,,,,,,,,,,,,left,0,130,30,160,1,2015.103633,2015.103633,2015.103633,None,None,1,1,0.176854,,,,,,,,,,,,,,,,,,,,,,10,8,2,2024-10-20_17h02.44.274,uWM_experiment,2022.2.3,60.00438032
,,,,,,,,,,,,,,,,,,,,6,0,6,0,12,0,12,0,,,,,,,,,,,,,,,,,,,,,,,,,,,,,,,,,,,,,,,,,,,,,,,,,,,,,,,,,,,,,,,,,,,,,,0.083413657,,,,,,,,,,,,,,,,,,,,,,,,,,,,left,1,130,-30,100,1,2022.253922,2022.253922,2022.253922,None,None,1,1,0.3466018,,,,,,,,,,,,,,,,,,,,,,10,8,2,2024-10-20_17h02.44.274,uWM_experiment,2022.2.3,60.00438032
,,,,,,,,,,,,,,,,,,,,6,0,6,0,13,0,13,0,,,,,,,,,,,,,,,,,,,,,,,,,,,,,,,,,,,,,,,,,,,,,,,,,,,,,,,,,,,,,,,,,,,,,,0.093413657,,,,,,,,,,,,,,,,,,,,,,,,,,,,left,1,160,-30,130,1,2028.137499,2028.137499,2028.137499,None,None,1,1,0.5750637,,,,,,,,,,,,,,,,,,,,,,10,8,2,2024-10-20_17h02.44.274,uWM_experiment,2022.2.3,60.00438032
,,,,,,,,,,,,,,,,,,,,6,0,6,0,14,0,14,0,,,,,,,,,,,,,,,,,,,,,,,,,,,,,,,,,,,,,,,,,,,,,,,,,,,,,,,,,,,,,,,,,,,,,,0.103413657,,,,,,,,,,,,,,,,,,,,,,,,,,,,right,1,70,30,100,1,2034.737759,2034.737759,2034.737759,None,None,2,0,1.4705733,,,,,,,,,,,,,,,,,,,,,,10,8,2,2024-10-20_17h02.44.274,uWM_experiment,2022.2.3,60.00438032
,,,,,,,,,,,,,,,,,,,,6,0,6,0,15,0,15,0,,,,,,,,,,,,,,,,,,,,,,,,,,,,,,,,,,,,,,,,,,,,,,,,,,,,,,,,,,,,,,,,,,,,,,0.093413657,,,,,,,,,,,,,,,,,,,,,,,,,,,,right,1,40,30,70,1,2042.154737,2042.154737,2042.154737,None,None,2,0,1.5416759,,,,,,,,,,,,,,,,,,,,,,10,8,2,2024-10-20_17h02.44.274,uWM_experiment,2022.2.3,60.00438032
,,,,,,,,,,,,,,,,,,,,6,0,6,0,16,0,16,0,,,,,,,,,,,,,,,,,,,,,,,,,,,,,,,,,,,,,,,,,,,,,,,,,,,,,,,,,,,,,,,,,,,,,,0.083413657,,,,,,,,,,,,,,,,,,,,,,,,,,,,left,0,130,30,160,1,2049.905045,2049.905045,2049.905045,None,None,1,1,0.2712814,,,,,,,,,,,,,,,,,,,,,,10,8,2,2024-10-20_17h02.44.274,uWM_experiment,2022.2.3,60.00438032
,,,,,,,,,,,,,,,,,,,,6,0,6,0,17,0,17,0,,,,,,,,,,,,,,,,,,,,,,,,,,,,,,,,,,,,,,,,,,,,,,,,,,,,,,,,,,,,,,,,,,,,,,0.1,,,,,,,,,,,,,,,,,,,,,,,,,,,,right,1,130,30,160,2,2056.121991,2056.121991,2056.121991,None,None,4,0,0.3743087,,,,,,,,,,,,,,,,,,,,,,10,8,2,2024-10-20_17h02.44.274,uWM_experiment,2022.2.3,60.00438032
,,,,,,,,,,,,,,,,,,,,6,0,6,0,18,0,18,0,,,,,,,,,,,,,,,,,,,,,,,,,,,,,,,,,,,,,,,,,,,,,,,,,,,,,,,,,,,,,,,,,,,,,,0.093413657,,,,,,,,,,,,,,,,,,,,,,,,,,,,right,1,10,30,40,1,2062.988909,2062.988909,2062.988909,None,None,1,1,0.5953757,,,,,,,,,,,,,,,,,,,,,,10,8,2,2024-10-20_17h02.44.274,uWM_experiment,2022.2.3,60.00438032
,,,,,,,,,,,,,,,,,,,,6,0,6,0,19,0,19,0,,,,,,,,,,,,,,,,,,,,,,,,,,,,,,,,,,,,,,,,,,,,,,,,,,,,,,,,,,,,,,,,,,,,,,0.103413657,,,,,,,,,,,,,,,,,,,,,,,,,,,,left,1,130,-30,100,1,2069.389189,2069.389189,2069.389189,None,None,2,0,0.2912102,,,,,,,,,,,,,,,,,,,,,,10,8,2,2024-10-20_17h02.44.274,uWM_experiment,2022.2.3,60.00438032
,,,,,,,,,,,,,,,,,,,,6,0,6,0,20,0,20,0,,,,,,,,,,,,,,,,,,,,,,,,,,,,,,,,,,,,,,,,,,,,,,,,,,,,,,,,,,,,,,,,,,,,,,0.093413657,,,,,,,,,,,,,,,,,,,,,,,,,,,,left,1,70,-30,40,1,2075.422759,2075.422759,2075.422759,None,None,2,0,0.3534494,,,,,,,,,,,,,,,,,,,,,,10,8,2,2024-10-20_17h02.44.274,uWM_experiment,2022.2.3,60.00438032
,,,,,,,,,,,,,,,,,,,,6,0,6,0,21,0,21,0,,,,,,,,,,,,,,,,,,,,,,,,,,,,,,,,,,,,,,,,,,,,,,,,,,,,,,,,,,,,,,,,,,,,,,0.083413657,,,,,,,,,,,,,,,,,,,,,,,,,,,,left,1,100,-30,70,1,2082.256386,2082.256386,2082.256386,None,None,2,0,0.7038546,,,,,,,,,,,,,,,,,,,,,,10,8,2,2024-10-20_17h02.44.274,uWM_experiment,2022.2.3,60.00438032
,,,,,,,,,,,,,,,,,,,,6,0,6,0,22,0,22,0,,,,,,,,,,,,,,,,,,,,,,,,,,,,,,,,,,,,,,,,,,,,,,,,,,,,,,,,,,,,,,,,,,,,,,0.073413657,,,,,,,,,,,,,,,,,,,,,,,,,,,,left,1,70,-30,40,1,2088.756641,2088.756641,2088.756641,None,None,2,0,0.2596932,,,,,,,,,,,,,,,,,,,,,,10,8,2,2024-10-20_17h02.44.274,uWM_experiment,2022.2.3,60.00438032
,,,,,,,,,,,,,,,,,,,,6,0,6,0,23,0,23,0,,,,,,,,,,,,,,,,,,,,,,,,,,,,,,,,,,,,,,,,,,,,,,,,,,,,,,,,,,,,,,,,,,,,,,0.063413657,,,,,,,,,,,,,,,,,,,,,,,,,,,,left,1,10,-30,-20,1,2094.706904,2094.706904,2094.706904,None,None,1,1,0.8692997,,,,,,,,,,,,,,,,,,,,,,10,8,2,2024-10-20_17h02.44.274,uWM_experiment,2022.2.3,60.00438032
,,,,,,,,,,,,,,,,,,,,6,0,6,0,,,,,0,0,0,0,,,,,,,,,,,,,,,,,,,,,,,,,,,,,,,,,,,,,,,,,,,,,,,,,,,,,,,,,,,,,,,,,,,,,,,,,,,,,,,,,,,,,,,,,,,,,,,,,,,,,,,,,,,,2095.606907,2095.606907,space,33.8812985,None,space,,,,,2129.508291,2129.508291,12.4998645,,,,,,,,,10,8,2,2024-10-20_17h02.44.274,uWM_experiment,2022.2.3,60.00438032
,,,,,,,,,,,,,,,,,,,,6,0,6,0,,,,,1,0,1,0,,,,,,,,,,,,,,,,,,,,,,,,,,,,,,,,,,,,,,,,,,,,,,,,,,,,,,,,,,,,,,,,,,,,,,,,,,,,,,,,,,,,,,,,,,,,,,,,,,,,,,,,,,,,,,,,,,,,,,,,,,,,,,,,,10,8,2,2024-10-20_17h02.44.274,uWM_experiment,2022.2.3,60.00438032
,,,,,,,,,,,,,,,,,,,,6,0,6,0,,,,,2,0,2,0,,,,,,,,,,,,,,,,,,,,,,,,,,,,,,,,,,,,,,,,,,,,,,,,,,,,,,,,,,,,,,,,,,,,,,,,,,,,,,,,,,,,,,,,,,,,,,,,,,,,,,,,,,,,,,,,,,,,,,,,,,,,,,,,,10,8,2,2024-10-20_17h02.44.274,uWM_experiment,2022.2.3,60.00438032
,,,,,,,,,,,,,,,,,,,,7,0,7,0,0,0,0,0,,,,,,,,,,,,,,,,,,,,,,,,,,,,,,,,,,,,,,,,,,,,,,,,,,,,,,,,,,,,,,,,,,,,,,0.073413657,,,,,,,,,,,,,,,,,,,,2155.359359,2156.059377,2156.342726,2157.042757,2157.342772,2158.042809,2158.042809,2158.359486,right,1,160,30,190,1,2163.109677,2163.109677,2163.109677,None,None,2,0,0.5542584,,,,,,,space,,,,,,,2151.092508,2151.092508,4.2436236,,,,,,10,8,2,2024-10-20_17h02.44.274,uWM_experiment,2022.2.3,60.00438032
,,,,,,,,,,,,,,,,,,,,7,0,7,0,1,0,1,0,,,,,,,,,,,,,,,,,,,,,,,,,,,,,,,,,,,,,,,,,,,,,,,,,,,,,,,,,,,,,,,,,,,,,,0.063413657,,,,,,,,,,,,,,,,,,,,,,,,,,,,left,1,70,-30,40,1,2169.226608,2169.226608,2169.226608,None,None,2,0,0.3893951,,,,,,,,,,,,,,,,,,,,,,10,8,2,2024-10-20_17h02.44.274,uWM_experiment,2022.2.3,60.00438032
,,,,,,,,,,,,,,,,,,,,7,0,7,0,2,0,2,0,,,,,,,,,,,,,,,,,,,,,,,,,,,,,,,,,,,,,,,,,,,,,,,,,,,,,,,,,,,,,,,,,,,,,,0.053413657,,,,,,,,,,,,,,,,,,,,,,,,,,,,left,1,10,-30,-20,1,2175.410179,2175.410179,2175.410179,None,None,1,1,0.2297527,,,,,,,,,,,,,,,,,,,,,,10,8,2,2024-10-20_17h02.44.274,uWM_experiment,2022.2.3,60.00438032
,,,,,,,,,,,,,,,,,,,,7,0,7,0,3,0,3,0,,,,,,,,,,,,,,,,,,,,,,,,,,,,,,,,,,,,,,,,,,,,,,,,,,,,,,,,,,,,,,,,,,,,,,0.063413657,,,,,,,,,,,,,,,,,,,,,,,,,,,,right,1,160,30,190,1,2181.310442,2181.310442,2181.310442,None,None,1,1,0.4254537,,,,,,,,,,,,,,,,,,,,,,10,8,2,2024-10-20_17h02.44.274,uWM_experiment,2022.2.3,60.00438032
,,,,,,,,,,,,,,,,,,,,7,0,7,0,4,0,4,0,,,,,,,,,,,,,,,,,,,,,,,,,,,,,,,,,,,,,,,,,,,,,,,,,,,,,,,,,,,,,,,,,,,,,,0.073413657,,,,,,,,,,,,,,,,,,,,,,,,,,,,left,1,160,-30,130,1,2188.060694,2188.060694,2188.060694,None,None,2,0,0.6511621,,,,,,,,,,,,,,,,,,,,,,10,8,2,2024-10-20_17h02.44.274,uWM_experiment,2022.2.3,60.00438032
,,,,,,,,,,,,,,,,,,,,7,0,7,0,5,0,5,0,,,,,,,,,,,,,,,,,,,,,,,,,,,,,,,,,,,,,,,,,,,,,,,,,,,,,,,,,,,,,,,,,,,,,,0.063413657,,,,,,,,,,,,,,,,,,,,,,,,,,,,left,1,100,-30,70,1,2196.211032,2196.211032,2196.211032,None,None,1,1,0.7249413,,,,,,,,,,,,,,,,,,,,,,10,8,2,2024-10-20_17h02.44.274,uWM_experiment,2022.2.3,60.00438032
,,,,,,,,,,,,,,,,,,,,7,0,7,0,6,0,6,0,,,,,,,,,,,,,,,,,,,,,,,,,,,,,,,,,,,,,,,,,,,,,,,,,,,,,,,,,,,,,,,,,,,,,,0,,,,,,,,,,,,,,,,,,,,,,,,,,,,right,0,70,-30,40,0,2203.277983,2203.277983,2203.277983,None,None,1,1,0.6978765,,,,,,,,,,,,,,,,,,,,,,10,8,2,2024-10-20_17h02.44.274,uWM_experiment,2022.2.3,60.00438032
,,,,,,,,,,,,,,,,,,,,7,0,7,0,7,0,7,0,,,,,,,,,,,,,,,,,,,,,,,,,,,,,,,,,,,,,,,,,,,,,,,,,,,,,,,,,,,,,,,,,,,,,,0,,,,,,,,,,,,,,,,,,,,,,,,,,,,left,1,100,-30,70,0,2209.561591,2209.561591,2209.561591,None,None,1,1,0.4382457,,,,,,,,,,,,,,,,,,,,,,10,8,2,2024-10-20_17h02.44.274,uWM_experiment,2022.2.3,60.00438032
,,,,,,,,,,,,,,,,,,,,7,0,7,0,8,0,8,0,,,,,,,,,,,,,,,,,,,,,,,,,,,,,,,,,,,,,,,,,,,,,,,,,,,,,,,,,,,,,,,,,,,,,,0.073413657,,,,,,,,,,,,,,,,,,,,,,,,,,,,left,1,100,-30,70,1,2215.37848,2215.37848,2215.37848,None,None,1,1,0.5813243,,,,,,,,,,,,,,,,,,,,,,10,8,2,2024-10-20_17h02.44.274,uWM_experiment,2022.2.3,60.00438032
,,,,,,,,,,,,,,,,,,,,7,0,7,0,9,0,9,0,,,,,,,,,,,,,,,,,,,,,,,,,,,,,,,,,,,,,,,,,,,,,,,,,,,,,,,,,,,,,,,,,,,,,,0,,,,,,,,,,,,,,,,,,,,,,,,,,,,left,0,40,30,70,0,2221.578748,2221.578748,2221.578748,None,None,1,1,0.3090353,,,,,,,,,,,,,,,,,,,,,,10,8,2,2024-10-20_17h02.44.274,uWM_experiment,2022.2.3,60.00438032
,,,,,,,,,,,,,,,,,,,,7,0,7,0,10,0,10,0,,,,,,,,,,,,,,,,,,,,,,,,,,,,,,,,,,,,,,,,,,,,,,,,,,,,,,,,,,,,,,,,,,,,,,0.083413657,,,,,,,,,,,,,,,,,,,,,,,,,,,,left,0,130,30,160,1,2227.795669,2227.795669,2227.795669,None,None,1,1,0.7401556,,,,,,,,,,,,,,,,,,,,,,10,8,2,2024-10-20_17h02.44.274,uWM_experiment,2022.2.3,60.00438032
,,,,,,,,,,,,,,,,,,,,7,0,7,0,11,0,11,0,,,,,,,,,,,,,,,,,,,,,,,,,,,,,,,,,,,,,,,,,,,,,,,,,,,,,,,,,,,,,,,,,,,,,,0.093413657,,,,,,,,,,,,,,,,,,,,,,,,,,,,right,0,100,-30,70,1,2234.612636,2234.612636,2234.612636,None,None,2,0,0.3072151,,,,,,,,,,,,,,,,,,,,,,10,8,2,2024-10-20_17h02.44.274,uWM_experiment,2022.2.3,60.00438032
,,,,,,,,,,,,,,,,,,,,7,0,7,0,12,0,12,0,,,,,,,,,,,,,,,,,,,,,,,,,,,,,,,,,,,,,,,,,,,,,,,,,,,,,,,,,,,,,,,,,,,,,,0.083413657,,,,,,,,,,,,,,,,,,,,,,,,,,,,left,0,100,30,130,1,2240.796178,2240.796178,2240.796178,None,None,1,1,0.3236688,,,,,,,,,,,,,,,,,,,,,,10,8,2,2024-10-20_17h02.44.274,uWM_experiment,2022.2.3,60.00438032
,,,,,,,,,,,,,,,,,,,,7,0,7,0,13,0,13,0,,,,,,,,,,,,,,,,,,,,,,,,,,,,,,,,,,,,,,,,,,,,,,,,,,,,,,,,,,,,,,,,,,,,,,0,,,,,,,,,,,,,,,,,,,,,,,,,,,,left,0,10,30,40,0,2247.813151,2247.813151,2247.813151,None,None,1,1,0.4665611,,,,,,,,,,,,,,,,,,,,,,10,8,2,2024-10-20_17h02.44.274,uWM_experiment,2022.2.3,60.00438032
,,,,,,,,,,,,,,,,,,,,7,0,7,0,14,0,14,0,,,,,,,,,,,,,,,,,,,,,,,,,,,,,,,,,,,,,,,,,,,,,,,,,,,,,,,,,,,,,,,,,,,,,,0.093413657,,,,,,,,,,,,,,,,,,,,,,,,,,,,left,1,10,-30,-20,1,2254.396738,2254.396738,2254.396738,None,None,1,1,0.8189243,,,,,,,,,,,,,,,,,,,,,,10,8,2,2024-10-20_17h02.44.274,uWM_experiment,2022.2.3,60.00438032
,,,,,,,,,,,,,,,,,,,,7,0,7,0,15,0,15,0,,,,,,,,,,,,,,,,,,,,,,,,,,,,,,,,,,,,,,,,,,,,,,,,,,,,,,,,,,,,,,,,,,,,,,0.103413657,,,,,,,,,,,,,,,,,,,,,,,,,,,,right,1,160,30,190,1,2260.963685,2260.963685,2260.963685,None,None,1,1,0.8280504,,,,,,,,,,,,,,,,,,,,,,10,8,2,2024-10-20_17h02.44.274,uWM_experiment,2022.2.3,60.00438032
,,,,,,,,,,,,,,,,,,,,7,0,7,0,16,0,16,0,,,,,,,,,,,,,,,,,,,,,,,,,,,,,,,,,,,,,,,,,,,,,,,,,,,,,,,,,,,,,,,,,,,,,,0.113413657,,,,,,,,,,,,,,,,,,,,,,,,,,,,right,1,130,30,160,1,2268.21397,2268.21397,2268.21397,None,None,1,1,0.2977003,,,,,,,,,,,,,,,,,,,,,,10,8,2,2024-10-20_17h02.44.274,uWM_experiment,2022.2.3,60.00438032
,,,,,,,,,,,,,,,,,,,,7,0,7,0,17,0,17,0,,,,,,,,,,,,,,,,,,,,,,,,,,,,,,,,,,,,,,,,,,,,,,,,,,,,,,,,,,,,,,,,,,,,,,0.123413657,,,,,,,,,,,,,,,,,,,,,,,,,,,,left,1,160,-30,130,1,2274.697573,2274.697573,2274.697573,None,None,2,0,0.1503243,,,,,,,,,,,,,,,,,,,,,,10,8,2,2024-10-20_17h02.44.274,uWM_experiment,2022.2.3,60.00438032
,,,,,,,,,,,,,,,,,,,,7,0,7,0,18,0,18,0,,,,,,,,,,,,,,,,,,,,,,,,,,,,,,,,,,,,,,,,,,,,,,,,,,,,,,,,,,,,,,,,,,,,,,0,,,,,,,,,,,,,,,,,,,,,,,,,,,,left,0,70,30,100,0,2280.514462,2280.514462,2280.514462,None,None,1,1,0.1651605,,,,,,,,,,,,,,,,,,,,,,10,8,2,2024-10-20_17h02.44.274,uWM_experiment,2022.2.3,60.00438032
,,,,,,,,,,,,,,,,,,,,7,0,7,0,19,0,19,0,,,,,,,,,,,,,,,,,,,,,,,,,,,,,,,,,,,,,,,,,,,,,,,,,,,,,,,,,,,,,,,,,,,,,,0.113413657,,,,,,,,,,,,,,,,,,,,,,,,,,,,right,1,160,30,190,1,2286.448067,2286.448067,2286.448067,None,None,1,1,0.8476294,,,,,,,,,,,,,,,,,,,,,,10,8,2,2024-10-20_17h02.44.274,uWM_experiment,2022.2.3,60.00438032
,,,,,,,,,,,,,,,,,,,,7,0,7,0,20,0,20,0,,,,,,,,,,,,,,,,,,,,,,,,,,,,,,,,,,,,,,,,,,,,,,,,,,,,,,,,,,,,,,,,,,,,,,0,,,,,,,,,,,,,,,,,,,,,,,,,,,,right,0,70,-30,40,0,2293.114981,2293.114981,2293.114981,None,None,1,1,0.6045447,,,,,,,,,,,,,,,,,,,,,,10,8,2,2024-10-20_17h02.44.274,uWM_experiment,2022.2.3,60.00438032
,,,,,,,,,,,,,,,,,,,,7,0,7,0,21,0,21,0,,,,,,,,,,,,,,,,,,,,,,,,,,,,,,,,,,,,,,,,,,,,,,,,,,,,,,,,,,,,,,,,,,,,,,0.123413657,,,,,,,,,,,,,,,,,,,,,,,,,,,,right,0,70,-30,40,1,2300.015288,2300.015288,2300.015288,None,None,1,1,0.4002421,,,,,,,,,,,,,,,,,,,,,,10,8,2,2024-10-20_17h02.44.274,uWM_experiment,2022.2.3,60.00438032
,,,,,,,,,,,,,,,,,,,,7,0,7,0,22,0,22,0,,,,,,,,,,,,,,,,,,,,,,,,,,,,,,,,,,,,,,,,,,,,,,,,,,,,,,,,,,,,,,,,,,,,,,0.133413657,,,,,,,,,,,,,,,,,,,,,,,,,,,,right,0,100,-30,70,1,2305.815537,2305.815537,2305.815537,None,None,1,1,0.2960064,,,,,,,,,,,,,,,,,,,,,,10,8,2,2024-10-20_17h02.44.274,uWM_experiment,2022.2.3,60.00438032
,,,,,,,,,,,,,,,,,,,,7,0,7,0,23,0,23,0,,,,,,,,,,,,,,,,,,,,,,,,,,,,,,,,,,,,,,,,,,,,,,,,,,,,,,,,,,,,,,,,,,,,,,0.143413657,,,,,,,,,,,,,,,,,,,,,,,,,,,,right,1,10,30,40,1,2313.082477,2313.082477,2313.082477,None,None,1,1,0.5730521,,,,,,,,,,,,,,,,,,,,,,10,8,2,2024-10-20_17h02.44.274,uWM_experiment,2022.2.3,60.00438032
,,,,,,,,,,,,,,,,,,,,7,0,7,0,,,,,0,0,0,0,,,,,,,,,,,,,,,,,,,,,,,,,,,,,,,,,,,,,,,,,,,,,,,,,,,,,,,,,,,,,,,,,,,,,,,,,,,,,,,,,,,,,,,,,,,,,,,,,,,,,,,,,,,,2313.682486,2313.682486,space,29.6049632,None,None,,,,,,,,,,,,,,,,10,8,2,2024-10-20_17h02.44.274,uWM_experiment,2022.2.3,60.00438032
,,,,,,,,,,,,,,,,,,,,7,0,7,0,,,,,1,0,1,0,,,,,,,,,,,,,,,,,,,,,,,,,,,,,,,,,,,,,,,,,,,,,,,,,,,,,,,,,,,,,,,,,,,,,,,,,,,,,,,,,,,,,,,,,,,,,,,,,,,,,,,,,,,,,,,,,,,,,,,,,,,,,,,,,10,8,2,2024-10-20_17h02.44.274,uWM_experiment,2022.2.3,60.00438032
,,,,,,,,,,,,,,,,,,,,7,0,7,0,,,,,2,0,2,0,,,,,,,,,,,,,,,,,,,,,,,,,,,,,,,,,,,,,,,,,,,,,,,,,,,,,,,,,,,,,,,,,,,,,,,,,,,,,,,,,,,,,,,,,,,,,,,,,,,,,,,,,,,,,,,,,,,,,,,,,,,,,,,,,10,8,2,2024-10-20_17h02.44.274,uWM_experiment,2022.2.3,60.00438032
,,,,,,,,,,,,,,,,,,,,8,0,8,0,0,0,0,0,,,,,,,,,,,,,,,,,,,,,,,,,,,,,,,,,,,,,,,,,,,,,,,,,,,,,,,,,,,,,,,,,,,,,,0.153413657,,,,,,,,,,,,,,,,,,,,2343.31704,2344.017063,2344.317062,2345.017128,2345.317117,2346.017147,2346.017147,2346.333815,left,1,100,-30,70,1,2351.500711,2351.500711,2351.500711,None,None,2,0,0.2986582,,,,,,,None,,,,,,,,,,,,,,,10,8,2,2024-10-20_17h02.44.274,uWM_experiment,2022.2.3,60.00438032
,,,,,,,,,,,,,,,,,,,,8,0,8,0,1,0,1,0,,,,,,,,,,,,,,,,,,,,,,,,,,,,,,,,,,,,,,,,,,,,,,,,,,,,,,,,,,,,,,,,,,,,,,0,,,,,,,,,,,,,,,,,,,,,,,,,,,,right,1,70,30,100,0,2357.517624,2357.517624,2357.517624,None,None,1,1,0.7137643,,,,,,,,,,,,,,,,,,,,,,10,8,2,2024-10-20_17h02.44.274,uWM_experiment,2022.2.3,60.00438032
,,,,,,,,,,,,,,,,,,,,8,0,8,0,2,0,2,0,,,,,,,,,,,,,,,,,,,,,,,,,,,,,,,,,,,,,,,,,,,,,,,,,,,,,,,,,,,,,,,,,,,,,,0,,,,,,,,,,,,,,,,,,,,,,,,,,,,right,1,40,30,70,0,2365.251268,2365.251268,2365.251268,None,None,1,1,0.3720463,,,,,,,,,,,,,,,,,,,,,,10,8,2,2024-10-20_17h02.44.274,uWM_experiment,2022.2.3,60.00438032
,,,,,,,,,,,,,,,,,,,,8,0,8,0,3,0,3,0,,,,,,,,,,,,,,,,,,,,,,,,,,,,,,,,,,,,,,,,,,,,,,,,,,,,,,,,,,,,,,,,,,,,,,0.143413657,,,,,,,,,,,,,,,,,,,,,,,,,,,,left,1,70,-30,40,1,2371.351537,2371.351537,2371.351537,None,None,1,1,0.5517374,,,,,,,,,,,,,,,,,,,,,,10,8,2,2024-10-20_17h02.44.274,uWM_experiment,2022.2.3,60.00438032
,,,,,,,,,,,,,,,,,,,,8,0,8,0,4,0,4,0,,,,,,,,,,,,,,,,,,,,,,,,,,,,,,,,,,,,,,,,,,,,,,,,,,,,,,,,,,,,,,,,,,,,,,0.153413657,,,,,,,,,,,,,,,,,,,,,,,,,,,,right,1,40,30,70,1,2377.95181,2377.95181,2377.95181,None,None,1,1,0.2395976,,,,,,,,,,,,,,,,,,,,,,10,8,2,2024-10-20_17h02.44.274,uWM_experiment,2022.2.3,60.00438032
,,,,,,,,,,,,,,,,,,,,8,0,8,0,5,0,5,0,,,,,,,,,,,,,,,,,,,,,,,,,,,,,,,,,,,,,,,,,,,,,,,,,,,,,,,,,,,,,,,,,,,,,,0.163413657,,,,,,,,,,,,,,,,,,,,,,,,,,,,right,0,100,-30,70,1,2384.968745,2384.968745,2384.968745,None,None,1,1,0.2786802,,,,,,,,,,,,,,,,,,,,,,10,8,2,2024-10-20_17h02.44.274,uWM_experiment,2022.2.3,60.00438032
,,,,,,,,,,,,,,,,,,,,8,0,8,0,6,0,6,0,,,,,,,,,,,,,,,,,,,,,,,,,,,,,,,,,,,,,,,,,,,,,,,,,,,,,,,,,,,,,,,,,,,,,,0.173413657,,,,,,,,,,,,,,,,,,,,,,,,,,,,right,1,100,30,130,1,2394.802471,2394.802471,2394.802471,None,None,2,0,0.2448428,,,,,,,,,,,,,,,,,,,,,,10,8,2,2024-10-20_17h02.44.274,uWM_experiment,2022.2.3,60.00438032
,,,,,,,,,,,,,,,,,,,,8,0,8,0,7,0,7,0,,,,,,,,,,,,,,,,,,,,,,,,,,,,,,,,,,,,,,,,,,,,,,,,,,,,,,,,,,,,,,,,,,,,,,0.163413657,,,,,,,,,,,,,,,,,,,,,,,,,,,,right,1,40,30,70,1,2400.952752,2400.952752,2400.952752,None,None,2,0,0.1424709,,,,,,,,,,,,,,,,,,,,,,10,8,2,2024-10-20_17h02.44.274,uWM_experiment,2022.2.3,60.00438032
,,,,,,,,,,,,,,,,,,,,8,0,8,0,8,0,8,0,,,,,,,,,,,,,,,,,,,,,,,,,,,,,,,,,,,,,,,,,,,,,,,,,,,,,,,,,,,,,,,,,,,,,,0.153413657,,,,,,,,,,,,,,,,,,,,,,,,,,,,right,1,10,30,40,1,2406.652964,2406.652964,2406.652964,None,None,2,0,0.2342073,,,,,,,,,,,,,,,,,,,,,,10,8,2,2024-10-20_17h02.44.274,uWM_experiment,2022.2.3,60.00438032
,,,,,,,,,,,,,,,,,,,,8,0,8,0,9,0,9,0,,,,,,,,,,,,,,,,,,,,,,,,,,,,,,,,,,,,,,,,,,,,,,,,,,,,,,,,,,,,,,,,,,,,,,0,,,,,,,,,,,,,,,,,,,,,,,,,,,,left,0,70,30,100,0,2412.636529,2412.636529,2412.636529,None,None,1,1,0.186612,,,,,,,,,,,,,,,,,,,,,,10,8,2,2024-10-20_17h02.44.274,uWM_experiment,2022.2.3,60.00438032
,,,,,,,,,,,,,,,,,,,,8,0,8,0,10,0,10,0,,,,,,,,,,,,,,,,,,,,,,,,,,,,,,,,,,,,,,,,,,,,,,,,,,,,,,,,,,,,,,,,,,,,,,0.143413657,,,,,,,,,,,,,,,,,,,,,,,,,,,,left,1,130,-30,100,1,2418.853457,2418.853457,2418.853457,None,None,2,0,0.4097892,,,,,,,,,,,,,,,,,,,,,,10,8,2,2024-10-20_17h02.44.274,uWM_experiment,2022.2.3,60.00438032
,,,,,,,,,,,,,,,,,,,,8,0,8,0,11,0,11,0,,,,,,,,,,,,,,,,,,,,,,,,,,,,,,,,,,,,,,,,,,,,,,,,,,,,,,,,,,,,,,,,,,,,,,0.133413657,,,,,,,,,,,,,,,,,,,,,,,,,,,,right,0,160,-30,130,1,2426.270454,2426.270454,2426.270454,None,None,2,0,0.8567295,,,,,,,,,,,,,,,,,,,,,,10,8,2,2024-10-20_17h02.44.274,uWM_experiment,2022.2.3,60.00438032
,,,,,,,,,,,,,,,,,,,,8,0,8,0,12,0,12,0,,,,,,,,,,,,,,,,,,,,,,,,,,,,,,,,,,,,,,,,,,,,,,,,,,,,,,,,,,,,,,,,,,,,,,0,,,,,,,,,,,,,,,,,,,,,,,,,,,,left,0,160,30,190,0,2433.620745,2433.620745,2433.620745,None,None,1,1,0.1623379,,,,,,,,,,,,,,,,,,,,,,10,8,2,2024-10-20_17h02.44.274,uWM_experiment,2022.2.3,60.00438032
,,,,,,,,,,,,,,,,,,,,8,0,8,0,13,0,13,0,,,,,,,,,,,,,,,,,,,,,,,,,,,,,,,,,,,,,,,,,,,,,,,,,,,,,,,,,,,,,,,,,,,,,,0.123413657,,,,,,,,,,,,,,,,,,,,,,,,,,,,right,1,100,30,130,1,2439.754306,2439.754306,2439.754306,None,None,3,0,0.4847501,,,,,,,,,,,,,,,,,,,,,,10,8,2,2024-10-20_17h02.44.274,uWM_experiment,2022.2.3,60.00438032
,,,,,,,,,,,,,,,,,,,,8,0,8,0,14,0,14,0,,,,,,,,,,,,,,,,,,,,,,,,,,,,,,,,,,,,,,,,,,,,,,,,,,,,,,,,,,,,,,,,,,,,,,0.113413657,,,,,,,,,,,,,,,,,,,,,,,,,,,,left,1,40,-30,10,1,2446.337939,2446.337939,2446.337939,None,None,2,0,3.637112,,,,,,,,,,,,,,,,,,,,,,10,8,2,2024-10-20_17h02.44.274,uWM_experiment,2022.2.3,60.00438032
,,,,,,,,,,,,,,,,,,,,8,0,8,0,15,0,15,0,,,,,,,,,,,,,,,,,,,,,,,,,,,,,,,,,,,,,,,,,,,,,,,,,,,,,,,,,,,,,,,,,,,,,,0.103413657,,,,,,,,,,,,,,,,,,,,,,,,,,,,right,1,160,30,190,1,2455.804983,2455.804983,2455.804983,None,None,2,0,0.2980891,,,,,,,,,,,,,,,,,,,,,,10,8,2,2024-10-20_17h02.44.274,uWM_experiment,2022.2.3,60.00438032
,,,,,,,,,,,,,,,,,,,,8,0,8,0,16,0,16,0,,,,,,,,,,,,,,,,,,,,,,,,,,,,,,,,,,,,,,,,,,,,,,,,,,,,,,,,,,,,,,,,,,,,,,0,,,,,,,,,,,,,,,,,,,,,,,,,,,,right,1,160,30,190,0,2462.105219,2462.105219,2462.105219,None,None,1,1,0.1499409,,,,,,,,,,,,,,,,,,,,,,10,8,2,2024-10-20_17h02.44.274,uWM_experiment,2022.2.3,60.00438032
,,,,,,,,,,,,,,,,,,,,8,0,8,0,17,0,17,0,,,,,,,,,,,,,,,,,,,,,,,,,,,,,,,,,,,,,,,,,,,,,,,,,,,,,,,,,,,,,,,,,,,,,,0.093413657,,,,,,,,,,,,,,,,,,,,,,,,,,,,left,1,130,-30,100,1,2469.488849,2469.488849,2469.488849,None,None,1,1,0.4701187,,,,,,,,,,,,,,,,,,,,,,10,8,2,2024-10-20_17h02.44.274,uWM_experiment,2022.2.3,60.00438032
,,,,,,,,,,,,,,,,,,,,8,0,8,0,18,0,18,0,,,,,,,,,,,,,,,,,,,,,,,,,,,,,,,,,,,,,,,,,,,,,,,,,,,,,,,,,,,,,,,,,,,,,,0.103413657,,,,,,,,,,,,,,,,,,,,,,,,,,,,right,1,130,30,160,1,2475.789164,2475.789164,2475.789164,None,None,1,1,0.5858266,,,,,,,,,,,,,,,,,,,,,,10,8,2,2024-10-20_17h02.44.274,uWM_experiment,2022.2.3,60.00438032
,,,,,,,,,,,,,,,,,,,,8,0,8,0,19,0,19,0,,,,,,,,,,,,,,,,,,,,,,,,,,,,,,,,,,,,,,,,,,,,,,,,,,,,,,,,,,,,,,,,,,,,,,0.113413657,,,,,,,,,,,,,,,,,,,,,,,,,,,,left,1,10,-30,-20,1,2482.256047,2482.256047,2482.256047,None,None,2,0,0.1589244,,,,,,,,,,,,,,,,,,,,,,10,8,2,2024-10-20_17h02.44.274,uWM_experiment,2022.2.3,60.00438032
,,,,,,,,,,,,,,,,,,,,8,0,8,0,20,0,20,0,,,,,,,,,,,,,,,,,,,,,,,,,,,,,,,,,,,,,,,,,,,,,,,,,,,,,,,,,,,,,,,,,,,,,,0.103413657,,,,,,,,,,,,,,,,,,,,,,,,,,,,left,1,40,-30,10,1,2489.873061,2489.873061,2489.873061,None,None,2,0,0.1419506,,,,,,,,,,,,,,,,,,,,,,10,8,2,2024-10-20_17h02.44.274,uWM_experiment,2022.2.3,60.00438032
,,,,,,,,,,,,,,,,,,,,8,0,8,0,21,0,21,0,,,,,,,,,,,,,,,,,,,,,,,,,,,,,,,,,,,,,,,,,,,,,,,,,,,,,,,,,,,,,,,,,,,,,,0.093413657,,,,,,,,,,,,,,,,,,,,,,,,,,,,left,0,160,30,190,1,2496.67331,2496.67331,2496.67331,None,None,1,1,0.1337453,,,,,,,,,,,,,,,,,,,,,,10,8,2,2024-10-20_17h02.44.274,uWM_experiment,2022.2.3,60.00438032
,,,,,,,,,,,,,,,,,,,,8,0,8,0,22,0,22,0,,,,,,,,,,,,,,,,,,,,,,,,,,,,,,,,,,,,,,,,,,,,,,,,,,,,,,,,,,,,,,,,,,,,,,0.103413657,,,,,,,,,,,,,,,,,,,,,,,,,,,,left,1,130,-30,100,1,2502.723557,2502.723557,2502.723557,None,None,2,0,0.4274515,,,,,,,,,,,,,,,,,,,,,,10,8,2,2024-10-20_17h02.44.274,uWM_experiment,2022.2.3,60.00438032
,,,,,,,,,,,,,,,,,,,,8,0,8,0,23,0,23,0,,,,,,,,,,,,,,,,,,,,,,,,,,,,,,,,,,,,,,,,,,,,,,,,,,,,,,,,,,,,,,,,,,,,,,0.1,,,,,,,,,,,,,,,,,,,,,,,,,,,,left,1,40,-30,10,2,2509.673862,2509.673862,2509.673862,None,None,4,0,1.5331021,,,,,,,,,,,,,,,,,,,,,,10,8,2,2024-10-20_17h02.44.274,uWM_experiment,2022.2.3,60.00438032
,,,,,,,,,,,,,,,,,,,,8,0,8,0,,,,,0,0,0,0,,,,,,,,,,,,,,,,,,,,,,,,,,,,,,,,,,,,,,,,,,,,,,,,,,,,,,,,,,,,,,,,,,,,,,,,,,,,,,,,,,,,,,,,,,,,,,,,,,,,,,,,,,,,2511.223895,2511.223895,space,24.7350645,space,None,,2535.991578,2535.991578,4.2953658,,,,,,,,,,,,10,8,2,2024-10-20_17h02.44.274,uWM_experiment,2022.2.3,60.00438032
,,,,,,,,,,,,,,,,,,,,8,0,8,0,,,,,1,0,1,0,,,,,,,,,,,,,,,,,,,,,,,,,,,,,,,,,,,,,,,,,,,,,,,,,,,,,,,,,,,,,,,,,,,,,,,,,,,,,,,,,,,,,,,,,,,,,,,,,,,,,,,,,,,,,,,,,,,,,,,,,,,,,,,,,10,8,2,2024-10-20_17h02.44.274,uWM_experiment,2022.2.3,60.00438032
,,,,,,,,,,,,,,,,,,,,8,0,8,0,,,,,2,0,2,0,,,,,,,,,,,,,,,,,,,,,,,,,,,,,,,,,,,,,,,,,,,,,,,,,,,,,,,,,,,,,,,,,,,,,,,,,,,,,,,,,,,,,,,,,,,,,,,,,,,,,,,,,,,,,,,,,,,,,,,,,,,,,,,,,10,8,2,2024-10-20_17h02.44.274,uWM_experiment,2022.2.3,60.00438032
,,,,,,,,,,,,,,,,,,,,9,0,9,0,0,0,0,0,,,,,,,,,,,,,,,,,,,,,,,,,,,,,,,,,,,,,,,,,,,,,,,,,,,,,,,,,,,,,,,,,,,,,,0.1,,,,,,,,,,,,,,,,,,,,2540.308413,2541.008444,2541.308457,2542.008487,2542.3085,2543.008526,2543.008526,2543.325213,right,1,130,30,160,2,2548.175435,2548.175435,2548.175435,None,None,4,0,0.1512977,,,,,,,None,,,,,,,,,,,,,,,10,8,2,2024-10-20_17h02.44.274,uWM_experiment,2022.2.3,60.00438032
,,,,,,,,,,,,,,,,,,,,9,0,9,0,1,0,1,0,,,,,,,,,,,,,,,,,,,,,,,,,,,,,,,,,,,,,,,,,,,,,,,,,,,,,,,,,,,,,,,,,,,,,,0.093413657,,,,,,,,,,,,,,,,,,,,,,,,,,,,right,1,40,30,70,1,2554.409002,2554.409002,2554.409002,None,None,2,0,0.1977135,,,,,,,,,,,,,,,,,,,,,,10,8,2,2024-10-20_17h02.44.274,uWM_experiment,2022.2.3,60.00438032
,,,,,,,,,,,,,,,,,,,,9,0,9,0,2,0,2,0,,,,,,,,,,,,,,,,,,,,,,,,,,,,,,,,,,,,,,,,,,,,,,,,,,,,,,,,,,,,,,,,,,,,,,0.083413657,,,,,,,,,,,,,,,,,,,,,,,,,,,,left,1,40,-30,10,1,2560.359258,2560.359258,2560.359258,None,None,2,0,0.1434697,,,,,,,,,,,,,,,,,,,,,,10,8,2,2024-10-20_17h02.44.274,uWM_experiment,2022.2.3,60.00438032
,,,,,,,,,,,,,,,,,,,,9,0,9,0,3,0,3,0,,,,,,,,,,,,,,,,,,,,,,,,,,,,,,,,,,,,,,,,,,,,,,,,,,,,,,,,,,,,,,,,,,,,,,0.073413657,,,,,,,,,,,,,,,,,,,,,,,,,,,,left,1,40,-30,10,1,2566.142824,2566.142824,2566.142824,None,None,2,0,0.14387,,,,,,,,,,,,,,,,,,,,,,10,8,2,2024-10-20_17h02.44.274,uWM_experiment,2022.2.3,60.00438032
,,,,,,,,,,,,,,,,,,,,9,0,9,0,4,0,4,0,,,,,,,,,,,,,,,,,,,,,,,,,,,,,,,,,,,,,,,,,,,,,,,,,,,,,,,,,,,,,,,,,,,,,,0.063413657,,,,,,,,,,,,,,,,,,,,,,,,,,,,left,1,70,-30,40,1,2572.009698,2572.009698,2572.009698,None,None,2,0,0.1090447,,,,,,,,,,,,,,,,,,,,,,10,8,2,2024-10-20_17h02.44.274,uWM_experiment,2022.2.3,60.00438032
,,,,,,,,,,,,,,,,,,,,9,0,9,0,5,0,5,0,,,,,,,,,,,,,,,,,,,,,,,,,,,,,,,,,,,,,,,,,,,,,,,,,,,,,,,,,,,,,,,,,,,,,,0.053413657,,,,,,,,,,,,,,,,,,,,,,,,,,,,left,1,40,-30,10,1,2577.809972,2577.809972,2577.809972,None,None,2,0,0.1406732,,,,,,,,,,,,,,,,,,,,,,10,8,2,2024-10-20_17h02.44.274,uWM_experiment,2022.2.3,60.00438032
,,,,,,,,,,,,,,,,,,,,9,0,9,0,6,0,6,0,,,,,,,,,,,,,,,,,,,,,,,,,,,,,,,,,,,,,,,,,,,,,,,,,,,,,,,,,,,,,,,,,,,,,,0.043413657,,,,,,,,,,,,,,,,,,,,,,,,,,,,right,1,70,30,100,1,2583.760181,2583.760181,2583.760181,None,None,1,1,0.2065881,,,,,,,,,,,,,,,,,,,,,,10,8,2,2024-10-20_17h02.44.274,uWM_experiment,2022.2.3,60.00438032
,,,,,,,,,,,,,,,,,,,,9,0,9,0,7,0,7,0,,,,,,,,,,,,,,,,,,,,,,,,,,,,,,,,,,,,,,,,,,,,,,,,,,,,,,,,,,,,,,,,,,,,,,0.053413657,,,,,,,,,,,,,,,,,,,,,,,,,,,,left,1,160,-30,130,1,2590.743815,2590.743815,2590.743815,None,None,1,1,1.3749245,,,,,,,,,,,,,,,,,,,,,,10,8,2,2024-10-20_17h02.44.274,uWM_experiment,2022.2.3,60.00438032
,,,,,,,,,,,,,,,,,,,,9,0,9,0,8,0,8,0,,,,,,,,,,,,,,,,,,,,,,,,,,,,,,,,,,,,,,,,,,,,,,,,,,,,,,,,,,,,,,,,,,,,,,0.063413657,,,,,,,,,,,,,,,,,,,,,,,,,,,,right,0,40,-30,10,1,2598.744149,2598.744149,2598.744149,None,None,1,1,1.0544102,,,,,,,,,,,,,,,,,,,,,,10,8,2,2024-10-20_17h02.44.274,uWM_experiment,2022.2.3,60.00438032
,,,,,,,,,,,,,,,,,,,,9,0,9,0,9,0,9,0,,,,,,,,,,,,,,,,,,,,,,,,,,,,,,,,,,,,,,,,,,,,,,,,,,,,,,,,,,,,,,,,,,,,,,0,,,,,,,,,,,,,,,,,,,,,,,,,,,,right,0,70,-30,40,0,2605.294425,2605.294425,2605.294425,None,None,1,1,0.1602303,,,,,,,,,,,,,,,,,,,,,,10,8,2,2024-10-20_17h02.44.274,uWM_experiment,2022.2.3,60.00438032
,,,,,,,,,,,,,,,,,,,,9,0,9,0,10,0,10,0,,,,,,,,,,,,,,,,,,,,,,,,,,,,,,,,,,,,,,,,,,,,,,,,,,,,,,,,,,,,,,,,,,,,,,0,,,,,,,,,,,,,,,,,,,,,,,,,,,,right,0,130,-30,100,0,2611.461344,2611.461344,2611.461344,None,None,1,1,0.1532048,,,,,,,,,,,,,,,,,,,,,,10,8,2,2024-10-20_17h02.44.274,uWM_experiment,2022.2.3,60.00438032
,,,,,,,,,,,,,,,,,,,,9,0,9,0,11,0,11,0,,,,,,,,,,,,,,,,,,,,,,,,,,,,,,,,,,,,,,,,,,,,,,,,,,,,,,,,,,,,,,,,,,,,,,0.073413657,,,,,,,,,,,,,,,,,,,,,,,,,,,,right,0,10,-30,-20,1,2618.478284,2618.478284,2618.478284,None,None,1,1,0.2002908,,,,,,,,,,,,,,,,,,,,,,10,8,2,2024-10-20_17h02.44.274,uWM_experiment,2022.2.3,60.00438032
,,,,,,,,,,,,,,,,,,,,9,0,9,0,12,0,12,0,,,,,,,,,,,,,,,,,,,,,,,,,,,,,,,,,,,,,,,,,,,,,,,,,,,,,,,,,,,,,,,,,,,,,,0.083413657,,,,,,,,,,,,,,,,,,,,,,,,,,,,left,1,40,-30,10,1,2624.478533,2624.478533,2624.478533,None,None,2,0,0.4080167,,,,,,,,,,,,,,,,,,,,,,10,8,2,2024-10-20_17h02.44.274,uWM_experiment,2022.2.3,60.00438032
,,,,,,,,,,,,,,,,,,,,9,0,9,0,13,0,13,0,,,,,,,,,,,,,,,,,,,,,,,,,,,,,,,,,,,,,,,,,,,,,,,,,,,,,,,,,,,,,,,,,,,,,,0.073413657,,,,,,,,,,,,,,,,,,,,,,,,,,,,left,1,70,-30,40,1,2630.712103,2630.712103,2630.712103,None,None,2,0,0.5183763,,,,,,,,,,,,,,,,,,,,,,10,8,2,2024-10-20_17h02.44.274,uWM_experiment,2022.2.3,60.00438032
,,,,,,,,,,,,,,,,,,,,9,0,9,0,14,0,14,0,,,,,,,,,,,,,,,,,,,,,,,,,,,,,,,,,,,,,,,,,,,,,,,,,,,,,,,,,,,,,,,,,,,,,,0,,,,,,,,,,,,,,,,,,,,,,,,,,,,left,1,160,-30,130,0,2637.012374,2637.012374,2637.012374,None,None,1,1,0.218088,,,,,,,,,,,,,,,,,,,,,,10,8,2,2024-10-20_17h02.44.274,uWM_experiment,2022.2.3,60.00438032
,,,,,,,,,,,,,,,,,,,,9,0,9,0,15,0,15,0,,,,,,,,,,,,,,,,,,,,,,,,,,,,,,,,,,,,,,,,,,,,,,,,,,,,,,,,,,,,,,,,,,,,,,0.063413657,,,,,,,,,,,,,,,,,,,,,,,,,,,,left,1,40,-30,10,1,2642.962642,2642.962642,2642.962642,None,None,1,1,0.6357641,,,,,,,,,,,,,,,,,,,,,,10,8,2,2024-10-20_17h02.44.274,uWM_experiment,2022.2.3,60.00438032
,,,,,,,,,,,,,,,,,,,,9,0,9,0,16,0,16,0,,,,,,,,,,,,,,,,,,,,,,,,,,,,,,,,,,,,,,,,,,,,,,,,,,,,,,,,,,,,,,,,,,,,,,0,,,,,,,,,,,,,,,,,,,,,,,,,,,,left,0,70,30,100,0,2649.14622,2649.14622,2649.14622,None,None,1,1,0.7083364,,,,,,,,,,,,,,,,,,,,,,10,8,2,2024-10-20_17h02.44.274,uWM_experiment,2022.2.3,60.00438032
,,,,,,,,,,,,,,,,,,,,9,0,9,0,17,0,17,0,,,,,,,,,,,,,,,,,,,,,,,,,,,,,,,,,,,,,,,,,,,,,,,,,,,,,,,,,,,,,,,,,,,,,,0.073413657,,,,,,,,,,,,,,,,,,,,,,,,,,,,right,1,100,30,130,1,2655.879804,2655.879804,2655.879804,None,None,1,1,0.1666321,,,,,,,,,,,,,,,,,,,,,,10,8,2,2024-10-20_17h02.44.274,uWM_experiment,2022.2.3,60.00438032
,,,,,,,,,,,,,,,,,,,,9,0,9,0,18,0,18,0,,,,,,,,,,,,,,,,,,,,,,,,,,,,,,,,,,,,,,,,,,,,,,,,,,,,,,,,,,,,,,,,,,,,,,0.083413657,,,,,,,,,,,,,,,,,,,,,,,,,,,,right,1,70,30,100,1,2662.063394,2662.063394,2662.063394,None,None,2,0,0.6071382,,,,,,,,,,,,,,,,,,,,,,10,8,2,2024-10-20_17h02.44.274,uWM_experiment,2022.2.3,60.00438032
,,,,,,,,,,,,,,,,,,,,9,0,9,0,19,0,19,0,,,,,,,,,,,,,,,,,,,,,,,,,,,,,,,,,,,,,,,,,,,,,,,,,,,,,,,,,,,,,,,,,,,,,,0.073413657,,,,,,,,,,,,,,,,,,,,,,,,,,,,left,0,130,30,160,1,2668.613667,2668.613667,2668.613667,None,None,1,1,0.528759,,,,,,,,,,,,,,,,,,,,,,10,8,2,2024-10-20_17h02.44.274,uWM_experiment,2022.2.3,60.00438032
,,,,,,,,,,,,,,,,,,,,9,0,9,0,20,0,20,0,,,,,,,,,,,,,,,,,,,,,,,,,,,,,,,,,,,,,,,,,,,,,,,,,,,,,,,,,,,,,,,,,,,,,,0,,,,,,,,,,,,,,,,,,,,,,,,,,,,left,1,10,-30,-20,0,2674.813924,2674.813924,2674.813924,None,None,1,1,0.1684257,,,,,,,,,,,,,,,,,,,,,,10,8,2,2024-10-20_17h02.44.274,uWM_experiment,2022.2.3,60.00438032
,,,,,,,,,,,,,,,,,,,,9,0,9,0,21,0,21,0,,,,,,,,,,,,,,,,,,,,,,,,,,,,,,,,,,,,,,,,,,,,,,,,,,,,,,,,,,,,,,,,,,,,,,0,,,,,,,,,,,,,,,,,,,,,,,,,,,,left,0,100,30,130,0,2680.997498,2680.997498,2680.997498,None,None,1,1,0.1769078,,,,,,,,,,,,,,,,,,,,,,10,8,2,2024-10-20_17h02.44.274,uWM_experiment,2022.2.3,60.00438032
,,,,,,,,,,,,,,,,,,,,9,0,9,0,22,0,22,0,,,,,,,,,,,,,,,,,,,,,,,,,,,,,,,,,,,,,,,,,,,,,,,,,,,,,,,,,,,,,,,,,,,,,,0.083413657,,,,,,,,,,,,,,,,,,,,,,,,,,,,left,1,10,-30,-20,1,2686.881056,2686.881056,2686.881056,None,None,2,0,0.3812771,,,,,,,,,,,,,,,,,,,,,,10,8,2,2024-10-20_17h02.44.274,uWM_experiment,2022.2.3,60.00438032
,,,,,,,,,,,,,,,,,,,,9,0,9,0,23,0,23,0,,,,,,,,,,,,,,,,,,,,,,,,,,,,,,,,,,,,,,,,,,,,,,,,,,,,,,,,,,,,,,,,,,,,,,0.073413657,,,,,,,,,,,,,,,,,,,,,,,,,,,,right,1,40,30,70,1,2694.131358,2694.131358,2694.131358,None,None,1,1,0.3069702,,,,,,,,,,,,,,,,,,,,,,10,8,2,2024-10-20_17h02.44.274,uWM_experiment,2022.2.3,60.00438032
,,,,,,,,,,,,,,,,,,,,9,0,9,0,,,,,0,0,0,0,,,,,,,,,,,,,,,,,,,,,,,,,,,,,,,,,,,,,,,,,,,,,,,,,,,,,,,,,,,,,,,,,,,,,,,,,,,,,,,,,,,,,,,,,,,,,,,,,,,,,,,,,,,,2694.464707,2694.464707,space,17.1576192,None,None,,,,,,,,,,,,,,,,10,8,2,2024-10-20_17h02.44.274,uWM_experiment,2022.2.3,60.00438032
,,,,,,,,,,,,,,,,,,,,9,0,9,0,,,,,1,0,1,0,,,,,,,,,,,,,,,,,,,,,,,,,,,,,,,,,,,,,,,,,,,,,,,,,,,,,,,,,,,,,,,,,,,,,,,,,,,,,,,,,,,,,,,,,,,,,,,,,,,,,,,,,,,,,,,,,,,,,,,,,,,,,,,,,10,8,2,2024-10-20_17h02.44.274,uWM_experiment,2022.2.3,60.00438032
,,,,,,,,,,,,,,,,,,,,9,0,9,0,,,,,2,0,2,0,,,,,,,,,,,,,,,,,,,,,,,,,,,,,,,,,,,,,,,,,,,,,,,,,,,,,,,,,,,,,,,,,,,,,,,,,,,,,,,,,,,,,,,,,,,,,,,,,,,,,,,,,,,,,,,,,,,,,,,,,,,,,,,,,10,8,2,2024-10-20_17h02.44.274,uWM_experiment,2022.2.3,60.00438032
,,,,,,,,,,,,,,,,,,,,10,0,10,0,0,0,0,0,,,,,,,,,,,,,,,,,,,,,,,,,,,,,,,,,,,,,,,,,,,,,,,,,,,,,,,,,,,,,,,,,,,,,,0.1,,,,,,,,,,,,,,,,,,,,2711.648755,2712.348778,2712.64881,2713.348824,2713.64886,2714.348849,2714.348849,2714.665549,right,1,100,30,130,2,2719.682401,2719.682401,2719.682401,None,None,4,0,0.2677929,,,,,,,None,,,,,,,,,,,,,,,10,8,2,2024-10-20_17h02.44.274,uWM_experiment,2022.2.3,60.00438032
,,,,,,,,,,,,,,,,,,,,10,0,10,0,1,0,1,0,,,,,,,,,,,,,,,,,,,,,,,,,,,,,,,,,,,,,,,,,,,,,,,,,,,,,,,,,,,,,,,,,,,,,,0.083413657,,,,,,,,,,,,,,,,,,,,,,,,,,,,right,1,40,30,70,1,2725.849327,2725.849327,2725.849327,None,None,2,0,0.1169961,,,,,,,,,,,,,,,,,,,,,,10,8,2,2024-10-20_17h02.44.274,uWM_experiment,2022.2.3,60.00438032
,,,,,,,,,,,,,,,,,,,,10,0,10,0,2,0,2,0,,,,,,,,,,,,,,,,,,,,,,,,,,,,,,,,,,,,,,,,,,,,,,,,,,,,,,,,,,,,,,,,,,,,,,0,,,,,,,,,,,,,,,,,,,,,,,,,,,,left,1,130,-30,100,0,2731.616256,2731.616256,2731.616256,None,None,1,1,0.1579206,,,,,,,,,,,,,,,,,,,,,,10,8,2,2024-10-20_17h02.44.274,uWM_experiment,2022.2.3,60.00438032
,,,,,,,,,,,,,,,,,,,,10,0,10,0,3,0,3,0,,,,,,,,,,,,,,,,,,,,,,,,,,,,,,,,,,,,,,,,,,,,,,,,,,,,,,,,,,,,,,,,,,,,,,0.073413657,,,,,,,,,,,,,,,,,,,,,,,,,,,,left,0,100,30,130,1,2737.016471,2737.016471,2737.016471,None,None,1,1,0.1577653,,,,,,,,,,,,,,,,,,,,,,10,8,2,2024-10-20_17h02.44.274,uWM_experiment,2022.2.3,60.00438032
,,,,,,,,,,,,,,,,,,,,10,0,10,0,4,0,4,0,,,,,,,,,,,,,,,,,,,,,,,,,,,,,,,,,,,,,,,,,,,,,,,,,,,,,,,,,,,,,,,,,,,,,,0.083413657,,,,,,,,,,,,,,,,,,,,,,,,,,,,right,1,130,30,160,1,2742.916688,2742.916688,2742.916688,None,None,1,1,0.1455138,,,,,,,,,,,,,,,,,,,,,,10,8,2,2024-10-20_17h02.44.274,uWM_experiment,2022.2.3,60.00438032
,,,,,,,,,,,,,,,,,,,,10,0,10,0,5,0,5,0,,,,,,,,,,,,,,,,,,,,,,,,,,,,,,,,,,,,,,,,,,,,,,,,,,,,,,,,,,,,,,,,,,,,,,0.093413657,,,,,,,,,,,,,,,,,,,,,,,,,,,,right,1,100,30,130,1,2748.750272,2748.750272,2748.750272,None,None,1,1,0.1518581,,,,,,,,,,,,,,,,,,,,,,10,8,2,2024-10-20_17h02.44.274,uWM_experiment,2022.2.3,60.00438032
,,,,,,,,,,,,,,,,,,,,10,0,10,0,6,0,6,0,,,,,,,,,,,,,,,,,,,,,,,,,,,,,,,,,,,,,,,,,,,,,,,,,,,,,,,,,,,,,,,,,,,,,,0.103413657,,,,,,,,,,,,,,,,,,,,,,,,,,,,left,1,100,-30,70,1,2755.567236,2755.567236,2755.567236,None,None,2,0,0.2469903,,,,,,,,,,,,,,,,,,,,,,10,8,2,2024-10-20_17h02.44.274,uWM_experiment,2022.2.3,60.00438032
,,,,,,,,,,,,,,,,,,,,10,0,10,0,7,0,7,0,,,,,,,,,,,,,,,,,,,,,,,,,,,,,,,,,,,,,,,,,,,,,,,,,,,,,,,,,,,,,,,,,,,,,,0.093413657,,,,,,,,,,,,,,,,,,,,,,,,,,,,right,1,160,30,190,1,2761.600814,2761.600814,2761.600814,None,None,1,1,0.1011933,,,,,,,,,,,,,,,,,,,,,,10,8,2,2024-10-20_17h02.44.274,uWM_experiment,2022.2.3,60.00438032
,,,,,,,,,,,,,,,,,,,,10,0,10,0,8,0,8,0,,,,,,,,,,,,,,,,,,,,,,,,,,,,,,,,,,,,,,,,,,,,,,,,,,,,,,,,,,,,,,,,,,,,,,0,,,,,,,,,,,,,,,,,,,,,,,,,,,,left,0,70,30,100,0,2768.967759,2768.967759,2768.967759,None,None,1,1,2.6623874,,,,,,,,,,,,,,,,,,,,,,10,8,2,2024-10-20_17h02.44.274,uWM_experiment,2022.2.3,60.00438032
,,,,,,,,,,,,,,,,,,,,10,0,10,0,9,0,9,0,,,,,,,,,,,,,,,,,,,,,,,,,,,,,,,,,,,,,,,,,,,,,,,,,,,,,,,,,,,,,,,,,,,,,,0,,,,,,,,,,,,,,,,,,,,,,,,,,,,left,1,160,-30,130,0,2777.934794,2777.934794,2777.934794,None,None,1,1,0.3352186,,,,,,,,,,,,,,,,,,,,,,10,8,2,2024-10-20_17h02.44.274,uWM_experiment,2022.2.3,60.00438032
,,,,,,,,,,,,,,,,,,,,10,0,10,0,10,0,10,0,,,,,,,,,,,,,,,,,,,,,,,,,,,,,,,,,,,,,,,,,,,,,,,,,,,,,,,,,,,,,,,,,,,,,,0,,,,,,,,,,,,,,,,,,,,,,,,,,,,left,0,160,30,190,0,2783.735034,2783.735034,2783.735034,None,None,1,1,0.1430717,,,,,,,,,,,,,,,,,,,,,,10,8,2,2024-10-20_17h02.44.274,uWM_experiment,2022.2.3,60.00438032
,,,,,,,,,,,,,,,,,,,,10,0,10,0,11,0,11,0,,,,,,,,,,,,,,,,,,,,,,,,,,,,,,,,,,,,,,,,,,,,,,,,,,,,,,,,,,,,,,,,,,,,,,0,,,,,,,,,,,,,,,,,,,,,,,,,,,,left,1,100,-30,70,0,2789.185257,2789.185257,2789.185257,None,None,1,1,0.2287408,,,,,,,,,,,,,,,,,,,,,,10,8,2,2024-10-20_17h02.44.274,uWM_experiment,2022.2.3,60.00438032
,,,,,,,,,,,,,,,,,,,,10,0,10,0,12,0,12,0,,,,,,,,,,,,,,,,,,,,,,,,,,,,,,,,,,,,,,,,,,,,,,,,,,,,,,,,,,,,,,,,,,,,,,0,,,,,,,,,,,,,,,,,,,,,,,,,,,,left,1,130,-30,100,0,2794.952148,2794.952148,2794.952148,None,None,1,1,0.1739532,,,,,,,,,,,,,,,,,,,,,,10,8,2,2024-10-20_17h02.44.274,uWM_experiment,2022.2.3,60.00438032
,,,,,,,,,,,,,,,,,,,,10,0,10,0,13,0,13,0,,,,,,,,,,,,,,,,,,,,,,,,,,,,,,,,,,,,,,,,,,,,,,,,,,,,,,,,,,,,,,,,,,,,,,0.103413657,,,,,,,,,,,,,,,,,,,,,,,,,,,,right,1,100,30,130,1,2800.852381,2800.852381,2800.852381,None,None,1,1,0.1695116,,,,,,,,,,,,,,,,,,,,,,10,8,2,2024-10-20_17h02.44.274,uWM_experiment,2022.2.3,60.00438032
,,,,,,,,,,,,,,,,,,,,10,0,10,0,14,0,14,0,,,,,,,,,,,,,,,,,,,,,,,,,,,,,,,,,,,,,,,,,,,,,,,,,,,,,,,,,,,,,,,,,,,,,,0.113413657,,,,,,,,,,,,,,,,,,,,,,,,,,,,left,1,130,-30,100,1,2806.719312,2806.719312,2806.719312,None,None,1,1,0.238605,,,,,,,,,,,,,,,,,,,,,,10,8,2,2024-10-20_17h02.44.274,uWM_experiment,2022.2.3,60.00438032
