PreTrainingPAS4_loop.thisRepN,PreTrainingPAS4_loop.thisTrialN,PreTrainingPAS4_loop.thisN,PreTrainingPAS4_loop.thisIndex,PreTrainingPAS1_loop.thisRepN,PreTrainingPAS1_loop.thisTrialN,PreTrainingPAS1_loop.thisN,PreTrainingPAS1_loop.thisIndex,RepeatCV_loop.thisRepN,RepeatCV_loop.thisTrialN,RepeatCV_loop.thisN,RepeatCV_loop.thisIndex,TrainingCV_loop.thisRepN,TrainingCV_loop.thisTrialN,TrainingCV_loop.thisN,TrainingCV_loop.thisIndex,TrainingCAL_loop.thisRepN,TrainingCAL_loop.thisTrialN,TrainingCAL_loop.thisN,TrainingCAL_loop.thisIndex,blocks_loop.thisRepN,blocks_loop.thisTrialN,blocks_loop.thisN,blocks_loop.thisIndex,trials_loop.thisRepN,trials_loop.thisTrialN,trials_loop.thisN,trials_loop.thisIndex,TrainingPAS1_loop.thisRepN,TrainingPAS1_loop.thisTrialN,TrainingPAS1_loop.thisN,TrainingPAS1_loop.thisIndex,spacebarWelcome0.started,spacebarWelcome0.keys,spacebarWelcome0.rt,spacebarWelcome1.started,gaborWelcome1.started,maskWelcome1.started,textMaskWelcome1.started,spacebarWelcome1.keys,spacebarWelcome1.rt,spacebarWelcome2.started,spacebarWelcome2.keys,spacebarWelcome2.rt,textInst_PreTrainingPAS4.started,spacebarPreTrainingPAS4.started,spacebarPreTrainingPAS4.keys,spacebarPreTrainingPAS4.rt,textPreTrainingPAS1.started,spacebarPreTrainingPAS1.started,spacebarPreTrainingPAS1.keys,spacebarPreTrainingPAS1.rt,textQUEST0.started,spacebarQUEST0.started,spacebarQUEST0.keys,spacebarQUEST0.rt,spacebar0.started,spacebar0.keys,spacebar0.rt,spacebar1.started,spacebar1.keys,spacebar1.rt,textInstructions2.started,spacebar2.started,Gabor1Inst2.started,Gabor2Inst2.started,Gabor3Inst2.started,Gabor4Inst2.started,spacebar2.keys,spacebar2.rt,textInstructionsPAS.started,spacebarInstPAS.started,spacebarInstPAS.keys,spacebarInstPAS.rt,textInstructions3.started,spacebar3.started,spacebar3.keys,spacebar3.rt,WMresp_CV,WMresp_CV_acc,oriMemo_CV,gyre_CV,oriTest_CV,feedbackText.started,sliderCV.started,PAStextCV.started,PASkeyCV.started,sliderCV.response,sliderCV.rt,PASkeyCV.keys,PASkeyCV.corr,PASkeyCV.rt,feedbackText.stopped,TextInstructionsCAL.started,spacebarCAL.started,spacebarCAL.keys,spacebarCAL.rt,contrast,WMresp_CAL,WMresp_CAL_acc,oriMemo_CAL,gyre_CAL,oriTest_CAL,cue_CAL,sliderCAL.started,PAStextCAL.started,PASkeyCAL.started,sliderCAL.response,sliderCAL.rt,PASkeyCAL.keys,PASkeyCAL.corr,PASkeyCAL.rt,propUnseen_CAL,textStart.started,spacebar4.started,spacebar4.keys,spacebar4.rt,three.started,three.stopped,two.started,two.stopped,one.started,one.stopped,blank_countdown.started,blank_countdown.stopped,WMresp,WMresp_acc,oriMemo,gyre,oriTest,cue,slider.started,textPAS_firstGabor.started,PASkey.started,slider.response,slider.rt,PASkey.keys,PASkey.corr,PASkey.rt,spacebarContinue.started,textBreak.started,spacebarContinue.keys,spacebarContinue.rt,spacebar_reminder.keys,spacebar_TrainingPAS1.keys,spacebar_endpractice.keys,spacebar_reminder.started,textReminder.started,spacebar_reminder.rt,textInst_TrainingPAS1.started,spacebar_TrainingPAS1.started,spacebar_TrainingPAS1.rt,textend_practicePAS1.started,spacebar_endpractice.started,spacebar_endpractice.rt,textThanks.started,textThanks.stopped,laboratory,participant,session,date,expName,psychopyVersion,frameRate
,,,,,,,,,,,,,,,,,,,,,,,,,,,,,,,,3679.029135,space,4.9510098,,,,,,,,,,,,,,,,,,,,,,,,,,,,,,,,,,,,,,,,,,,,,,,,,,,,,,,,,,,,,,,,,,,,,,,,,,,,,,,,,,,,,,,,,,,,,,,,,,,,,,,,,,,,,,,,,,,,,,,,,,,10,9,1,2024-10-21_10h49.03.988,uWM_experiment,2022.2.3,59.992249
,,,,,,,,,,,,,,,,,,,,,,,,,,,,,,,,,,,3684.029089,3684.029089,3684.029089,3684.029089,space,23.2068925,,,,,,,,,,,,,,,,,,,,,,,,,,,,,,,,,,,,,,,,,,,,,,,,,,,,,,,,,,,,,,,,,,,,,,,,,,,,,,,,,,,,,,,,,,,,,,,,,,,,,,,,,,,,,,,,,,,,,10,9,1,2024-10-21_10h49.03.988,uWM_experiment,2022.2.3,59.992249
,,,,,,,,,,,,,,,,,,,,,,,,,,,,,,,,,,,,,,,,,3707.263352,space,23.2605008,,,,,,,,,,,,,,,,,,,,,,,,,,,,,,,,,,,,,,,,,,,,,,,,,,,,,,,,,,,,,,,,,,,,,,,,,,,,,,,,,,,,,,,,,,,,,,,,,,,,,,,,,,,,,,,,,,10,9,1,2024-10-21_10h49.03.988,uWM_experiment,2022.2.3,59.992249
,,,,,,,,,,,,,,,,,,,,,,,,,,,,,,,,,,,,,,,,,,,,3730.547624,3730.547624,space,17.1361459,,,,,,,,,,,,,,,,,,,,,,,,,,,,,,,,,,,,,,,,,,,,,,,,,,,,,,,,,,,,,,,,,,,,,,,,,,,,,,,,,,,,,,,,,,,,,,,,,,,,,,,,,,,,,,10,9,1,2024-10-21_10h49.03.988,uWM_experiment,2022.2.3,59.992249
0,0,0,0,,,,,,,,,,,,,,,,,,,,,,,,,,,,,,,,,,,,,,,,,,,,,,,,,,,,,,,,,,,,,,,,,,,,,,,,,,,,,,,,,,,,,,,,,,,,,,,,,,,,,,,,,,,,,,,,,,,,,,,,,,,,,,,,,,,,,,,,,,,,,,,,,,,,,,,,,,10,9,1,2024-10-21_10h49.03.988,uWM_experiment,2022.2.3,59.992249
1,0,1,0,,,,,,,,,,,,,,,,,,,,,,,,,,,,,,,,,,,,,,,,,,,,,,,,,,,,,,,,,,,,,,,,,,,,,,,,,,,,,,,,,,,,,,,,,,,,,,,,,,,,,,,,,,,,,,,,,,,,,,,,,,,,,,,,,,,,,,,,,,,,,,,,,,,,,,,,,,10,9,1,2024-10-21_10h49.03.988,uWM_experiment,2022.2.3,59.992249
2,0,2,0,,,,,,,,,,,,,,,,,,,,,,,,,,,,,,,,,,,,,,,,,,,,,,,,,,,,,,,,,,,,,,,,,,,,,,,,,,,,,,,,,,,,,,,,,,,,,,,,,,,,,,,,,,,,,,,,,,,,,,,,,,,,,,,,,,,,,,,,,,,,,,,,,,,,,,,,,,10,9,1,2024-10-21_10h49.03.988,uWM_experiment,2022.2.3,59.992249
,,,,,,,,,,,,,,,,,,,,,,,,,,,,,,,,,,,,,,,,,,,,,,,,3766.382421,3766.382421,space,25.229311,,,,,,,,,,,,,,,,,,,,,,,,,,,,,,,,,,,,,,,,,,,,,,,,,,,,,,,,,,,,,,,,,,,,,,,,,,,,,,,,,,,,,,,,,,,,,,,,,,,,,,,,,,10,9,1,2024-10-21_10h49.03.988,uWM_experiment,2022.2.3,59.992249
,,,,0,0,0,0,,,,,,,,,,,,,,,,,,,,,,,,,,,,,,,,,,,,,,,,,,,,,,,,,,,,,,,,,,,,,,,,,,,,,,,,,,,,,,,,,,,,,,,,,,,,,,,,,,,,,,,,,,,,,,,,,,,,,,,,,,,,,,,,,,,,,,,,,,,,,,,,,,,,,,10,9,1,2024-10-21_10h49.03.988,uWM_experiment,2022.2.3,59.992249
,,,,1,0,1,0,,,,,,,,,,,,,,,,,,,,,,,,,,,,,,,,,,,,,,,,,,,,,,,,,,,,,,,,,,,,,,,,,,,,,,,,,,,,,,,,,,,,,,,,,,,,,,,,,,,,,,,,,,,,,,,,,,,,,,,,,,,,,,,,,,,,,,,,,,,,,,,,,,,,,,10,9,1,2024-10-21_10h49.03.988,uWM_experiment,2022.2.3,59.992249
,,,,2,0,2,0,,,,,,,,,,,,,,,,,,,,,,,,,,,,,,,,,,,,,,,,,,,,,,,,,,,,,,,,,,,,,,,,,,,,,,,,,,,,,,,,,,,,,,,,,,,,,,,,,,,,,,,,,,,,,,,,,,,,,,,,,,,,,,,,,,,,,,,,,,,,,,,,,,,,,,10,9,1,2024-10-21_10h49.03.988,uWM_experiment,2022.2.3,59.992249
,,,,,,,,,,,,,,,,,,,,,,,,,,,,,,,,,,,,,,,,,,,,,,,,,,,,3802.383889,3802.383889,space,47.131532,,,,,,,,,,,,,,,,,,,,,,,,,,,,,,,,,,,,,,,,,,,,,,,,,,,,,,,,,,,,,,,,,,,,,,,,,,,,,,,,,,,,,,,,,,,,,,,,,,,,,,10,9,1,2024-10-21_10h49.03.988,uWM_experiment,2022.2.3,59.992249
,,,,,,,,,,,,,,,,,,,,,,,,,,,,,,,,,,,,,,,,,,,,,,,,,,,,,,,,4001.675359,space,15.5756299,,,,,,,,,,,,,,,,,,,,,,,,,,,,,,,,,,,,,,,,,,,,,,,,,,,,,,,,,,,,,,,,,,,,,,,,,,,,,,,,,,,,,,,,,,,,,,,,,,,10,9,1,2024-10-21_10h49.03.988,uWM_experiment,2022.2.3,59.992249
,,,,,,,,,,,,,,,,,,,,,,,,,,,,,,,,,,,,,,,,,,,,,,,,,,,,,,,,,,,4017.276004,space,86.9266357,,,,,,,,,,,,,,,,,,,,,,,,,,,,,,,,,,,,,,,,,,,,,,,,,,,,,,,,,,,,,,,,,,,,,,,,,,,,,,,,,,,,,,,,,,,,,,,,10,9,1,2024-10-21_10h49.03.988,uWM_experiment,2022.2.3,59.992249
,,,,,,,,,,,,,,,,,,,,,,,,,,,,,,,,,,,,,,,,,,,,,,,,,,,,,,,,,,,,,,4104.229567,4104.229567,4104.229567,4104.229567,4104.229567,4104.229567,space,44.4689595,,,,,,,,,,,,,,,,,,,,,,,,,,,,,,,,,,,,,,,,,,,,,,,,,,,,,,,,,,,,,,,,,,,,,,,,,,,,,,,,,,,,,,,,10,9,1,2024-10-21_10h49.03.988,uWM_experiment,2022.2.3,59.992249
,,,,,,,,,,,,,,,,,,,,,,,,,,,,,,,,,,,,,,,,,,,,,,,,,,,,,,,,,,,,,,,,,,,,,,4148.73139,4148.73139,space,17.5111326,,,,,,,,,,,,,,,,,,,,,,,,,,,,,,,,,,,,,,,,,,,,,,,,,,,,,,,,,,,,,,,,,,,,,,,,,,,,,,,,,,,,10,9,1,2024-10-21_10h49.03.988,uWM_experiment,2022.2.3,59.992249
,,,,,,,,,,,,,,,,,,,,,,,,,,,,,,,,,,,,,,,,,,,,,,,,,,,,,,,,,,,,,,,,,,,,,,,,,,4166.265449,4166.265449,space,18.2169552,,,,,,,,,,,,,,,,,,,,,,,,,,,,,,,,,,,,,,,,,,,,,,,,,,,,,,,,,,,,,,,,,,,,,,,,,,,,,,,,10,9,1,2024-10-21_10h49.03.988,uWM_experiment,2022.2.3,59.992249
,,,,,,,,0,0,0,0,0,0,0,0,,,,,,,,,,,,,,,,,,,,,,,,,,,,,,,,,,,,,,,,,,,,,,,,,,,,,,,,,,,,,,,right,0,70,-30,40,4192.399849,4193.399898,4193.399898,4193.399898,None,None,3,0,6.9145272,,,,,,,,,,,,,,,,,,,,,,,,,,,,,,,,,,,,,,,,,,,,,,,,,,,,,,,,,,,,,,,,,,10,9,1,2024-10-21_10h49.03.988,uWM_experiment,2022.2.3,59.992249
,,,,,,,,0,0,0,0,1,0,1,0,,,,,,,,,,,,,,,,,,,,,,,,,,,,,,,,,,,,,,,,,,,,,,,,,,,,,,,,,,,,,,,right,1,40,30,70,4207.050489,4208.050497,4208.050497,4208.050497,None,None,4,0,2.7918444,4208.050497,,,,,,,,,,,,,,,,,,,,,,,,,,,,,,,,,,,,,,,,,,,,,,,,,,,,,,,,,,,,,,,,,10,9,1,2024-10-21_10h49.03.988,uWM_experiment,2022.2.3,59.992249
,,,,,,,,0,0,0,0,2,0,2,0,,,,,,,,,,,,,,,,,,,,,,,,,,,,,,,,,,,,,,,,,,,,,,,,,,,,,,,,,,,,,,,left,0,10,30,40,4224.734552,4225.734555,4225.734555,4225.734555,None,None,4,0,17.979599,,,,,,,,,,,,,,,,,,,,,,,,,,,,,,,,,,,,,,,,,,,,,,,,,,,,,,,,,,,,,,,,,,10,9,1,2024-10-21_10h49.03.988,uWM_experiment,2022.2.3,59.992249
,,,,,,,,0,0,0,0,3,0,3,0,,,,,,,,,,,,,,,,,,,,,,,,,,,,,,,,,,,,,,,,,,,,,,,,,,,,,,,,,,,,,,,right,0,40,-30,10,4250.06887,4251.068931,4251.068931,4251.068931,None,None,4,0,6.2852674,,,,,,,,,,,,,,,,,,,,,,,,,,,,,,,,,,,,,,,,,,,,,,,,,,,,,,,,,,,,,,,,,,10,9,1,2024-10-21_10h49.03.988,uWM_experiment,2022.2.3,59.992249
,,,,,,,,0,0,0,0,4,0,4,0,,,,,,,,,,,,,,,,,,,,,,,,,,,,,,,,,,,,,,,,,,,,,,,,,,,,,,,,,,,,,,,left,1,100,-30,70,4288.903963,4289.903852,4289.903852,4289.903852,None,None,4,0,1.6261455,4289.903852,,,,,,,,,,,,,,,,,,,,,,,,,,,,,,,,,,,,,,,,,,,,,,,,,,,,,,,,,,,,,,,,,10,9,1,2024-10-21_10h49.03.988,uWM_experiment,2022.2.3,59.992249
,,,,,,,,0,0,0,0,5,0,5,0,,,,,,,,,,,,,,,,,,,,,,,,,,,,,,,,,,,,,,,,,,,,,,,,,,,,,,,,,,,,,,,right,1,10,30,40,4304.02111,4305.021139,4305.021139,4305.021139,None,None,4,0,1.3969101,4305.021139,,,,,,,,,,,,,,,,,,,,,,,,,,,,,,,,,,,,,,,,,,,,,,,,,,,,,,,,,,,,,,,,,10,9,1,2024-10-21_10h49.03.988,uWM_experiment,2022.2.3,59.992249
,,,,,,,,0,0,0,0,6,0,6,0,,,,,,,,,,,,,,,,,,,,,,,,,,,,,,,,,,,,,,,,,,,,,,,,,,,,,,,,,,,,,,,right,1,130,30,160,4313.754835,4314.754873,4314.754873,4314.754873,None,None,4,0,1.0471062,4314.754873,,,,,,,,,,,,,,,,,,,,,,,,,,,,,,,,,,,,,,,,,,,,,,,,,,,,,,,,,,,,,,,,,10,9,1,2024-10-21_10h49.03.988,uWM_experiment,2022.2.3,59.992249
,,,,,,,,0,0,0,0,7,0,7,0,,,,,,,,,,,,,,,,,,,,,,,,,,,,,,,,,,,,,,,,,,,,,,,,,,,,,,,,,,,,,,,right,1,130,30,160,4322.038523,4323.038543,4323.038543,4323.038543,None,None,4,0,0.6754371,4323.038543,,,,,,,,,,,,,,,,,,,,,,,,,,,,,,,,,,,,,,,,,,,,,,,,,,,,,,,,,,,,,,,,,10,9,1,2024-10-21_10h49.03.988,uWM_experiment,2022.2.3,59.992249
,,,,,,,,0,0,0,0,8,0,8,0,,,,,,,,,,,,,,,,,,,,,,,,,,,,,,,,,,,,,,,,,,,,,,,,,,,,,,,,,,,,,,,left,1,40,-30,10,4330.072189,4331.072208,4331.072208,4331.072208,None,None,4,0,0.6817146,4331.072208,,,,,,,,,,,,,,,,,,,,,,,,,,,,,,,,,,,,,,,,,,,,,,,,,,,,,,,,,,,,,,,,,10,9,1,2024-10-21_10h49.03.988,uWM_experiment,2022.2.3,59.992249
,,,,,,,,0,0,0,0,9,0,9,0,,,,,,,,,,,,,,,,,,,,,,,,,,,,,,,,,,,,,,,,,,,,,,,,,,,,,,,,,,,,,,,right,1,160,30,190,4338.322527,4339.322547,4339.322547,4339.322547,None,None,4,0,1.3032838,4339.322547,,,,,,,,,,,,,,,,,,,,,,,,,,,,,,,,,,,,,,,,,,,,,,,,,,,,,,,,,,,,,,,,,10,9,1,2024-10-21_10h49.03.988,uWM_experiment,2022.2.3,59.992249
,,,,,,,,0,0,0,0,10,0,10,0,,,,,,,,,,,,,,,,,,,,,,,,,,,,,,,,,,,,,,,,,,,,,,,,,,,,,,,,,,,,,,,right,1,10,30,40,4346.939575,4347.939555,4347.939555,4347.939555,None,None,4,0,1.0783172,4347.939555,,,,,,,,,,,,,,,,,,,,,,,,,,,,,,,,,,,,,,,,,,,,,,,,,,,,,,,,,,,,,,,,,10,9,1,2024-10-21_10h49.03.988,uWM_experiment,2022.2.3,59.992249
,,,,,,,,0,0,0,0,11,0,11,0,,,,,,,,,,,,,,,,,,,,,,,,,,,,,,,,,,,,,,,,,,,,,,,,,,,,,,,,,,,,,,,left,1,70,-30,40,4355.489888,4356.489958,4356.489958,4356.489958,None,None,4,0,0.6399249,4356.489958,,,,,,,,,,,,,,,,,,,,,,,,,,,,,,,,,,,,,,,,,,,,,,,,,,,,,,,,,,,,,,,,,10,9,1,2024-10-21_10h49.03.988,uWM_experiment,2022.2.3,59.992249
,,,,,,,,0,0,0,0,,,,,,,,,,,,,,,,,,,,,,,,,,,,,,,,,,,,,,,,,,,,,,,,,,,,,,,,,,,,,,,,,,,,,,,,,,,,,,,,,,,,,,,,,,,,,,,,,,,,,,,,,,,,,,,,,,,,,,,,,,,,,,,,,,,,,,,,,,,,,,,,,,10,9,1,2024-10-21_10h49.03.988,uWM_experiment,2022.2.3,59.992249
,,,,,,,,,,,,,,,,,,,,,,,,,,,,,,,,,,,,,,,,,,,,,,,,,,,,,,,,,,,,,,,,,,,,,,,,,,,,,,,,,,,,,,,,,,,,,4371.290539,4371.290539,space,34.2233021,,,,,,,,,,,,,,,,,,,,,,,,,,,,,,,,,,,,,,,,,,,,,,,,,,,,,,,,,,,,,10,9,1,2024-10-21_10h49.03.988,uWM_experiment,2022.2.3,59.992249
,,,,,,,,,,,,,,,,0,0,0,0,,,,,,,,,,,,,,,,,,,,,,,,,,,,,,,,,,,,,,,,,,,,,,,,,,,,,,,,,,,,,,,,,,,,,,,,,,,,,,0.064838831,left,1,70,-30,40,1,4411.758866,4411.758866,4411.758866,None,None,3,0,6.4108442,,,,,,,,,,,,,,,,,,,,,,,,,,,,,,,,,,,,,,,,,,,,,,10,9,1,2024-10-21_10h49.03.988,uWM_experiment,2022.2.3,59.992249
,,,,,,,,,,,,,,,,1,0,1,0,,,,,,,,,,,,,,,,,,,,,,,,,,,,,,,,,,,,,,,,,,,,,,,,,,,,,,,,,,,,,,,,,,,,,,,,,,,,,,0.1,right,1,130,30,160,2,4424.326026,4424.326026,4424.326026,None,None,4,0,1.9714945,0,,,,,,,,,,,,,,,,,,,,,,,,,,,,,,,,,,,,,,,,,,,,,10,9,1,2024-10-21_10h49.03.988,uWM_experiment,2022.2.3,59.992249
,,,,,,,,,,,,,,,,2,0,2,0,,,,,,,,,,,,,,,,,,,,,,,,,,,,,,,,,,,,,,,,,,,,,,,,,,,,,,,,,,,,,,,,,,,,,,,,,,,,,,0.1,left,1,40,-30,10,2,4433.026381,4433.026381,4433.026381,None,None,4,0,1.9111663,0,,,,,,,,,,,,,,,,,,,,,,,,,,,,,,,,,,,,,,,,,,,,,10,9,1,2024-10-21_10h49.03.988,uWM_experiment,2022.2.3,59.992249
,,,,,,,,,,,,,,,,3,0,3,0,,,,,,,,,,,,,,,,,,,,,,,,,,,,,,,,,,,,,,,,,,,,,,,,,,,,,,,,,,,,,,,,,,,,,,,,,,,,,,0.054838831,left,1,10,-30,-20,1,4451.510466,4451.510466,4451.510466,None,None,1,1,1.6030409,0,,,,,,,,,,,,,,,,,,,,,,,,,,,,,,,,,,,,,,,,,,,,,10,9,1,2024-10-21_10h49.03.988,uWM_experiment,2022.2.3,59.992249
,,,,,,,,,,,,,,,,4,0,4,0,,,,,,,,,,,,,,,,,,,,,,,,,,,,,,,,,,,,,,,,,,,,,,,,,,,,,,,,,,,,,,,,,,,,,,,,,,,,,,0.064838831,right,1,100,30,130,1,4460.427508,4460.427508,4460.427508,None,None,3,0,6.3500421,0.25,,,,,,,,,,,,,,,,,,,,,,,,,,,,,,,,,,,,,,,,,,,,,10,9,1,2024-10-21_10h49.03.988,uWM_experiment,2022.2.3,59.992249
,,,,,,,,,,,,,,,,5,0,5,0,,,,,,,,,,,,,,,,,,,,,,,,,,,,,,,,,,,,,,,,,,,,,,,,,,,,,,,,,,,,,,,,,,,,,,,,,,,,,,0.054838831,left,1,70,-30,40,1,4473.128028,4473.128028,4473.128028,None,None,2,0,1.4814992,0.2,,,,,,,,,,,,,,,,,,,,,,,,,,,,,,,,,,,,,,,,,,,,,10,9,1,2024-10-21_10h49.03.988,uWM_experiment,2022.2.3,59.992249
,,,,,,,,,,,,,,,,6,0,6,0,,,,,,,,,,,,,,,,,,,,,,,,,,,,,,,,,,,,,,,,,,,,,,,,,,,,,,,,,,,,,,,,,,,,,,,,,,,,,,0.1,right,1,160,30,190,2,4481.42835,4481.42835,4481.42835,None,None,4,0,0.9250977,0.166666667,,,,,,,,,,,,,,,,,,,,,,,,,,,,,,,,,,,,,,,,,,,,,10,9,1,2024-10-21_10h49.03.988,uWM_experiment,2022.2.3,59.992249
,,,,,,,,,,,,,,,,7,0,7,0,,,,,,,,,,,,,,,,,,,,,,,,,,,,,,,,,,,,,,,,,,,,,,,,,,,,,,,,,,,,,,,,,,,,,,,,,,,,,,0.044838831,left,0,100,30,130,1,4491.545425,4491.545425,4491.545425,None,None,2,0,2.0959945,0.142857143,,,,,,,,,,,,,,,,,,,,,,,,,,,,,,,,,,,,,,,,,,,,,10,9,1,2024-10-21_10h49.03.988,uWM_experiment,2022.2.3,59.992249
,,,,,,,,,,,,,,,,8,0,8,0,,,,,,,,,,,,,,,,,,,,,,,,,,,,,,,,,,,,,,,,,,,,,,,,,,,,,,,,,,,,,,,,,,,,,,,,,,,,,,0.1,right,1,100,30,130,2,4500.42915,4500.42915,4500.42915,None,None,4,0,1.79625,0.125,,,,,,,,,,,,,,,,,,,,,,,,,,,,,,,,,,,,,,,,,,,,,10,9,1,2024-10-21_10h49.03.988,uWM_experiment,2022.2.3,59.992249
,,,,,,,,,,,,,,,,9,0,9,0,,,,,,,,,,,,,,,,,,,,,,,,,,,,,,,,,,,,,,,,,,,,,,,,,,,,,,,,,,,,,,,,,,,,,,,,,,,,,,0.034838831,right,1,160,30,190,1,4509.779529,4509.779529,4509.779529,None,None,1,1,1.2298731,0.111111111,,,,,,,,,,,,,,,,,,,,,,,,,,,,,,,,,,,,,,,,,,,,,10,9,1,2024-10-21_10h49.03.988,uWM_experiment,2022.2.3,59.992249
,,,,,,,,,,,,,,,,10,0,10,0,,,,,,,,,,,,,,,,,,,,,,,,,,,,,,,,,,,,,,,,,,,,,,,,,,,,,,,,,,,,,,,,,,,,,,,,,,,,,,0.044838831,left,1,130,-30,100,1,4517.579828,4517.579828,4517.579828,None,None,2,0,1.9174382,0.2,,,,,,,,,,,,,,,,,,,,,,,,,,,,,,,,,,,,,,,,,,,,,10,9,1,2024-10-21_10h49.03.988,uWM_experiment,2022.2.3,59.992249
,,,,,,,,,,,,,,,,11,0,11,0,,,,,,,,,,,,,,,,,,,,,,,,,,,,,,,,,,,,,,,,,,,,,,,,,,,,,,,,,,,,,,,,,,,,,,,,,,,,,,0.1,left,1,40,-30,10,2,4526.163536,4526.163536,4526.163536,None,None,4,0,1.5016859,0.181818182,,,,,,,,,,,,,,,,,,,,,,,,,,,,,,,,,,,,,,,,,,,,,10,9,1,2024-10-21_10h49.03.988,uWM_experiment,2022.2.3,59.992249
,,,,,,,,,,,,,,,,12,0,12,0,,,,,,,,,,,,,,,,,,,,,,,,,,,,,,,,,,,,,,,,,,,,,,,,,,,,,,,,,,,,,,,,,,,,,,,,,,,,,,0.1,left,1,40,-30,10,2,4533.830496,4533.830496,4533.830496,None,None,4,0,1.2268558,0.166666667,,,,,,,,,,,,,,,,,,,,,,,,,,,,,,,,,,,,,,,,,,,,,10,9,1,2024-10-21_10h49.03.988,uWM_experiment,2022.2.3,59.992249
,,,,,,,,,,,,,,,,13,0,13,0,,,,,,,,,,,,,,,,,,,,,,,,,,,,,,,,,,,,,,,,,,,,,,,,,,,,,,,,,,,,,,,,,,,,,,,,,,,,,,0.1,right,1,100,30,130,2,4541.214124,4541.214124,4541.214124,None,None,4,0,1.0270902,0.153846154,,,,,,,,,,,,,,,,,,,,,,,,,,,,,,,,,,,,,,,,,,,,,10,9,1,2024-10-21_10h49.03.988,uWM_experiment,2022.2.3,59.992249
,,,,,,,,,,,,,,,,14,0,14,0,,,,,,,,,,,,,,,,,,,,,,,,,,,,,,,,,,,,,,,,,,,,,,,,,,,,,,,,,,,,,,,,,,,,,,,,,,,,,,0.1,left,1,10,-30,-20,2,4548.431085,4548.431085,4548.431085,None,None,4,0,1.4101525,0.142857143,,,,,,,,,,,,,,,,,,,,,,,,,,,,,,,,,,,,,,,,,,,,,10,9,1,2024-10-21_10h49.03.988,uWM_experiment,2022.2.3,59.992249
,,,,,,,,,,,,,,,,15,0,15,0,,,,,,,,,,,,,,,,,,,,,,,,,,,,,,,,,,,,,,,,,,,,,,,,,,,,,,,,,,,,,,,,,,,,,,,,,,,,,,0.1,right,1,130,30,160,2,4556.214769,4556.214769,4556.214769,None,None,4,0,1.3784662,0.133333333,,,,,,,,,,,,,,,,,,,,,,,,,,,,,,,,,,,,,,,,,,,,,10,9,1,2024-10-21_10h49.03.988,uWM_experiment,2022.2.3,59.992249
,,,,,,,,,,,,,,,,16,0,16,0,,,,,,,,,,,,,,,,,,,,,,,,,,,,,,,,,,,,,,,,,,,,,,,,,,,,,,,,,,,,,,,,,,,,,,,,,,,,,,0.1,left,1,160,-30,130,2,4564.115086,4564.115086,4564.115086,None,None,4,0,0.598103,0.125,,,,,,,,,,,,,,,,,,,,,,,,,,,,,,,,,,,,,,,,,,,,,10,9,1,2024-10-21_10h49.03.988,uWM_experiment,2022.2.3,59.992249
,,,,,,,,,,,,,,,,17,0,17,0,,,,,,,,,,,,,,,,,,,,,,,,,,,,,,,,,,,,,,,,,,,,,,,,,,,,,,,,,,,,,,,,,,,,,,,,,,,,,,0.1,right,1,130,30,160,2,4570.748658,4570.748658,4570.748658,None,None,4,0,0.5166237,0.117647059,,,,,,,,,,,,,,,,,,,,,,,,,,,,,,,,,,,,,,,,,,,,,10,9,1,2024-10-21_10h49.03.988,uWM_experiment,2022.2.3,59.992249
,,,,,,,,,,,,,,,,18,0,18,0,,,,,,,,,,,,,,,,,,,,,,,,,,,,,,,,,,,,,,,,,,,,,,,,,,,,,,,,,,,,,,,,,,,,,,,,,,,,,,0.034838831,right,0,40,-30,10,1,4577.532324,4577.532324,4577.532324,None,None,1,1,0.8127771,0.111111111,,,,,,,,,,,,,,,,,,,,,,,,,,,,,,,,,,,,,,,,,,,,,10,9,1,2024-10-21_10h49.03.988,uWM_experiment,2022.2.3,59.992249
,,,,,,,,,,,,,,,,19,0,19,0,,,,,,,,,,,,,,,,,,,,,,,,,,,,,,,,,,,,,,,,,,,,,,,,,,,,,,,,,,,,,,,,,,,,,,,,,,,,,,0.1,left,0,70,30,100,2,4586.666011,4586.666011,4586.666011,None,None,4,0,1.4791583,0.157894737,,,,,,,,,,,,,,,,,,,,,,,,,,,,,,,,,,,,,,,,,,,,,10,9,1,2024-10-21_10h49.03.988,uWM_experiment,2022.2.3,59.992249
,,,,,,,,,,,,,,,,20,0,20,0,,,,,,,,,,,,,,,,,,,,,,,,,,,,,,,,,,,,,,,,,,,,,,,,,,,,,,,,,,,,,,,,,,,,,,,,,,,,,,0.044838831,left,0,70,30,100,1,4594.732998,4594.732998,4594.732998,None,None,1,1,0.7241361,0.15,,,,,,,,,,,,,,,,,,,,,,,,,,,,,,,,,,,,,,,,,,,,,10,9,1,2024-10-21_10h49.03.988,uWM_experiment,2022.2.3,59.992249
,,,,,,,,,,,,,,,,21,0,21,0,,,,,,,,,,,,,,,,,,,,,,,,,,,,,,,,,,,,,,,,,,,,,,,,,,,,,,,,,,,,,,,,,,,,,,,,,,,,,,0.054838831,left,0,160,30,190,1,4602.283307,4602.283307,4602.283307,None,None,2,0,7.9177187,0.19047619,,,,,,,,,,,,,,,,,,,,,,,,,,,,,,,,,,,,,,,,,,,,,10,9,1,2024-10-21_10h49.03.988,uWM_experiment,2022.2.3,59.992249
,,,,,,,,,,,,,,,,22,0,22,0,,,,,,,,,,,,,,,,,,,,,,,,,,,,,,,,,,,,,,,,,,,,,,,,,,,,,,,,,,,,,,,,,,,,,,,,,,,,,,0.044838831,left,1,10,-30,-20,1,4618.150633,4618.150633,4618.150633,None,None,2,0,0.7383461,0.181818182,,,,,,,,,,,,,,,,,,,,,,,,,,,,,,,,,,,,,,,,,,,,,10,9,1,2024-10-21_10h49.03.988,uWM_experiment,2022.2.3,59.992249
,,,,,,,,,,,,,,,,23,0,23,0,,,,,,,,,,,,,,,,,,,,,,,,,,,,,,,,,,,,,,,,,,,,,,,,,,,,,,,,,,,,,,,,,,,,,,,,,,,,,,0.034838831,left,1,10,-30,-20,1,4624.667928,4624.667928,4624.667928,None,None,2,0,0.7731045,0.173913043,,,,,,,,,,,,,,,,,,,,,,,,,,,,,,,,,,,,,,,,,,,,,10,9,1,2024-10-21_10h49.03.988,uWM_experiment,2022.2.3,59.992249
,,,,,,,,,,,,,,,,,,,,,,,,,,,,,,,,,,,,,,,,,,,,,,,,,,,,,,,,,,,,,,,,,,,,,,,,,,,,,,,,,,,,,,,,,,,,,,,,,,,,,,,,,,,,,,,,,4625.467566,4626.467603,space,8.7094058,,,,,,,,,,,,,,,,,,,,,,,,,,,,,,,,,,,,,,,,,10,9,1,2024-10-21_10h49.03.988,uWM_experiment,2022.2.3,59.992249
,,,,,,,,,,,,,,,,,,,,0,0,0,0,0,0,0,0,,,,,,,,,,,,,,,,,,,,,,,,,,,,,,,,,,,,,,,,,,,,,,,,,,,,,,,,,,,,,,,,,,,,,,0.034838831,,,,,,,,,,,,,,,,,,,,4635.201325,4635.901315,4636.184678,4636.884704,4637.184714,4637.884749,4637.884749,4638.234758,left,0,70,30,100,1,4643.518338,4643.518338,4643.518338,None,None,2,0,1.0986535,,,,,,,,,,,,,,,,,,,10,9,1,2024-10-21_10h49.03.988,uWM_experiment,2022.2.3,59.992249
,,,,,,,,,,,,,,,,,,,,0,0,0,0,1,0,1,0,,,,,,,,,,,,,,,,,,,,,,,,,,,,,,,,,,,,,,,,,,,,,,,,,,,,,,,,,,,,,,,,,,,,,,0.024838831,,,,,,,,,,,,,,,,,,,,,,,,,,,,right,1,40,30,70,1,4650.785287,4650.785287,4650.785287,None,None,1,1,0.903556,,,,,,,,,,,,,,,,,,,10,9,1,2024-10-21_10h49.03.988,uWM_experiment,2022.2.3,59.992249
,,,,,,,,,,,,,,,,,,,,0,0,0,0,2,0,2,0,,,,,,,,,,,,,,,,,,,,,,,,,,,,,,,,,,,,,,,,,,,,,,,,,,,,,,,,,,,,,,,,,,,,,,0.034838831,,,,,,,,,,,,,,,,,,,,,,,,,,,,right,0,100,-30,70,1,4659.418975,4659.418975,4659.418975,None,None,2,0,1.8218024,,,,,,,,,,,,,,,,,,,10,9,1,2024-10-21_10h49.03.988,uWM_experiment,2022.2.3,59.992249
,,,,,,,,,,,,,,,,,,,,0,0,0,0,3,0,3,0,,,,,,,,,,,,,,,,,,,,,,,,,,,,,,,,,,,,,,,,,,,,,,,,,,,,,,,,,,,,,,,,,,,,,,0.024838831,,,,,,,,,,,,,,,,,,,,,,,,,,,,right,0,100,-30,70,1,4667.152653,4667.152653,4667.152653,None,None,1,1,0.4482073,,,,,,,,,,,,,,,,,,,10,9,1,2024-10-21_10h49.03.988,uWM_experiment,2022.2.3,59.992249
,,,,,,,,,,,,,,,,,,,,0,0,0,0,4,0,4,0,,,,,,,,,,,,,,,,,,,,,,,,,,,,,,,,,,,,,,,,,,,,,,,,,,,,,,,,,,,,,,,,,,,,,,0.034838831,,,,,,,,,,,,,,,,,,,,,,,,,,,,left,1,10,-30,-20,1,4673.5362,4673.5362,4673.5362,None,None,2,0,1.7606685,,,,,,,,,,,,,,,,,,,10,9,1,2024-10-21_10h49.03.988,uWM_experiment,2022.2.3,59.992249
,,,,,,,,,,,,,,,,,,,,0,0,0,0,5,0,5,0,,,,,,,,,,,,,,,,,,,,,,,,,,,,,,,,,,,,,,,,,,,,,,,,,,,,,,,,,,,,,,,,,,,,,,0.024838831,,,,,,,,,,,,,,,,,,,,,,,,,,,,right,0,10,-30,-20,1,4681.686562,4681.686562,4681.686562,None,None,2,0,1.6181537,,,,,,,,,,,,,,,,,,,10,9,1,2024-10-21_10h49.03.988,uWM_experiment,2022.2.3,59.992249
,,,,,,,,,,,,,,,,,,,,0,0,0,0,6,0,6,0,,,,,,,,,,,,,,,,,,,,,,,,,,,,,,,,,,,,,,,,,,,,,,,,,,,,,,,,,,,,,,,,,,,,,,0.014838831,,,,,,,,,,,,,,,,,,,,,,,,,,,,right,0,70,-30,40,1,4689.136862,4689.136862,4689.136862,None,None,2,0,1.1759744,,,,,,,,,,,,,,,,,,,10,9,1,2024-10-21_10h49.03.988,uWM_experiment,2022.2.3,59.992249
,,,,,,,,,,,,,,,,,,,,0,0,0,0,7,0,7,0,,,,,,,,,,,,,,,,,,,,,,,,,,,,,,,,,,,,,,,,,,,,,,,,,,,,,,,,,,,,,,,,,,,,,,0.005,,,,,,,,,,,,,,,,,,,,,,,,,,,,left,0,100,30,130,1,4696.437126,4696.437126,4696.437126,None,None,1,1,0.6836377,,,,,,,,,,,,,,,,,,,10,9,1,2024-10-21_10h49.03.988,uWM_experiment,2022.2.3,59.992249
,,,,,,,,,,,,,,,,,,,,0,0,0,0,8,0,8,0,,,,,,,,,,,,,,,,,,,,,,,,,,,,,,,,,,,,,,,,,,,,,,,,,,,,,,,,,,,,,,,,,,,,,,0,,,,,,,,,,,,,,,,,,,,,,,,,,,,left,0,130,30,160,0,4702.920766,4702.920766,4702.920766,None,None,1,1,0.8480343,,,,,,,,,,,,,,,,,,,10,9,1,2024-10-21_10h49.03.988,uWM_experiment,2022.2.3,59.992249
,,,,,,,,,,,,,,,,,,,,0,0,0,0,9,0,9,0,,,,,,,,,,,,,,,,,,,,,,,,,,,,,,,,,,,,,,,,,,,,,,,,,,,,,,,,,,,,,,,,,,,,,,0.015,,,,,,,,,,,,,,,,,,,,,,,,,,,,left,1,70,-30,40,1,4710.021017,4710.021017,4710.021017,None,None,1,1,1.5637284,,,,,,,,,,,,,,,,,,,10,9,1,2024-10-21_10h49.03.988,uWM_experiment,2022.2.3,59.992249
,,,,,,,,,,,,,,,,,,,,0,0,0,0,10,0,10,0,,,,,,,,,,,,,,,,,,,,,,,,,,,,,,,,,,,,,,,,,,,,,,,,,,,,,,,,,,,,,,,,,,,,,,0.1,,,,,,,,,,,,,,,,,,,,,,,,,,,,left,1,40,-30,10,2,4718.288026,4718.288026,4718.288026,None,None,4,0,1.4567115,,,,,,,,,,,,,,,,,,,10,9,1,2024-10-21_10h49.03.988,uWM_experiment,2022.2.3,59.992249
,,,,,,,,,,,,,,,,,,,,0,0,0,0,11,0,11,0,,,,,,,,,,,,,,,,,,,,,,,,,,,,,,,,,,,,,,,,,,,,,,,,,,,,,,,,,,,,,,,,,,,,,,0.025,,,,,,,,,,,,,,,,,,,,,,,,,,,,left,1,70,-30,40,1,4726.655027,4726.655027,4726.655027,None,None,2,0,0.6175977,,,,,,,,,,,,,,,,,,,10,9,1,2024-10-21_10h49.03.988,uWM_experiment,2022.2.3,59.992249
,,,,,,,,,,,,,,,,,,,,0,0,0,0,12,0,12,0,,,,,,,,,,,,,,,,,,,,,,,,,,,,,,,,,,,,,,,,,,,,,,,,,,,,,,,,,,,,,,,,,,,,,,0.015,,,,,,,,,,,,,,,,,,,,,,,,,,,,right,0,40,-30,10,1,4733.021966,4733.021966,4733.021966,None,None,2,0,0.8986476,,,,,,,,,,,,,,,,,,,10,9,1,2024-10-21_10h49.03.988,uWM_experiment,2022.2.3,59.992249
,,,,,,,,,,,,,,,,,,,,0,0,0,0,13,0,13,0,,,,,,,,,,,,,,,,,,,,,,,,,,,,,,,,,,,,,,,,,,,,,,,,,,,,,,,,,,,,,,,,,,,,,,0.005,,,,,,,,,,,,,,,,,,,,,,,,,,,,right,0,160,-30,130,1,4740.672305,4740.672305,4740.672305,None,None,1,1,6.896346,,,,,,,,,,,,,,,,,,,10,9,1,2024-10-21_10h49.03.988,uWM_experiment,2022.2.3,59.992249
,,,,,,,,,,,,,,,,,,,,0,0,0,0,14,0,14,0,,,,,,,,,,,,,,,,,,,,,,,,,,,,,,,,,,,,,,,,,,,,,,,,,,,,,,,,,,,,,,,,,,,,,,0,,,,,,,,,,,,,,,,,,,,,,,,,,,,right,1,160,30,190,0,4753.922841,4753.922841,4753.922841,None,None,2,0,0.8856466,,,,,,,,,,,,,,,,,,,10,9,1,2024-10-21_10h49.03.988,uWM_experiment,2022.2.3,59.992249
,,,,,,,,,,,,,,,,,,,,0,0,0,0,15,0,15,0,,,,,,,,,,,,,,,,,,,,,,,,,,,,,,,,,,,,,,,,,,,,,,,,,,,,,,,,,,,,,,,,,,,,,,0.015,,,,,,,,,,,,,,,,,,,,,,,,,,,,right,0,130,-30,100,1,4761.523133,4761.523133,4761.523133,None,None,2,0,0.9895153,,,,,,,,,,,,,,,,,,,10,9,1,2024-10-21_10h49.03.988,uWM_experiment,2022.2.3,59.992249
,,,,,,,,,,,,,,,,,,,,0,0,0,0,16,0,16,0,,,,,,,,,,,,,,,,,,,,,,,,,,,,,,,,,,,,,,,,,,,,,,,,,,,,,,,,,,,,,,,,,,,,,,0.005,,,,,,,,,,,,,,,,,,,,,,,,,,,,right,0,130,-30,100,1,4768.14007,4768.14007,4768.14007,None,None,1,1,0.5404282,,,,,,,,,,,,,,,,,,,10,9,1,2024-10-21_10h49.03.988,uWM_experiment,2022.2.3,59.992249
,,,,,,,,,,,,,,,,,,,,0,0,0,0,17,0,17,0,,,,,,,,,,,,,,,,,,,,,,,,,,,,,,,,,,,,,,,,,,,,,,,,,,,,,,,,,,,,,,,,,,,,,,0,,,,,,,,,,,,,,,,,,,,,,,,,,,,right,0,10,-30,-20,0,4774.423646,4774.423646,4774.423646,None,None,1,1,0.7847692,,,,,,,,,,,,,,,,,,,10,9,1,2024-10-21_10h49.03.988,uWM_experiment,2022.2.3,59.992249
,,,,,,,,,,,,,,,,,,,,0,0,0,0,18,0,18,0,,,,,,,,,,,,,,,,,,,,,,,,,,,,,,,,,,,,,,,,,,,,,,,,,,,,,,,,,,,,,,,,,,,,,,0,,,,,,,,,,,,,,,,,,,,,,,,,,,,right,0,160,-30,130,0,4780.890599,4780.890599,4780.890599,None,None,1,1,1.0218405,,,,,,,,,,,,,,,,,,,10,9,1,2024-10-21_10h49.03.988,uWM_experiment,2022.2.3,59.992249
,,,,,,,,,,,,,,,,,,,,0,0,0,0,19,0,19,0,,,,,,,,,,,,,,,,,,,,,,,,,,,,,,,,,,,,,,,,,,,,,,,,,,,,,,,,,,,,,,,,,,,,,,0.1,,,,,,,,,,,,,,,,,,,,,,,,,,,,right,1,40,30,70,2,4788.690915,4788.690915,4788.690915,None,None,4,0,1.4456349,,,,,,,,,,,,,,,,,,,10,9,1,2024-10-21_10h49.03.988,uWM_experiment,2022.2.3,59.992249
,,,,,,,,,,,,,,,,,,,,0,0,0,0,20,0,20,0,,,,,,,,,,,,,,,,,,,,,,,,,,,,,,,,,,,,,,,,,,,,,,,,,,,,,,,,,,,,,,,,,,,,,,0.1,,,,,,,,,,,,,,,,,,,,,,,,,,,,right,1,40,30,70,2,4796.49133,4796.49133,4796.49133,None,None,4,0,0.4051311,,,,,,,,,,,,,,,,,,,10,9,1,2024-10-21_10h49.03.988,uWM_experiment,2022.2.3,59.992249
,,,,,,,,,,,,,,,,,,,,0,0,0,0,21,0,21,0,,,,,,,,,,,,,,,,,,,,,,,,,,,,,,,,,,,,,,,,,,,,,,,,,,,,,,,,,,,,,,,,,,,,,,0.015,,,,,,,,,,,,,,,,,,,,,,,,,,,,right,1,10,30,40,1,4803.791534,4803.791534,4803.791534,None,None,4,0,6.5847862,,,,,,,,,,,,,,,,,,,10,9,1,2024-10-21_10h49.03.988,uWM_experiment,2022.2.3,59.992249
,,,,,,,,,,,,,,,,,,,,0,0,0,0,22,0,22,0,,,,,,,,,,,,,,,,,,,,,,,,,,,,,,,,,,,,,,,,,,,,,,,,,,,,,,,,,,,,,,,,,,,,,,0.005,,,,,,,,,,,,,,,,,,,,,,,,,,,,right,0,40,-30,10,1,4816.358722,4816.358722,4816.358722,None,None,1,1,0.83368,,,,,,,,,,,,,,,,,,,10,9,1,2024-10-21_10h49.03.988,uWM_experiment,2022.2.3,59.992249
,,,,,,,,,,,,,,,,,,,,0,0,0,0,23,0,23,0,,,,,,,,,,,,,,,,,,,,,,,,,,,,,,,,,,,,,,,,,,,,,,,,,,,,,,,,,,,,,,,,,,,,,,0,,,,,,,,,,,,,,,,,,,,,,,,,,,,right,0,130,-30,100,0,4822.908999,4822.908999,4822.908999,None,None,1,1,1.0353192,,,,,,,,,,,,,,,,,,,10,9,1,2024-10-21_10h49.03.988,uWM_experiment,2022.2.3,59.992249
,,,,,,,,,,,,,,,,,,,,0,0,0,0,,,,,0,0,0,0,,,,,,,,,,,,,,,,,,,,,,,,,,,,,,,,,,,,,,,,,,,,,,,,,,,,,,,,,,,,,,,,,,,,,,,,,,,,,,,,,,,,,,,,,,,,,,,,,,,,,,,,,,,,4823.97572,4823.97572,space,20.7204928,None,None,,,,,,,,,,,,,10,9,1,2024-10-21_10h49.03.988,uWM_experiment,2022.2.3,59.992249
,,,,,,,,,,,,,,,,,,,,0,0,0,0,,,,,1,0,1,0,,,,,,,,,,,,,,,,,,,,,,,,,,,,,,,,,,,,,,,,,,,,,,,,,,,,,,,,,,,,,,,,,,,,,,,,,,,,,,,,,,,,,,,,,,,,,,,,,,,,,,,,,,,,,,,,,,,,,,,,,,,,,,10,9,1,2024-10-21_10h49.03.988,uWM_experiment,2022.2.3,59.992249
,,,,,,,,,,,,,,,,,,,,0,0,0,0,,,,,2,0,2,0,,,,,,,,,,,,,,,,,,,,,,,,,,,,,,,,,,,,,,,,,,,,,,,,,,,,,,,,,,,,,,,,,,,,,,,,,,,,,,,,,,,,,,,,,,,,,,,,,,,,,,,,,,,,,,,,,,,,,,,,,,,,,,10,9,1,2024-10-21_10h49.03.988,uWM_experiment,2022.2.3,59.992249
,,,,,,,,,,,,,,,,,,,,1,0,1,0,0,0,0,0,,,,,,,,,,,,,,,,,,,,,,,,,,,,,,,,,,,,,,,,,,,,,,,,,,,,,,,,,,,,,,,,,,,,,,0.015,,,,,,,,,,,,,,,,,,,,4844.72654,4845.426593,4845.726598,4846.426658,4846.726685,4847.42668,4847.42668,4847.743352,right,0,100,-30,70,1,4852.926869,4852.926869,4852.926869,None,None,2,0,1.2013241,,,,,,,None,,,,,,,,,,,,10,9,1,2024-10-21_10h49.03.988,uWM_experiment,2022.2.3,59.992249
,,,,,,,,,,,,,,,,,,,,1,0,1,0,1,0,1,0,,,,,,,,,,,,,,,,,,,,,,,,,,,,,,,,,,,,,,,,,,,,,,,,,,,,,,,,,,,,,,,,,,,,,,0,,,,,,,,,,,,,,,,,,,,,,,,,,,,right,0,70,-30,40,0,4862.127271,4862.127271,4862.127271,None,None,1,1,1.6008912,,,,,,,,,,,,,,,,,,,10,9,1,2024-10-21_10h49.03.988,uWM_experiment,2022.2.3,59.992249
,,,,,,,,,,,,,,,,,,,,1,0,1,0,2,0,2,0,,,,,,,,,,,,,,,,,,,,,,,,,,,,,,,,,,,,,,,,,,,,,,,,,,,,,,,,,,,,,,,,,,,,,,0.005,,,,,,,,,,,,,,,,,,,,,,,,,,,,left,0,100,30,130,1,4870.127572,4870.127572,4870.127572,None,None,1,1,0.5845979,,,,,,,,,,,,,,,,,,,10,9,1,2024-10-21_10h49.03.988,uWM_experiment,2022.2.3,59.992249
,,,,,,,,,,,,,,,,,,,,1,0,1,0,3,0,3,0,,,,,,,,,,,,,,,,,,,,,,,,,,,,,,,,,,,,,,,,,,,,,,,,,,,,,,,,,,,,,,,,,,,,,,0.015,,,,,,,,,,,,,,,,,,,,,,,,,,,,left,0,100,30,130,1,4876.411177,4876.411177,4876.411177,None,None,1,1,0.6849848,,,,,,,,,,,,,,,,,,,10,9,1,2024-10-21_10h49.03.988,uWM_experiment,2022.2.3,59.992249
,,,,,,,,,,,,,,,,,,,,1,0,1,0,4,0,4,0,,,,,,,,,,,,,,,,,,,,,,,,,,,,,,,,,,,,,,,,,,,,,,,,,,,,,,,,,,,,,,,,,,,,,,0.025,,,,,,,,,,,,,,,,,,,,,,,,,,,,right,1,40,30,70,1,4884.528161,4884.528161,4884.528161,None,None,2,0,0.4720503,,,,,,,,,,,,,,,,,,,10,9,1,2024-10-21_10h49.03.988,uWM_experiment,2022.2.3,59.992249
,,,,,,,,,,,,,,,,,,,,1,0,1,0,5,0,5,0,,,,,,,,,,,,,,,,,,,,,,,,,,,,,,,,,,,,,,,,,,,,,,,,,,,,,,,,,,,,,,,,,,,,,,0.015,,,,,,,,,,,,,,,,,,,,,,,,,,,,left,0,160,30,190,1,4891.845136,4891.845136,4891.845136,None,None,1,1,1.2671968,,,,,,,,,,,,,,,,,,,10,9,1,2024-10-21_10h49.03.988,uWM_experiment,2022.2.3,59.992249
,,,,,,,,,,,,,,,,,,,,1,0,1,0,6,0,6,0,,,,,,,,,,,,,,,,,,,,,,,,,,,,,,,,,,,,,,,,,,,,,,,,,,,,,,,,,,,,,,,,,,,,,,0.025,,,,,,,,,,,,,,,,,,,,,,,,,,,,right,1,10,30,40,1,4898.878769,4898.878769,4898.878769,None,None,2,0,1.0654222,,,,,,,,,,,,,,,,,,,10,9,1,2024-10-21_10h49.03.988,uWM_experiment,2022.2.3,59.992249
,,,,,,,,,,,,,,,,,,,,1,0,1,0,7,0,7,0,,,,,,,,,,,,,,,,,,,,,,,,,,,,,,,,,,,,,,,,,,,,,,,,,,,,,,,,,,,,,,,,,,,,,,0.015,,,,,,,,,,,,,,,,,,,,,,,,,,,,left,1,40,-30,10,1,4906.912421,4906.912421,4906.912421,None,None,2,0,1.1277391,,,,,,,,,,,,,,,,,,,10,9,1,2024-10-21_10h49.03.988,uWM_experiment,2022.2.3,59.992249
,,,,,,,,,,,,,,,,,,,,1,0,1,0,8,0,8,0,,,,,,,,,,,,,,,,,,,,,,,,,,,,,,,,,,,,,,,,,,,,,,,,,,,,,,,,,,,,,,,,,,,,,,0.005,,,,,,,,,,,,,,,,,,,,,,,,,,,,right,1,100,30,130,1,4913.862704,4913.862704,4913.862704,None,None,2,0,2.3853375,,,,,,,,,,,,,,,,,,,10,9,1,2024-10-21_10h49.03.988,uWM_experiment,2022.2.3,59.992249
,,,,,,,,,,,,,,,,,,,,1,0,1,0,9,0,9,0,,,,,,,,,,,,,,,,,,,,,,,,,,,,,,,,,,,,,,,,,,,,,,,,,,,,,,,,,,,,,,,,,,,,,,0.005,,,,,,,,,,,,,,,,,,,,,,,,,,,,left,0,70,30,100,1,4922.246383,4922.246383,4922.246383,None,None,1,1,0.4175663,,,,,,,,,,,,,,,,,,,10,9,1,2024-10-21_10h49.03.988,uWM_experiment,2022.2.3,59.992249
,,,,,,,,,,,,,,,,,,,,1,0,1,0,10,0,10,0,,,,,,,,,,,,,,,,,,,,,,,,,,,,,,,,,,,,,,,,,,,,,,,,,,,,,,,,,,,,,,,,,,,,,,0.015,,,,,,,,,,,,,,,,,,,,,,,,,,,,right,1,40,30,70,1,4928.49663,4928.49663,4928.49663,None,None,2,0,0.4393547,,,,,,,,,,,,,,,,,,,10,9,1,2024-10-21_10h49.03.988,uWM_experiment,2022.2.3,59.992249
,,,,,,,,,,,,,,,,,,,,1,0,1,0,11,0,11,0,,,,,,,,,,,,,,,,,,,,,,,,,,,,,,,,,,,,,,,,,,,,,,,,,,,,,,,,,,,,,,,,,,,,,,0.005,,,,,,,,,,,,,,,,,,,,,,,,,,,,left,0,70,30,100,1,4934.69691,4934.69691,4934.69691,None,None,1,1,0.5030317,,,,,,,,,,,,,,,,,,,10,9,1,2024-10-21_10h49.03.988,uWM_experiment,2022.2.3,59.992249
,,,,,,,,,,,,,,,,,,,,1,0,1,0,12,0,12,0,,,,,,,,,,,,,,,,,,,,,,,,,,,,,,,,,,,,,,,,,,,,,,,,,,,,,,,,,,,,,,,,,,,,,,0.1,,,,,,,,,,,,,,,,,,,,,,,,,,,,left,1,70,-30,40,2,4941.547161,4941.547161,4941.547161,None,None,4,0,1.07685,,,,,,,,,,,,,,,,,,,10,9,1,2024-10-21_10h49.03.988,uWM_experiment,2022.2.3,59.992249
,,,,,,,,,,,,,,,,,,,,1,0,1,0,13,0,13,0,,,,,,,,,,,,,,,,,,,,,,,,,,,,,,,,,,,,,,,,,,,,,,,,,,,,,,,,,,,,,,,,,,,,,,0,,,,,,,,,,,,,,,,,,,,,,,,,,,,right,1,10,30,40,0,4948.347463,4948.347463,4948.347463,None,None,1,1,0.6605311,,,,,,,,,,,,,,,,,,,10,9,1,2024-10-21_10h49.03.988,uWM_experiment,2022.2.3,59.992249
,,,,,,,,,,,,,,,,,,,,1,0,1,0,14,0,14,0,,,,,,,,,,,,,,,,,,,,,,,,,,,,,,,,,,,,,,,,,,,,,,,,,,,,,,,,,,,,,,,,,,,,,,0.015,,,,,,,,,,,,,,,,,,,,,,,,,,,,right,0,100,-30,70,1,4954.797734,4954.797734,4954.797734,None,None,2,0,2.9142678,,,,,,,,,,,,,,,,,,,10,9,1,2024-10-21_10h49.03.988,uWM_experiment,2022.2.3,59.992249
,,,,,,,,,,,,,,,,,,,,1,0,1,0,15,0,15,0,,,,,,,,,,,,,,,,,,,,,,,,,,,,,,,,,,,,,,,,,,,,,,,,,,,,,,,,,,,,,,,,,,,,,,0,,,,,,,,,,,,,,,,,,,,,,,,,,,,right,1,130,30,160,0,4963.41472,4963.41472,4963.41472,None,None,2,0,0.3851295,,,,,,,,,,,,,,,,,,,10,9,1,2024-10-21_10h49.03.988,uWM_experiment,2022.2.3,59.992249
,,,,,,,,,,,,,,,,,,,,1,0,1,0,16,0,16,0,,,,,,,,,,,,,,,,,,,,,,,,,,,,,,,,,,,,,,,,,,,,,,,,,,,,,,,,,,,,,,,,,,,,,,0.005,,,,,,,,,,,,,,,,,,,,,,,,,,,,left,0,160,30,190,1,4970.365035,4970.365035,4970.365035,None,None,1,1,1.1949376,,,,,,,,,,,,,,,,,,,10,9,1,2024-10-21_10h49.03.988,uWM_experiment,2022.2.3,59.992249
,,,,,,,,,,,,,,,,,,,,1,0,1,0,17,0,17,0,,,,,,,,,,,,,,,,,,,,,,,,,,,,,,,,,,,,,,,,,,,,,,,,,,,,,,,,,,,,,,,,,,,,,,0.015,,,,,,,,,,,,,,,,,,,,,,,,,,,,right,0,10,-30,-20,1,4977.081966,4977.081966,4977.081966,None,None,2,0,1.1259865,,,,,,,,,,,,,,,,,,,10,9,1,2024-10-21_10h49.03.988,uWM_experiment,2022.2.3,59.992249
,,,,,,,,,,,,,,,,,,,,1,0,1,0,18,0,18,0,,,,,,,,,,,,,,,,,,,,,,,,,,,,,,,,,,,,,,,,,,,,,,,,,,,,,,,,,,,,,,,,,,,,,,0.005,,,,,,,,,,,,,,,,,,,,,,,,,,,,left,1,130,-30,100,1,4983.765568,4983.765568,4983.765568,None,None,1,1,1.0262862,,,,,,,,,,,,,,,,,,,10,9,1,2024-10-21_10h49.03.988,uWM_experiment,2022.2.3,59.992249
,,,,,,,,,,,,,,,,,,,,1,0,1,0,19,0,19,0,,,,,,,,,,,,,,,,,,,,,,,,,,,,,,,,,,,,,,,,,,,,,,,,,,,,,,,,,,,,,,,,,,,,,,0.015,,,,,,,,,,,,,,,,,,,,,,,,,,,,right,1,130,30,160,1,4990.765866,4990.765866,4990.765866,None,None,2,0,0.5459557,,,,,,,,,,,,,,,,,,,10,9,1,2024-10-21_10h49.03.988,uWM_experiment,2022.2.3,59.992249
,,,,,,,,,,,,,,,,,,,,1,0,1,0,20,0,20,0,,,,,,,,,,,,,,,,,,,,,,,,,,,,,,,,,,,,,,,,,,,,,,,,,,,,,,,,,,,,,,,,,,,,,,0,,,,,,,,,,,,,,,,,,,,,,,,,,,,right,0,100,-30,70,0,4997.582825,4997.582825,4997.582825,None,None,1,1,1.1529453,,,,,,,,,,,,,,,,,,,10,9,1,2024-10-21_10h49.03.988,uWM_experiment,2022.2.3,59.992249
,,,,,,,,,,,,,,,,,,,,1,0,1,0,21,0,21,0,,,,,,,,,,,,,,,,,,,,,,,,,,,,,,,,,,,,,,,,,,,,,,,,,,,,,,,,,,,,,,,,,,,,,,0,,,,,,,,,,,,,,,,,,,,,,,,,,,,left,1,10,-30,-20,0,5004.666435,5004.666435,5004.666435,None,None,1,1,0.6372597,,,,,,,,,,,,,,,,,,,10,9,1,2024-10-21_10h49.03.988,uWM_experiment,2022.2.3,59.992249
,,,,,,,,,,,,,,,,,,,,1,0,1,0,22,0,22,0,,,,,,,,,,,,,,,,,,,,,,,,,,,,,,,,,,,,,,,,,,,,,,,,,,,,,,,,,,,,,,,,,,,,,,0.005,,,,,,,,,,,,,,,,,,,,,,,,,,,,right,1,160,30,190,1,5011.033374,5011.033374,5011.033374,None,None,2,0,1.614445,,,,,,,,,,,,,,,,,,,10,9,1,2024-10-21_10h49.03.988,uWM_experiment,2022.2.3,59.992249
,,,,,,,,,,,,,,,,,,,,1,0,1,0,23,0,23,0,,,,,,,,,,,,,,,,,,,,,,,,,,,,,,,,,,,,,,,,,,,,,,,,,,,,,,,,,,,,,,,,,,,,,,0,,,,,,,,,,,,,,,,,,,,,,,,,,,,left,1,130,-30,100,0,5020.467075,5020.467075,5020.467075,None,None,1,1,1.3006197,,,,,,,,,,,,,,,,,,,10,9,1,2024-10-21_10h49.03.988,uWM_experiment,2022.2.3,59.992249
,,,,,,,,,,,,,,,,,,,,1,0,1,0,,,,,0,0,0,0,,,,,,,,,,,,,,,,,,,,,,,,,,,,,,,,,,,,,,,,,,,,,,,,,,,,,,,,,,,,,,,,,,,,,,,,,,,,,,,,,,,,,,,,,,,,,,,,,,,,,,,,,,,,5021.800446,5021.800446,space,6.415198,None,None,,,,,,,,,,,,,10,9,1,2024-10-21_10h49.03.988,uWM_experiment,2022.2.3,59.992249
,,,,,,,,,,,,,,,,,,,,1,0,1,0,,,,,1,0,1,0,,,,,,,,,,,,,,,,,,,,,,,,,,,,,,,,,,,,,,,,,,,,,,,,,,,,,,,,,,,,,,,,,,,,,,,,,,,,,,,,,,,,,,,,,,,,,,,,,,,,,,,,,,,,,,,,,,,,,,,,,,,,,,10,9,1,2024-10-21_10h49.03.988,uWM_experiment,2022.2.3,59.992249
,,,,,,,,,,,,,,,,,,,,1,0,1,0,,,,,2,0,2,0,,,,,,,,,,,,,,,,,,,,,,,,,,,,,,,,,,,,,,,,,,,,,,,,,,,,,,,,,,,,,,,,,,,,,,,,,,,,,,,,,,,,,,,,,,,,,,,,,,,,,,,,,,,,,,,,,,,,,,,,,,,,,,10,9,1,2024-10-21_10h49.03.988,uWM_experiment,2022.2.3,59.992249
,,,,,,,,,,,,,,,,,,,,2,0,2,0,0,0,0,0,,,,,,,,,,,,,,,,,,,,,,,,,,,,,,,,,,,,,,,,,,,,,,,,,,,,,,,,,,,,,,,,,,,,,,0,,,,,,,,,,,,,,,,,,,,5028.234021,5028.934074,5029.234087,5029.934176,5030.234135,5030.934155,5030.934155,5031.250843,right,1,10,30,40,0,5036.067718,5036.067718,5036.067718,None,None,2,0,1.6038813,,,,,,,None,,,,,,,,,,,,10,9,1,2024-10-21_10h49.03.988,uWM_experiment,2022.2.3,59.992249
,,,,,,,,,,,,,,,,,,,,2,0,2,0,1,0,1,0,,,,,,,,,,,,,,,,,,,,,,,,,,,,,,,,,,,,,,,,,,,,,,,,,,,,,,,,,,,,,,,,,,,,,,0.005,,,,,,,,,,,,,,,,,,,,,,,,,,,,left,0,70,30,100,1,5043.434666,5043.434666,5043.434666,None,None,1,1,0.6770549,,,,,,,,,,,,,,,,,,,10,9,1,2024-10-21_10h49.03.988,uWM_experiment,2022.2.3,59.992249
,,,,,,,,,,,,,,,,,,,,2,0,2,0,2,0,2,0,,,,,,,,,,,,,,,,,,,,,,,,,,,,,,,,,,,,,,,,,,,,,,,,,,,,,,,,,,,,,,,,,,,,,,0.015,,,,,,,,,,,,,,,,,,,,,,,,,,,,left,1,160,-30,130,1,5050.25163,5050.25163,5050.25163,None,None,3,0,1.7240029,,,,,,,,,,,,,,,,,,,10,9,1,2024-10-21_10h49.03.988,uWM_experiment,2022.2.3,59.992249
,,,,,,,,,,,,,,,,,,,,2,0,2,0,3,0,3,0,,,,,,,,,,,,,,,,,,,,,,,,,,,,,,,,,,,,,,,,,,,,,,,,,,,,,,,,,,,,,,,,,,,,,,0.005,,,,,,,,,,,,,,,,,,,,,,,,,,,,right,1,160,30,190,1,5058.118621,5058.118621,5058.118621,None,None,2,0,1.4730187,,,,,,,,,,,,,,,,,,,10,9,1,2024-10-21_10h49.03.988,uWM_experiment,2022.2.3,59.992249
,,,,,,,,,,,,,,,,,,,,2,0,2,0,4,0,4,0,,,,,,,,,,,,,,,,,,,,,,,,,,,,,,,,,,,,,,,,,,,,,,,,,,,,,,,,,,,,,,,,,,,,,,0.1,,,,,,,,,,,,,,,,,,,,,,,,,,,,left,1,10,-30,-20,2,5065.835601,5065.835601,5065.835601,None,None,4,0,0.8199266,,,,,,,,,,,,,,,,,,,10,9,1,2024-10-21_10h49.03.988,uWM_experiment,2022.2.3,59.992249
,,,,,,,,,,,,,,,,,,,,2,0,2,0,5,0,5,0,,,,,,,,,,,,,,,,,,,,,,,,,,,,,,,,,,,,,,,,,,,,,,,,,,,,,,,,,,,,,,,,,,,,,,0.005,,,,,,,,,,,,,,,,,,,,,,,,,,,,left,1,40,-30,10,1,5072.435849,5072.435849,5072.435849,None,None,2,0,0.7716868,,,,,,,,,,,,,,,,,,,10,9,1,2024-10-21_10h49.03.988,uWM_experiment,2022.2.3,59.992249
,,,,,,,,,,,,,,,,,,,,2,0,2,0,6,0,6,0,,,,,,,,,,,,,,,,,,,,,,,,,,,,,,,,,,,,,,,,,,,,,,,,,,,,,,,,,,,,,,,,,,,,,,0.005,,,,,,,,,,,,,,,,,,,,,,,,,,,,right,0,100,-30,70,1,5079.352807,5079.352807,5079.352807,None,None,2,0,1.0227756,,,,,,,,,,,,,,,,,,,10,9,1,2024-10-21_10h49.03.988,uWM_experiment,2022.2.3,59.992249
,,,,,,,,,,,,,,,,,,,,2,0,2,0,7,0,7,0,,,,,,,,,,,,,,,,,,,,,,,,,,,,,,,,,,,,,,,,,,,,,,,,,,,,,,,,,,,,,,,,,,,,,,0.005,,,,,,,,,,,,,,,,,,,,,,,,,,,,right,1,70,30,100,1,5086.519794,5086.519794,5086.519794,None,None,2,0,0.7118064,,,,,,,,,,,,,,,,,,,10,9,1,2024-10-21_10h49.03.988,uWM_experiment,2022.2.3,59.992249
,,,,,,,,,,,,,,,,,,,,2,0,2,0,8,0,8,0,,,,,,,,,,,,,,,,,,,,,,,,,,,,,,,,,,,,,,,,,,,,,,,,,,,,,,,,,,,,,,,,,,,,,,0.005,,,,,,,,,,,,,,,,,,,,,,,,,,,,left,1,160,-30,130,1,5093.803418,5093.803418,5093.803418,None,None,1,1,1.9081058,,,,,,,,,,,,,,,,,,,10,9,1,2024-10-21_10h49.03.988,uWM_experiment,2022.2.3,59.992249
,,,,,,,,,,,,,,,,,,,,2,0,2,0,9,0,9,0,,,,,,,,,,,,,,,,,,,,,,,,,,,,,,,,,,,,,,,,,,,,,,,,,,,,,,,,,,,,,,,,,,,,,,0.015,,,,,,,,,,,,,,,,,,,,,,,,,,,,left,0,70,30,100,1,5101.803718,5101.803718,5101.803718,None,None,1,1,7.4758075,,,,,,,,,,,,,,,,,,,10,9,1,2024-10-21_10h49.03.988,uWM_experiment,2022.2.3,59.992249
,,,,,,,,,,,,,,,,,,,,2,0,2,0,10,0,10,0,,,,,,,,,,,,,,,,,,,,,,,,,,,,,,,,,,,,,,,,,,,,,,,,,,,,,,,,,,,,,,,,,,,,,,0.025,,,,,,,,,,,,,,,,,,,,,,,,,,,,right,1,40,30,70,1,5116.270968,5116.270968,5116.270968,None,None,1,1,0.8084084,,,,,,,,,,,,,,,,,,,10,9,1,2024-10-21_10h49.03.988,uWM_experiment,2022.2.3,59.992249
,,,,,,,,,,,,,,,,,,,,2,0,2,0,11,0,11,0,,,,,,,,,,,,,,,,,,,,,,,,,,,,,,,,,,,,,,,,,,,,,,,,,,,,,,,,,,,,,,,,,,,,,,0,,,,,,,,,,,,,,,,,,,,,,,,,,,,right,1,10,30,40,0,5124.421331,5124.421331,5124.421331,None,None,1,1,2.4501571,,,,,,,,,,,,,,,,,,,10,9,1,2024-10-21_10h49.03.988,uWM_experiment,2022.2.3,59.992249
,,,,,,,,,,,,,,,,,,,,2,0,2,0,12,0,12,0,,,,,,,,,,,,,,,,,,,,,,,,,,,,,,,,,,,,,,,,,,,,,,,,,,,,,,,,,,,,,,,,,,,,,,0.035,,,,,,,,,,,,,,,,,,,,,,,,,,,,left,1,160,-30,130,1,5133.438371,5133.438371,5133.438371,None,None,2,0,0.9369574,,,,,,,,,,,,,,,,,,,10,9,1,2024-10-21_10h49.03.988,uWM_experiment,2022.2.3,59.992249
,,,,,,,,,,,,,,,,,,,,2,0,2,0,13,0,13,0,,,,,,,,,,,,,,,,,,,,,,,,,,,,,,,,,,,,,,,,,,,,,,,,,,,,,,,,,,,,,,,,,,,,,,0.025,,,,,,,,,,,,,,,,,,,,,,,,,,,,left,1,10,-30,-20,1,5140.938673,5140.938673,5140.938673,None,None,2,0,0.8526354,,,,,,,,,,,,,,,,,,,10,9,1,2024-10-21_10h49.03.988,uWM_experiment,2022.2.3,59.992249
,,,,,,,,,,,,,,,,,,,,2,0,2,0,14,0,14,0,,,,,,,,,,,,,,,,,,,,,,,,,,,,,,,,,,,,,,,,,,,,,,,,,,,,,,,,,,,,,,,,,,,,,,0.015,,,,,,,,,,,,,,,,,,,,,,,,,,,,right,0,70,-30,40,1,5149.138988,5149.138988,5149.138988,None,None,3,0,5.9082831,,,,,,,,,,,,,,,,,,,10,9,1,2024-10-21_10h49.03.988,uWM_experiment,2022.2.3,59.992249
,,,,,,,,,,,,,,,,,,,,2,0,2,0,15,0,15,0,,,,,,,,,,,,,,,,,,,,,,,,,,,,,,,,,,,,,,,,,,,,,,,,,,,,,,,,,,,,,,,,,,,,,,0.005,,,,,,,,,,,,,,,,,,,,,,,,,,,,right,1,10,30,40,1,5160.806141,5160.806141,5160.806141,None,None,1,1,0.7851119,,,,,,,,,,,,,,,,,,,10,9,1,2024-10-21_10h49.03.988,uWM_experiment,2022.2.3,59.992249
,,,,,,,,,,,,,,,,,,,,2,0,2,0,16,0,16,0,,,,,,,,,,,,,,,,,,,,,,,,,,,,,,,,,,,,,,,,,,,,,,,,,,,,,,,,,,,,,,,,,,,,,,0,,,,,,,,,,,,,,,,,,,,,,,,,,,,right,1,40,30,70,0,5168.423109,5168.423109,5168.423109,None,None,2,0,1.3200588,,,,,,,,,,,,,,,,,,,10,9,1,2024-10-21_10h49.03.988,uWM_experiment,2022.2.3,59.992249
,,,,,,,,,,,,,,,,,,,,2,0,2,0,17,0,17,0,,,,,,,,,,,,,,,,,,,,,,,,,,,,,,,,,,,,,,,,,,,,,,,,,,,,,,,,,,,,,,,,,,,,,,0.015,,,,,,,,,,,,,,,,,,,,,,,,,,,,left,0,100,30,130,1,5175.556748,5175.556748,5175.556748,None,None,2,0,1.5384339,,,,,,,,,,,,,,,,,,,10,9,1,2024-10-21_10h49.03.988,uWM_experiment,2022.2.3,59.992249
,,,,,,,,,,,,,,,,,,,,2,0,2,0,18,0,18,0,,,,,,,,,,,,,,,,,,,,,,,,,,,,,,,,,,,,,,,,,,,,,,,,,,,,,,,,,,,,,,,,,,,,,,0.005,,,,,,,,,,,,,,,,,,,,,,,,,,,,right,1,40,30,70,1,5183.123712,5183.123712,5183.123712,None,None,1,1,1.0674565,,,,,,,,,,,,,,,,,,,10,9,1,2024-10-21_10h49.03.988,uWM_experiment,2022.2.3,59.992249
,,,,,,,,,,,,,,,,,,,,2,0,2,0,19,0,19,0,,,,,,,,,,,,,,,,,,,,,,,,,,,,,,,,,,,,,,,,,,,,,,,,,,,,,,,,,,,,,,,,,,,,,,0,,,,,,,,,,,,,,,,,,,,,,,,,,,,left,1,130,-30,100,0,5190.92404,5190.92404,5190.92404,None,None,1,1,2.8991505,,,,,,,,,,,,,,,,,,,10,9,1,2024-10-21_10h49.03.988,uWM_experiment,2022.2.3,59.992249
,,,,,,,,,,,,,,,,,,,,2,0,2,0,20,0,20,0,,,,,,,,,,,,,,,,,,,,,,,,,,,,,,,,,,,,,,,,,,,,,,,,,,,,,,,,,,,,,,,,,,,,,,0.015,,,,,,,,,,,,,,,,,,,,,,,,,,,,right,0,100,-30,70,1,5199.474383,5199.474383,5199.474383,None,None,1,1,0.9567902,,,,,,,,,,,,,,,,,,,10,9,1,2024-10-21_10h49.03.988,uWM_experiment,2022.2.3,59.992249
,,,,,,,,,,,,,,,,,,,,2,0,2,0,21,0,21,0,,,,,,,,,,,,,,,,,,,,,,,,,,,,,,,,,,,,,,,,,,,,,,,,,,,,,,,,,,,,,,,,,,,,,,0.025,,,,,,,,,,,,,,,,,,,,,,,,,,,,left,0,130,30,160,1,5206.041336,5206.041336,5206.041336,None,None,2,0,1.8778202,,,,,,,,,,,,,,,,,,,10,9,1,2024-10-21_10h49.03.988,uWM_experiment,2022.2.3,59.992249
,,,,,,,,,,,,,,,,,,,,2,0,2,0,22,0,22,0,,,,,,,,,,,,,,,,,,,,,,,,,,,,,,,,,,,,,,,,,,,,,,,,,,,,,,,,,,,,,,,,,,,,,,0.015,,,,,,,,,,,,,,,,,,,,,,,,,,,,right,1,10,30,40,1,5215.425052,5215.425052,5215.425052,None,None,2,0,0.5420135,,,,,,,,,,,,,,,,,,,10,9,1,2024-10-21_10h49.03.988,uWM_experiment,2022.2.3,59.992249
,,,,,,,,,,,,,,,,,,,,2,0,2,0,23,0,23,0,,,,,,,,,,,,,,,,,,,,,,,,,,,,,,,,,,,,,,,,,,,,,,,,,,,,,,,,,,,,,,,,,,,,,,0.005,,,,,,,,,,,,,,,,,,,,,,,,,,,,right,0,100,-30,70,1,5221.675293,5221.675293,5221.675293,None,None,1,1,0.6197141,,,,,,,,,,,,,,,,,,,10,9,1,2024-10-21_10h49.03.988,uWM_experiment,2022.2.3,59.992249
,,,,,,,,,,,,,,,,,,,,2,0,2,0,,,,,0,0,0,0,,,,,,,,,,,,,,,,,,,,,,,,,,,,,,,,,,,,,,,,,,,,,,,,,,,,,,,,,,,,,,,,,,,,,,,,,,,,,,,,,,,,,,,,,,,,,,,,,,,,,,,,,,,,5222.325311,5222.325311,space,2.7298233,space,None,,5225.075421,5225.075421,31.019578,,,,,,,,,10,9,1,2024-10-21_10h49.03.988,uWM_experiment,2022.2.3,59.992249
,,,,,,,,,,,,,,,,,,,,2,0,2,0,,,,,1,0,1,0,,,,,,,,,,,,,,,,,,,,,,,,,,,,,,,,,,,,,,,,,,,,,,,,,,,,,,,,,,,,,,,,,,,,,,,,,,,,,,,,,,,,,,,,,,,,,,,,,,,,,,,,,,,,,,,,,,,,,,,,,,,,,,10,9,1,2024-10-21_10h49.03.988,uWM_experiment,2022.2.3,59.992249
,,,,,,,,,,,,,,,,,,,,2,0,2,0,,,,,2,0,2,0,,,,,,,,,,,,,,,,,,,,,,,,,,,,,,,,,,,,,,,,,,,,,,,,,,,,,,,,,,,,,,,,,,,,,,,,,,,,,,,,,,,,,,,,,,,,,,,,,,,,,,,,,,,,,,,,,,,,,,,,,,,,,,10,9,1,2024-10-21_10h49.03.988,uWM_experiment,2022.2.3,59.992249
,,,,,,,,,,,,,,,,,,,,3,0,3,0,0,0,0,0,,,,,,,,,,,,,,,,,,,,,,,,,,,,,,,,,,,,,,,,,,,,,,,,,,,,,,,,,,,,,,,,,,,,,,0.015,,,,,,,,,,,,,,,,,,,,5256.126692,5256.826732,5257.126733,5257.826763,5258.12678,5258.826806,5258.826806,5259.143493,left,0,100,30,130,1,5264.110366,5264.110366,5264.110366,None,None,1,1,1.8966118,,,,,,,None,,,,,,,,,,,,10,9,1,2024-10-21_10h49.03.988,uWM_experiment,2022.2.3,59.992249
,,,,,,,,,,,,,,,,,,,,3,0,3,0,1,0,1,0,,,,,,,,,,,,,,,,,,,,,,,,,,,,,,,,,,,,,,,,,,,,,,,,,,,,,,,,,,,,,,,,,,,,,,0,,,,,,,,,,,,,,,,,,,,,,,,,,,,left,1,10,-30,-20,0,5274.910801,5274.910801,5274.910801,None,None,1,1,0.7200592,,,,,,,,,,,,,,,,,,,10,9,1,2024-10-21_10h49.03.988,uWM_experiment,2022.2.3,59.992249
,,,,,,,,,,,,,,,,,,,,3,0,3,0,2,0,2,0,,,,,,,,,,,,,,,,,,,,,,,,,,,,,,,,,,,,,,,,,,,,,,,,,,,,,,,,,,,,,,,,,,,,,,0,,,,,,,,,,,,,,,,,,,,,,,,,,,,left,1,160,-30,130,0,5281.477724,5281.477724,5281.477724,None,None,1,1,1.6651854,,,,,,,,,,,,,,,,,,,10,9,1,2024-10-21_10h49.03.988,uWM_experiment,2022.2.3,59.992249
,,,,,,,,,,,,,,,,,,,,3,0,3,0,3,0,3,0,,,,,,,,,,,,,,,,,,,,,,,,,,,,,,,,,,,,,,,,,,,,,,,,,,,,,,,,,,,,,,,,,,,,,,0.025,,,,,,,,,,,,,,,,,,,,,,,,,,,,right,1,10,30,40,1,5289.461392,5289.461392,5289.461392,None,None,2,0,2.6255309,,,,,,,,,,,,,,,,,,,10,9,1,2024-10-21_10h49.03.988,uWM_experiment,2022.2.3,59.992249
,,,,,,,,,,,,,,,,,,,,3,0,3,0,4,0,4,0,,,,,,,,,,,,,,,,,,,,,,,,,,,,,,,,,,,,,,,,,,,,,,,,,,,,,,,,,,,,,,,,,,,,,,0.015,,,,,,,,,,,,,,,,,,,,,,,,,,,,right,1,10,30,40,1,5297.845089,5297.845089,5297.845089,None,None,1,1,0.4418217,,,,,,,,,,,,,,,,,,,10,9,1,2024-10-21_10h49.03.988,uWM_experiment,2022.2.3,59.992249
,,,,,,,,,,,,,,,,,,,,3,0,3,0,5,0,5,0,,,,,,,,,,,,,,,,,,,,,,,,,,,,,,,,,,,,,,,,,,,,,,,,,,,,,,,,,,,,,,,,,,,,,,0,,,,,,,,,,,,,,,,,,,,,,,,,,,,left,1,10,-30,-20,0,5304.578697,5304.578697,5304.578697,None,None,2,0,1.3561327,,,,,,,,,,,,,,,,,,,10,9,1,2024-10-21_10h49.03.988,uWM_experiment,2022.2.3,59.992249
,,,,,,,,,,,,,,,,,,,,3,0,3,0,6,0,6,0,,,,,,,,,,,,,,,,,,,,,,,,,,,,,,,,,,,,,,,,,,,,,,,,,,,,,,,,,,,,,,,,,,,,,,0.025,,,,,,,,,,,,,,,,,,,,,,,,,,,,left,1,10,-30,-20,1,5311.795642,5311.795642,5311.795642,None,None,1,1,1.0190952,,,,,,,,,,,,,,,,,,,10,9,1,2024-10-21_10h49.03.988,uWM_experiment,2022.2.3,59.992249
,,,,,,,,,,,,,,,,,,,,3,0,3,0,7,0,7,0,,,,,,,,,,,,,,,,,,,,,,,,,,,,,,,,,,,,,,,,,,,,,,,,,,,,,,,,,,,,,,,,,,,,,,0.035,,,,,,,,,,,,,,,,,,,,,,,,,,,,right,1,160,30,190,1,5318.829255,5318.829255,5318.829255,None,None,2,0,1.7694934,,,,,,,,,,,,,,,,,,,10,9,1,2024-10-21_10h49.03.988,uWM_experiment,2022.2.3,59.992249
,,,,,,,,,,,,,,,,,,,,3,0,3,0,8,0,8,0,,,,,,,,,,,,,,,,,,,,,,,,,,,,,,,,,,,,,,,,,,,,,,,,,,,,,,,,,,,,,,,,,,,,,,0.1,,,,,,,,,,,,,,,,,,,,,,,,,,,,left,1,10,-30,-20,2,5327.079608,5327.079608,5327.079608,None,None,4,0,1.831157,,,,,,,,,,,,,,,,,,,10,9,1,2024-10-21_10h49.03.988,uWM_experiment,2022.2.3,59.992249
,,,,,,,,,,,,,,,,,,,,3,0,3,0,9,0,9,0,,,,,,,,,,,,,,,,,,,,,,,,,,,,,,,,,,,,,,,,,,,,,,,,,,,,,,,,,,,,,,,,,,,,,,0.025,,,,,,,,,,,,,,,,,,,,,,,,,,,,right,1,40,30,70,1,5335.013276,5335.013276,5335.013276,None,None,2,0,1.6415142,,,,,,,,,,,,,,,,,,,10,9,1,2024-10-21_10h49.03.988,uWM_experiment,2022.2.3,59.992249
,,,,,,,,,,,,,,,,,,,,3,0,3,0,10,0,10,0,,,,,,,,,,,,,,,,,,,,,,,,,,,,,,,,,,,,,,,,,,,,,,,,,,,,,,,,,,,,,,,,,,,,,,0.015,,,,,,,,,,,,,,,,,,,,,,,,,,,,right,1,40,30,70,1,5342.463548,5342.463548,5342.463548,None,None,2,0,1.5432186,,,,,,,,,,,,,,,,,,,10,9,1,2024-10-21_10h49.03.988,uWM_experiment,2022.2.3,59.992249
,,,,,,,,,,,,,,,,,,,,3,0,3,0,11,0,11,0,,,,,,,,,,,,,,,,,,,,,,,,,,,,,,,,,,,,,,,,,,,,,,,,,,,,,,,,,,,,,,,,,,,,,,0.005,,,,,,,,,,,,,,,,,,,,,,,,,,,,left,0,70,30,100,1,5350.797251,5350.797251,5350.797251,None,None,2,0,0.6254349,,,,,,,,,,,,,,,,,,,10,9,1,2024-10-21_10h49.03.988,uWM_experiment,2022.2.3,59.992249
,,,,,,,,,,,,,,,,,,,,3,0,3,0,12,0,12,0,,,,,,,,,,,,,,,,,,,,,,,,,,,,,,,,,,,,,,,,,,,,,,,,,,,,,,,,,,,,,,,,,,,,,,0.005,,,,,,,,,,,,,,,,,,,,,,,,,,,,right,1,130,30,160,1,5357.580876,5357.580876,5357.580876,None,None,2,0,0.8338226,,,,,,,,,,,,,,,,,,,10,9,1,2024-10-21_10h49.03.988,uWM_experiment,2022.2.3,59.992249
,,,,,,,,,,,,,,,,,,,,3,0,3,0,13,0,13,0,,,,,,,,,,,,,,,,,,,,,,,,,,,,,,,,,,,,,,,,,,,,,,,,,,,,,,,,,,,,,,,,,,,,,,0.005,,,,,,,,,,,,,,,,,,,,,,,,,,,,left,0,100,30,130,1,5364.497804,5364.497804,5364.497804,None,None,1,1,0.796807,,,,,,,,,,,,,,,,,,,10,9,1,2024-10-21_10h49.03.988,uWM_experiment,2022.2.3,59.992249
,,,,,,,,,,,,,,,,,,,,3,0,3,0,14,0,14,0,,,,,,,,,,,,,,,,,,,,,,,,,,,,,,,,,,,,,,,,,,,,,,,,,,,,,,,,,,,,,,,,,,,,,,0,,,,,,,,,,,,,,,,,,,,,,,,,,,,right,1,10,30,40,0,5371.514769,5371.514769,5371.514769,None,None,1,1,1.0598727,,,,,,,,,,,,,,,,,,,10,9,1,2024-10-21_10h49.03.988,uWM_experiment,2022.2.3,59.992249
,,,,,,,,,,,,,,,,,,,,3,0,3,0,15,0,15,0,,,,,,,,,,,,,,,,,,,,,,,,,,,,,,,,,,,,,,,,,,,,,,,,,,,,,,,,,,,,,,,,,,,,,,0.015,,,,,,,,,,,,,,,,,,,,,,,,,,,,left,1,160,-30,130,1,5378.631702,5378.631702,5378.631702,None,None,2,0,0.414955,,,,,,,,,,,,,,,,,,,10,9,1,2024-10-21_10h49.03.988,uWM_experiment,2022.2.3,59.992249
,,,,,,,,,,,,,,,,,,,,3,0,3,0,16,0,16,0,,,,,,,,,,,,,,,,,,,,,,,,,,,,,,,,,,,,,,,,,,,,,,,,,,,,,,,,,,,,,,,,,,,,,,0,,,,,,,,,,,,,,,,,,,,,,,,,,,,right,1,160,30,190,0,5385.298636,5385.298636,5385.298636,None,None,1,1,1.2839335,,,,,,,,,,,,,,,,,,,10,9,1,2024-10-21_10h49.03.988,uWM_experiment,2022.2.3,59.992249
,,,,,,,,,,,,,,,,,,,,3,0,3,0,17,0,17,0,,,,,,,,,,,,,,,,,,,,,,,,,,,,,,,,,,,,,,,,,,,,,,,,,,,,,,,,,,,,,,,,,,,,,,0.005,,,,,,,,,,,,,,,,,,,,,,,,,,,,left,1,160,-30,130,1,5392.382296,5392.382296,5392.382296,None,None,1,1,1.3603114,,,,,,,,,,,,,,,,,,,10,9,1,2024-10-21_10h49.03.988,uWM_experiment,2022.2.3,59.992249
,,,,,,,,,,,,,,,,,,,,3,0,3,0,18,0,18,0,,,,,,,,,,,,,,,,,,,,,,,,,,,,,,,,,,,,,,,,,,,,,,,,,,,,,,,,,,,,,,,,,,,,,,0.015,,,,,,,,,,,,,,,,,,,,,,,,,,,,right,0,70,-30,40,1,5399.465925,5399.465925,5399.465925,None,None,1,1,0.4045174,,,,,,,,,,,,,,,,,,,10,9,1,2024-10-21_10h49.03.988,uWM_experiment,2022.2.3,59.992249
,,,,,,,,,,,,,,,,,,,,3,0,3,0,19,0,19,0,,,,,,,,,,,,,,,,,,,,,,,,,,,,,,,,,,,,,,,,,,,,,,,,,,,,,,,,,,,,,,,,,,,,,,0.025,,,,,,,,,,,,,,,,,,,,,,,,,,,,left,1,160,-30,130,1,5405.499545,5405.499545,5405.499545,None,None,1,1,0.4830975,,,,,,,,,,,,,,,,,,,10,9,1,2024-10-21_10h49.03.988,uWM_experiment,2022.2.3,59.992249
,,,,,,,,,,,,,,,,,,,,3,0,3,0,20,0,20,0,,,,,,,,,,,,,,,,,,,,,,,,,,,,,,,,,,,,,,,,,,,,,,,,,,,,,,,,,,,,,,,,,,,,,,0.035,,,,,,,,,,,,,,,,,,,,,,,,,,,,right,1,40,30,70,1,5412.616457,5412.616457,5412.616457,None,None,3,0,3.0539346,,,,,,,,,,,,,,,,,,,10,9,1,2024-10-21_10h49.03.988,uWM_experiment,2022.2.3,59.992249
,,,,,,,,,,,,,,,,,,,,3,0,3,0,21,0,21,0,,,,,,,,,,,,,,,,,,,,,,,,,,,,,,,,,,,,,,,,,,,,,,,,,,,,,,,,,,,,,,,,,,,,,,0,,,,,,,,,,,,,,,,,,,,,,,,,,,,left,0,160,30,190,0,5421.666817,5421.666817,5421.666817,None,None,3,0,4.50762,,,,,,,,,,,,,,,,,,,10,9,1,2024-10-21_10h49.03.988,uWM_experiment,2022.2.3,59.992249
,,,,,,,,,,,,,,,,,,,,3,0,3,0,22,0,22,0,,,,,,,,,,,,,,,,,,,,,,,,,,,,,,,,,,,,,,,,,,,,,,,,,,,,,,,,,,,,,,,,,,,,,,0,,,,,,,,,,,,,,,,,,,,,,,,,,,,left,1,70,-30,40,0,5432.233906,5432.233906,5432.233906,None,None,2,0,3.1324646,,,,,,,,,,,,,,,,,,,10,9,1,2024-10-21_10h49.03.988,uWM_experiment,2022.2.3,59.992249
,,,,,,,,,,,,,,,,,,,,3,0,3,0,23,0,23,0,,,,,,,,,,,,,,,,,,,,,,,,,,,,,,,,,,,,,,,,,,,,,,,,,,,,,,,,,,,,,,,,,,,,,,0.025,,,,,,,,,,,,,,,,,,,,,,,,,,,,right,1,10,30,40,1,5441.550965,5441.550965,5441.550965,None,None,2,0,0.5513462,,,,,,,,,,,,,,,,,,,10,9,1,2024-10-21_10h49.03.988,uWM_experiment,2022.2.3,59.992249
,,,,,,,,,,,,,,,,,,,,3,0,3,0,,,,,0,0,0,0,,,,,,,,,,,,,,,,,,,,,,,,,,,,,,,,,,,,,,,,,,,,,,,,,,,,,,,,,,,,,,,,,,,,,,,,,,,,,,,,,,,,,,,,,,,,,,,,,,,,,,,,,,,,5442.134282,5442.134282,space,2.744135,None,None,,,,,,,,,,,,,10,9,1,2024-10-21_10h49.03.988,uWM_experiment,2022.2.3,59.992249
,,,,,,,,,,,,,,,,,,,,3,0,3,0,,,,,1,0,1,0,,,,,,,,,,,,,,,,,,,,,,,,,,,,,,,,,,,,,,,,,,,,,,,,,,,,,,,,,,,,,,,,,,,,,,,,,,,,,,,,,,,,,,,,,,,,,,,,,,,,,,,,,,,,,,,,,,,,,,,,,,,,,,10,9,1,2024-10-21_10h49.03.988,uWM_experiment,2022.2.3,59.992249
,,,,,,,,,,,,,,,,,,,,3,0,3,0,,,,,2,0,2,0,,,,,,,,,,,,,,,,,,,,,,,,,,,,,,,,,,,,,,,,,,,,,,,,,,,,,,,,,,,,,,,,,,,,,,,,,,,,,,,,,,,,,,,,,,,,,,,,,,,,,,,,,,,,,,,,,,,,,,,,,,,,,,10,9,1,2024-10-21_10h49.03.988,uWM_experiment,2022.2.3,59.992249
,,,,,,,,,,,,,,,,,,,,4,0,4,0,0,0,0,0,,,,,,,,,,,,,,,,,,,,,,,,,,,,,,,,,,,,,,,,,,,,,,,,,,,,,,,,,,,,,,,,,,,,,,0.015,,,,,,,,,,,,,,,,,,,,5444.901089,5445.601125,5445.901126,5446.601157,5446.901147,5447.601189,5447.601189,5447.917888,left,0,70,30,100,1,5452.801422,5452.801422,5452.801422,None,None,2,0,1.0129351,,,,,,,None,,,,,,,,,,,,10,9,1,2024-10-21_10h49.03.988,uWM_experiment,2022.2.3,59.992249
,,,,,,,,,,,,,,,,,,,,4,0,4,0,1,0,1,0,,,,,,,,,,,,,,,,,,,,,,,,,,,,,,,,,,,,,,,,,,,,,,,,,,,,,,,,,,,,,,,,,,,,,,0.005,,,,,,,,,,,,,,,,,,,,,,,,,,,,right,0,160,-30,130,1,5461.801802,5461.801802,5461.801802,None,None,1,1,0.7485621,,,,,,,,,,,,,,,,,,,10,9,1,2024-10-21_10h49.03.988,uWM_experiment,2022.2.3,59.992249
,,,,,,,,,,,,,,,,,,,,4,0,4,0,2,0,2,0,,,,,,,,,,,,,,,,,,,,,,,,,,,,,,,,,,,,,,,,,,,,,,,,,,,,,,,,,,,,,,,,,,,,,,0.015,,,,,,,,,,,,,,,,,,,,,,,,,,,,right,1,10,30,40,1,5468.168715,5468.168715,5468.168715,None,None,1,1,0.5095874,,,,,,,,,,,,,,,,,,,10,9,1,2024-10-21_10h49.03.988,uWM_experiment,2022.2.3,59.992249
,,,,,,,,,,,,,,,,,,,,4,0,4,0,3,0,3,0,,,,,,,,,,,,,,,,,,,,,,,,,,,,,,,,,,,,,,,,,,,,,,,,,,,,,,,,,,,,,,,,,,,,,,0,,,,,,,,,,,,,,,,,,,,,,,,,,,,left,0,130,30,160,0,5474.552316,5474.552316,5474.552316,None,None,1,1,0.5980081,,,,,,,,,,,,,,,,,,,10,9,1,2024-10-21_10h49.03.988,uWM_experiment,2022.2.3,59.992249
,,,,,,,,,,,,,,,,,,,,4,0,4,0,4,0,4,0,,,,,,,,,,,,,,,,,,,,,,,,,,,,,,,,,,,,,,,,,,,,,,,,,,,,,,,,,,,,,,,,,,,,,,0.025,,,,,,,,,,,,,,,,,,,,,,,,,,,,right,0,70,-30,40,1,5480.685899,5480.685899,5480.685899,None,None,1,1,0.4484124,,,,,,,,,,,,,,,,,,,10,9,1,2024-10-21_10h49.03.988,uWM_experiment,2022.2.3,59.992249
,,,,,,,,,,,,,,,,,,,,4,0,4,0,5,0,5,0,,,,,,,,,,,,,,,,,,,,,,,,,,,,,,,,,,,,,,,,,,,,,,,,,,,,,,,,,,,,,,,,,,,,,,0.035,,,,,,,,,,,,,,,,,,,,,,,,,,,,left,1,40,-30,10,1,5487.852857,5487.852857,5487.852857,None,None,2,0,5.2012855,,,,,,,,,,,,,,,,,,,10,9,1,2024-10-21_10h49.03.988,uWM_experiment,2022.2.3,59.992249
,,,,,,,,,,,,,,,,,,,,4,0,4,0,6,0,6,0,,,,,,,,,,,,,,,,,,,,,,,,,,,,,,,,,,,,,,,,,,,,,,,,,,,,,,,,,,,,,,,,,,,,,,0.025,,,,,,,,,,,,,,,,,,,,,,,,,,,,left,0,130,30,160,1,5498.836621,5498.836621,5498.836621,None,None,2,0,1.6895095,,,,,,,,,,,,,,,,,,,10,9,1,2024-10-21_10h49.03.988,uWM_experiment,2022.2.3,59.992249
,,,,,,,,,,,,,,,,,,,,4,0,4,0,7,0,7,0,,,,,,,,,,,,,,,,,,,,,,,,,,,,,,,,,,,,,,,,,,,,,,,,,,,,,,,,,,,,,,,,,,,,,,0,,,,,,,,,,,,,,,,,,,,,,,,,,,,right,0,100,-30,70,0,5506.536947,5506.536947,5506.536947,None,None,2,0,1.1891486,,,,,,,,,,,,,,,,,,,10,9,1,2024-10-21_10h49.03.988,uWM_experiment,2022.2.3,59.992249
,,,,,,,,,,,,,,,,,,,,4,0,4,0,8,0,8,0,,,,,,,,,,,,,,,,,,,,,,,,,,,,,,,,,,,,,,,,,,,,,,,,,,,,,,,,,,,,,,,,,,,,,,0.1,,,,,,,,,,,,,,,,,,,,,,,,,,,,right,1,130,30,160,2,5513.787234,5513.787234,5513.787234,None,None,4,0,1.3149265,,,,,,,,,,,,,,,,,,,10,9,1,2024-10-21_10h49.03.988,uWM_experiment,2022.2.3,59.992249
,,,,,,,,,,,,,,,,,,,,4,0,4,0,9,0,9,0,,,,,,,,,,,,,,,,,,,,,,,,,,,,,,,,,,,,,,,,,,,,,,,,,,,,,,,,,,,,,,,,,,,,,,0.015,,,,,,,,,,,,,,,,,,,,,,,,,,,,right,1,100,30,130,1,5521.337532,5521.337532,5521.337532,None,None,1,1,1.2125865,,,,,,,,,,,,,,,,,,,10,9,1,2024-10-21_10h49.03.988,uWM_experiment,2022.2.3,59.992249
,,,,,,,,,,,,,,,,,,,,4,0,4,0,10,0,10,0,,,,,,,,,,,,,,,,,,,,,,,,,,,,,,,,,,,,,,,,,,,,,,,,,,,,,,,,,,,,,,,,,,,,,,0.025,,,,,,,,,,,,,,,,,,,,,,,,,,,,left,1,70,-30,40,1,5529.621241,5529.621241,5529.621241,None,None,2,0,0.7368123,,,,,,,,,,,,,,,,,,,10,9,1,2024-10-21_10h49.03.988,uWM_experiment,2022.2.3,59.992249
,,,,,,,,,,,,,,,,,,,,4,0,4,0,11,0,11,0,,,,,,,,,,,,,,,,,,,,,,,,,,,,,,,,,,,,,,,,,,,,,,,,,,,,,,,,,,,,,,,,,,,,,,0,,,,,,,,,,,,,,,,,,,,,,,,,,,,left,1,40,-30,10,0,5536.188159,5536.188159,5536.188159,None,None,2,0,1.6500197,,,,,,,,,,,,,,,,,,,10,9,1,2024-10-21_10h49.03.988,uWM_experiment,2022.2.3,59.992249
,,,,,,,,,,,,,,,,,,,,4,0,4,0,12,0,12,0,,,,,,,,,,,,,,,,,,,,,,,,,,,,,,,,,,,,,,,,,,,,,,,,,,,,,,,,,,,,,,,,,,,,,,0,,,,,,,,,,,,,,,,,,,,,,,,,,,,left,0,70,30,100,0,5543.471794,5543.471794,5543.471794,None,None,2,0,1.4221837,,,,,,,,,,,,,,,,,,,10,9,1,2024-10-21_10h49.03.988,uWM_experiment,2022.2.3,59.992249
,,,,,,,,,,,,,,,,,,,,4,0,4,0,13,0,13,0,,,,,,,,,,,,,,,,,,,,,,,,,,,,,,,,,,,,,,,,,,,,,,,,,,,,,,,,,,,,,,,,,,,,,,0,,,,,,,,,,,,,,,,,,,,,,,,,,,,left,0,160,30,190,0,5550.705391,5550.705391,5550.705391,None,None,1,1,0.3406158,,,,,,,,,,,,,,,,,,,10,9,1,2024-10-21_10h49.03.988,uWM_experiment,2022.2.3,59.992249
,,,,,,,,,,,,,,,,,,,,4,0,4,0,14,0,14,0,,,,,,,,,,,,,,,,,,,,,,,,,,,,,,,,,,,,,,,,,,,,,,,,,,,,,,,,,,,,,,,,,,,,,,0.015,,,,,,,,,,,,,,,,,,,,,,,,,,,,left,1,10,-30,-20,1,5556.455665,5556.455665,5556.455665,None,None,1,1,0.5263783,,,,,,,,,,,,,,,,,,,10,9,1,2024-10-21_10h49.03.988,uWM_experiment,2022.2.3,59.992249
,,,,,,,,,,,,,,,,,,,,4,0,4,0,15,0,15,0,,,,,,,,,,,,,,,,,,,,,,,,,,,,,,,,,,,,,,,,,,,,,,,,,,,,,,,,,,,,,,,,,,,,,,0.025,,,,,,,,,,,,,,,,,,,,,,,,,,,,right,0,100,-30,70,1,5562.805905,5562.805905,5562.805905,None,None,1,1,0.6002305,,,,,,,,,,,,,,,,,,,10,9,1,2024-10-21_10h49.03.988,uWM_experiment,2022.2.3,59.992249
,,,,,,,,,,,,,,,,,,,,4,0,4,0,16,0,16,0,,,,,,,,,,,,,,,,,,,,,,,,,,,,,,,,,,,,,,,,,,,,,,,,,,,,,,,,,,,,,,,,,,,,,,0.035,,,,,,,,,,,,,,,,,,,,,,,,,,,,left,1,130,-30,100,1,5569.789545,5569.789545,5569.789545,None,None,2,0,0.504357,,,,,,,,,,,,,,,,,,,10,9,1,2024-10-21_10h49.03.988,uWM_experiment,2022.2.3,59.992249
,,,,,,,,,,,,,,,,,,,,4,0,4,0,17,0,17,0,,,,,,,,,,,,,,,,,,,,,,,,,,,,,,,,,,,,,,,,,,,,,,,,,,,,,,,,,,,,,,,,,,,,,,0.025,,,,,,,,,,,,,,,,,,,,,,,,,,,,left,0,70,30,100,1,5576.389793,5576.389793,5576.389793,None,None,1,1,0.2801386,,,,,,,,,,,,,,,,,,,10,9,1,2024-10-21_10h49.03.988,uWM_experiment,2022.2.3,59.992249
,,,,,,,,,,,,,,,,,,,,4,0,4,0,18,0,18,0,,,,,,,,,,,,,,,,,,,,,,,,,,,,,,,,,,,,,,,,,,,,,,,,,,,,,,,,,,,,,,,,,,,,,,0,,,,,,,,,,,,,,,,,,,,,,,,,,,,right,0,100,-30,70,0,5582.756718,5582.756718,5582.756718,None,None,1,1,0.3292627,,,,,,,,,,,,,,,,,,,10,9,1,2024-10-21_10h49.03.988,uWM_experiment,2022.2.3,59.992249
,,,,,,,,,,,,,,,,,,,,4,0,4,0,19,0,19,0,,,,,,,,,,,,,,,,,,,,,,,,,,,,,,,,,,,,,,,,,,,,,,,,,,,,,,,,,,,,,,,,,,,,,,0.035,,,,,,,,,,,,,,,,,,,,,,,,,,,,left,1,100,-30,70,1,5589.223745,5589.223745,5589.223745,None,None,2,0,0.8622321,,,,,,,,,,,,,,,,,,,10,9,1,2024-10-21_10h49.03.988,uWM_experiment,2022.2.3,59.992249
,,,,,,,,,,,,,,,,,,,,4,0,4,0,20,0,20,0,,,,,,,,,,,,,,,,,,,,,,,,,,,,,,,,,,,,,,,,,,,,,,,,,,,,,,,,,,,,,,,,,,,,,,0.025,,,,,,,,,,,,,,,,,,,,,,,,,,,,right,1,100,30,130,1,5596.3073,5596.3073,5596.3073,None,None,2,0,0.5066026,,,,,,,,,,,,,,,,,,,10,9,1,2024-10-21_10h49.03.988,uWM_experiment,2022.2.3,59.992249
,,,,,,,,,,,,,,,,,,,,4,0,4,0,21,0,21,0,,,,,,,,,,,,,,,,,,,,,,,,,,,,,,,,,,,,,,,,,,,,,,,,,,,,,,,,,,,,,,,,,,,,,,0.015,,,,,,,,,,,,,,,,,,,,,,,,,,,,right,1,100,30,130,1,5602.807535,5602.807535,5602.807535,None,None,2,0,0.3503366,,,,,,,,,,,,,,,,,,,10,9,1,2024-10-21_10h49.03.988,uWM_experiment,2022.2.3,59.992249
,,,,,,,,,,,,,,,,,,,,4,0,4,0,22,0,22,0,,,,,,,,,,,,,,,,,,,,,,,,,,,,,,,,,,,,,,,,,,,,,,,,,,,,,,,,,,,,,,,,,,,,,,0,,,,,,,,,,,,,,,,,,,,,,,,,,,,right,1,100,30,130,0,5611.674585,5611.674585,5611.674585,None,None,2,0,1.2191775,,,,,,,,,,,,,,,,,,,10,9,1,2024-10-21_10h49.03.988,uWM_experiment,2022.2.3,59.992249
,,,,,,,,,,,,,,,,,,,,4,0,4,0,23,0,23,0,,,,,,,,,,,,,,,,,,,,,,,,,,,,,,,,,,,,,,,,,,,,,,,,,,,,,,,,,,,,,,,,,,,,,,0.005,,,,,,,,,,,,,,,,,,,,,,,,,,,,left,1,130,-30,100,1,5619.14156,5619.14156,5619.14156,None,None,1,1,0.3362199,,,,,,,,,,,,,,,,,,,10,9,1,2024-10-21_10h49.03.988,uWM_experiment,2022.2.3,59.992249
,,,,,,,,,,,,,,,,,,,,4,0,4,0,,,,,0,0,0,0,,,,,,,,,,,,,,,,,,,,,,,,,,,,,,,,,,,,,,,,,,,,,,,,,,,,,,,,,,,,,,,,,,,,,,,,,,,,,,,,,,,,,,,,,,,,,,,,,,,,,,,,,,,,5619.508214,5619.508214,space,1.9456318,None,None,,,,,,,,,,,,,10,9,1,2024-10-21_10h49.03.988,uWM_experiment,2022.2.3,59.992249
,,,,,,,,,,,,,,,,,,,,4,0,4,0,,,,,1,0,1,0,,,,,,,,,,,,,,,,,,,,,,,,,,,,,,,,,,,,,,,,,,,,,,,,,,,,,,,,,,,,,,,,,,,,,,,,,,,,,,,,,,,,,,,,,,,,,,,,,,,,,,,,,,,,,,,,,,,,,,,,,,,,,,10,9,1,2024-10-21_10h49.03.988,uWM_experiment,2022.2.3,59.992249
,,,,,,,,,,,,,,,,,,,,4,0,4,0,,,,,2,0,2,0,,,,,,,,,,,,,,,,,,,,,,,,,,,,,,,,,,,,,,,,,,,,,,,,,,,,,,,,,,,,,,,,,,,,,,,,,,,,,,,,,,,,,,,,,,,,,,,,,,,,,,,,,,,,,,,,,,,,,,,,,,,,,,10,9,1,2024-10-21_10h49.03.988,uWM_experiment,2022.2.3,59.992249
,,,,,,,,,,,,,,,,,,,,5,0,5,0,0,0,0,0,,,,,,,,,,,,,,,,,,,,,,,,,,,,,,,,,,,,,,,,,,,,,,,,,,,,,,,,,,,,,,,,,,,,,,0.015,,,,,,,,,,,,,,,,,,,,5621.474969,5622.174999,5622.475011,5623.175038,5623.475052,5624.175089,5624.175089,5624.491789,right,1,40,30,70,1,5629.341959,5629.341959,5629.341959,None,None,1,1,1.9919325,,,,,,,None,,,,,,,,,,,,10,9,1,2024-10-21_10h49.03.988,uWM_experiment,2022.2.3,59.992249
,,,,,,,,,,,,,,,,,,,,5,0,5,0,1,0,1,0,,,,,,,,,,,,,,,,,,,,,,,,,,,,,,,,,,,,,,,,,,,,,,,,,,,,,,,,,,,,,,,,,,,,,,0,,,,,,,,,,,,,,,,,,,,,,,,,,,,right,0,100,-30,70,0,5636.908957,5636.908957,5636.908957,None,None,1,1,1.2408884,,,,,,,,,,,,,,,,,,,10,9,1,2024-10-21_10h49.03.988,uWM_experiment,2022.2.3,59.992249
,,,,,,,,,,,,,,,,,,,,5,0,5,0,2,0,2,0,,,,,,,,,,,,,,,,,,,,,,,,,,,,,,,,,,,,,,,,,,,,,,,,,,,,,,,,,,,,,,,,,,,,,,0,,,,,,,,,,,,,,,,,,,,,,,,,,,,left,0,130,30,160,0,5643.659245,5643.659245,5643.659245,None,None,1,1,0.4745619,,,,,,,,,,,,,,,,,,,10,9,1,2024-10-21_10h49.03.988,uWM_experiment,2022.2.3,59.992249
,,,,,,,,,,,,,,,,,,,,5,0,5,0,3,0,3,0,,,,,,,,,,,,,,,,,,,,,,,,,,,,,,,,,,,,,,,,,,,,,,,,,,,,,,,,,,,,,,,,,,,,,,0,,,,,,,,,,,,,,,,,,,,,,,,,,,,left,1,10,-30,-20,0,5649.742863,5649.742863,5649.742863,None,None,1,1,0.4948875,,,,,,,,,,,,,,,,,,,10,9,1,2024-10-21_10h49.03.988,uWM_experiment,2022.2.3,59.992249
,,,,,,,,,,,,,,,,,,,,5,0,5,0,4,0,4,0,,,,,,,,,,,,,,,,,,,,,,,,,,,,,,,,,,,,,,,,,,,,,,,,,,,,,,,,,,,,,,,,,,,,,,0,,,,,,,,,,,,,,,,,,,,,,,,,,,,left,1,160,-30,130,0,5655.976378,5655.976378,5655.976378,None,None,1,1,11.1813888,,,,,,,,,,,,,,,,,,,10,9,1,2024-10-21_10h49.03.988,uWM_experiment,2022.2.3,59.992249
,,,,,,,,,,,,,,,,,,,,5,0,5,0,5,0,5,0,,,,,,,,,,,,,,,,,,,,,,,,,,,,,,,,,,,,,,,,,,,,,,,,,,,,,,,,,,,,,,,,,,,,,,0.1,,,,,,,,,,,,,,,,,,,,,,,,,,,,right,1,10,30,40,2,5673.310418,5673.310418,5673.310418,None,None,4,0,0.5272174,,,,,,,,,,,,,,,,,,,10,9,1,2024-10-21_10h49.03.988,uWM_experiment,2022.2.3,59.992249
,,,,,,,,,,,,,,,,,,,,5,0,5,0,6,0,6,0,,,,,,,,,,,,,,,,,,,,,,,,,,,,,,,,,,,,,,,,,,,,,,,,,,,,,,,,,,,,,,,,,,,,,,0.025,,,,,,,,,,,,,,,,,,,,,,,,,,,,left,1,40,-30,10,1,5679.627379,5679.627379,5679.627379,None,None,1,1,1.0342193,,,,,,,,,,,,,,,,,,,10,9,1,2024-10-21_10h49.03.988,uWM_experiment,2022.2.3,59.992249
,,,,,,,,,,,,,,,,,,,,5,0,5,0,7,0,7,0,,,,,,,,,,,,,,,,,,,,,,,,,,,,,,,,,,,,,,,,,,,,,,,,,,,,,,,,,,,,,,,,,,,,,,0.035,,,,,,,,,,,,,,,,,,,,,,,,,,,,left,1,130,-30,100,1,5686.644321,5686.644321,5686.644321,None,None,2,0,0.9453036,,,,,,,,,,,,,,,,,,,10,9,1,2024-10-21_10h49.03.988,uWM_experiment,2022.2.3,59.992249
,,,,,,,,,,,,,,,,,,,,5,0,5,0,8,0,8,0,,,,,,,,,,,,,,,,,,,,,,,,,,,,,,,,,,,,,,,,,,,,,,,,,,,,,,,,,,,,,,,,,,,,,,0.025,,,,,,,,,,,,,,,,,,,,,,,,,,,,left,1,40,-30,10,1,5693.477933,5693.477933,5693.477933,None,None,2,0,0.5517365,,,,,,,,,,,,,,,,,,,10,9,1,2024-10-21_10h49.03.988,uWM_experiment,2022.2.3,59.992249
,,,,,,,,,,,,,,,,,,,,5,0,5,0,9,0,9,0,,,,,,,,,,,,,,,,,,,,,,,,,,,,,,,,,,,,,,,,,,,,,,,,,,,,,,,,,,,,,,,,,,,,,,0,,,,,,,,,,,,,,,,,,,,,,,,,,,,left,1,10,-30,-20,0,5700.028185,5700.028185,5700.028185,None,None,2,0,0.6173405,,,,,,,,,,,,,,,,,,,10,9,1,2024-10-21_10h49.03.988,uWM_experiment,2022.2.3,59.992249
,,,,,,,,,,,,,,,,,,,,5,0,5,0,10,0,10,0,,,,,,,,,,,,,,,,,,,,,,,,,,,,,,,,,,,,,,,,,,,,,,,,,,,,,,,,,,,,,,,,,,,,,,0,,,,,,,,,,,,,,,,,,,,,,,,,,,,right,1,100,30,130,0,5706.545141,5706.545141,5706.545141,None,None,2,0,0.2843471,,,,,,,,,,,,,,,,,,,10,9,1,2024-10-21_10h49.03.988,uWM_experiment,2022.2.3,59.992249
,,,,,,,,,,,,,,,,,,,,5,0,5,0,11,0,11,0,,,,,,,,,,,,,,,,,,,,,,,,,,,,,,,,,,,,,,,,,,,,,,,,,,,,,,,,,,,,,,,,,,,,,,0,,,,,,,,,,,,,,,,,,,,,,,,,,,,right,0,10,-30,-20,0,5714.528793,5714.528793,5714.528793,None,None,1,1,0.476781,,,,,,,,,,,,,,,,,,,10,9,1,2024-10-21_10h49.03.988,uWM_experiment,2022.2.3,59.992249
,,,,,,,,,,,,,,,,,,,,5,0,5,0,12,0,12,0,,,,,,,,,,,,,,,,,,,,,,,,,,,,,,,,,,,,,,,,,,,,,,,,,,,,,,,,,,,,,,,,,,,,,,0.015,,,,,,,,,,,,,,,,,,,,,,,,,,,,right,0,70,-30,40,1,5721.345726,5721.345726,5721.345726,None,None,1,1,2.7157888,,,,,,,,,,,,,,,,,,,10,9,1,2024-10-21_10h49.03.988,uWM_experiment,2022.2.3,59.992249
,,,,,,,,,,,,,,,,,,,,5,0,5,0,13,0,13,0,,,,,,,,,,,,,,,,,,,,,,,,,,,,,,,,,,,,,,,,,,,,,,,,,,,,,,,,,,,,,,,,,,,,,,0.025,,,,,,,,,,,,,,,,,,,,,,,,,,,,left,0,10,30,40,1,5730.262756,5730.262756,5730.262756,None,None,2,0,1.7107121,,,,,,,,,,,,,,,,,,,10,9,1,2024-10-21_10h49.03.988,uWM_experiment,2022.2.3,59.992249
,,,,,,,,,,,,,,,,,,,,5,0,5,0,14,0,14,0,,,,,,,,,,,,,,,,,,,,,,,,,,,,,,,,,,,,,,,,,,,,,,,,,,,,,,,,,,,,,,,,,,,,,,0.015,,,,,,,,,,,,,,,,,,,,,,,,,,,,left,1,160,-30,130,1,5737.879753,5737.879753,5737.879753,None,None,2,0,0.7176291,,,,,,,,,,,,,,,,,,,10,9,1,2024-10-21_10h49.03.988,uWM_experiment,2022.2.3,59.992249
,,,,,,,,,,,,,,,,,,,,5,0,5,0,15,0,15,0,,,,,,,,,,,,,,,,,,,,,,,,,,,,,,,,,,,,,,,,,,,,,,,,,,,,,,,,,,,,,,,,,,,,,,0,,,,,,,,,,,,,,,,,,,,,,,,,,,,right,0,100,-30,70,0,5744.330015,5744.330015,5744.330015,None,None,2,0,0.6274138,,,,,,,,,,,,,,,,,,,10,9,1,2024-10-21_10h49.03.988,uWM_experiment,2022.2.3,59.992249
,,,,,,,,,,,,,,,,,,,,5,0,5,0,16,0,16,0,,,,,,,,,,,,,,,,,,,,,,,,,,,,,,,,,,,,,,,,,,,,,,,,,,,,,,,,,,,,,,,,,,,,,,0.005,,,,,,,,,,,,,,,,,,,,,,,,,,,,left,0,100,30,130,1,5750.830255,5750.830255,5750.830255,None,None,1,1,0.5112264,,,,,,,,,,,,,,,,,,,10,9,1,2024-10-21_10h49.03.988,uWM_experiment,2022.2.3,59.992249
,,,,,,,,,,,,,,,,,,,,5,0,5,0,17,0,17,0,,,,,,,,,,,,,,,,,,,,,,,,,,,,,,,,,,,,,,,,,,,,,,,,,,,,,,,,,,,,,,,,,,,,,,0.015,,,,,,,,,,,,,,,,,,,,,,,,,,,,left,1,130,-30,100,1,5756.93051,5756.93051,5756.93051,None,None,1,1,3.0348334,,,,,,,,,,,,,,,,,,,10,9,1,2024-10-21_10h49.03.988,uWM_experiment,2022.2.3,59.992249
,,,,,,,,,,,,,,,,,,,,5,0,5,0,18,0,18,0,,,,,,,,,,,,,,,,,,,,,,,,,,,,,,,,,,,,,,,,,,,,,,,,,,,,,,,,,,,,,,,,,,,,,,0.025,,,,,,,,,,,,,,,,,,,,,,,,,,,,right,1,130,30,160,1,5765.647533,5765.647533,5765.647533,None,None,2,0,0.4377526,,,,,,,,,,,,,,,,,,,10,9,1,2024-10-21_10h49.03.988,uWM_experiment,2022.2.3,59.992249
,,,,,,,,,,,,,,,,,,,,5,0,5,0,19,0,19,0,,,,,,,,,,,,,,,,,,,,,,,,,,,,,,,,,,,,,,,,,,,,,,,,,,,,,,,,,,,,,,,,,,,,,,0.1,,,,,,,,,,,,,,,,,,,,,,,,,,,,right,1,10,30,40,2,5772.047757,5772.047757,5772.047757,None,None,4,0,0.5495905,,,,,,,,,,,,,,,,,,,10,9,1,2024-10-21_10h49.03.988,uWM_experiment,2022.2.3,59.992249
,,,,,,,,,,,,,,,,,,,,5,0,5,0,20,0,20,0,,,,,,,,,,,,,,,,,,,,,,,,,,,,,,,,,,,,,,,,,,,,,,,,,,,,,,,,,,,,,,,,,,,,,,0.015,,,,,,,,,,,,,,,,,,,,,,,,,,,,right,0,160,-30,130,1,5778.898066,5778.898066,5778.898066,None,None,1,1,0.3072485,,,,,,,,,,,,,,,,,,,10,9,1,2024-10-21_10h49.03.988,uWM_experiment,2022.2.3,59.992249
,,,,,,,,,,,,,,,,,,,,5,0,5,0,21,0,21,0,,,,,,,,,,,,,,,,,,,,,,,,,,,,,,,,,,,,,,,,,,,,,,,,,,,,,,,,,,,,,,,,,,,,,,0.025,,,,,,,,,,,,,,,,,,,,,,,,,,,,right,1,40,30,70,1,5784.848331,5784.848331,5784.848331,None,None,1,1,0.7810375,,,,,,,,,,,,,,,,,,,10,9,1,2024-10-21_10h49.03.988,uWM_experiment,2022.2.3,59.992249
,,,,,,,,,,,,,,,,,,,,5,0,5,0,22,0,22,0,,,,,,,,,,,,,,,,,,,,,,,,,,,,,,,,,,,,,,,,,,,,,,,,,,,,,,,,,,,,,,,,,,,,,,0,,,,,,,,,,,,,,,,,,,,,,,,,,,,left,1,10,-30,-20,0,5791.281914,5791.281914,5791.281914,None,None,1,1,0.8353151,,,,,,,,,,,,,,,,,,,10,9,1,2024-10-21_10h49.03.988,uWM_experiment,2022.2.3,59.992249
,,,,,,,,,,,,,,,,,,,,5,0,5,0,23,0,23,0,,,,,,,,,,,,,,,,,,,,,,,,,,,,,,,,,,,,,,,,,,,,,,,,,,,,,,,,,,,,,,,,,,,,,,0.035,,,,,,,,,,,,,,,,,,,,,,,,,,,,right,1,10,30,40,1,5797.715514,5797.715514,5797.715514,None,None,1,1,0.4817213,,,,,,,,,,,,,,,,,,,10,9,1,2024-10-21_10h49.03.988,uWM_experiment,2022.2.3,59.992249
,,,,,,,,,,,,,,,,,,,,5,0,5,0,,,,,0,0,0,0,,,,,,,,,,,,,,,,,,,,,,,,,,,,,,,,,,,,,,,,,,,,,,,,,,,,,,,,,,,,,,,,,,,,,,,,,,,,,,,,,,,,,,,,,,,,,,,,,,,,,,,,,,,,5798.215512,5798.215512,space,5.2697776,space,None,,5803.515726,5803.515726,12.1055607,,,,,,,,,10,9,1,2024-10-21_10h49.03.988,uWM_experiment,2022.2.3,59.992249
,,,,,,,,,,,,,,,,,,,,5,0,5,0,,,,,1,0,1,0,,,,,,,,,,,,,,,,,,,,,,,,,,,,,,,,,,,,,,,,,,,,,,,,,,,,,,,,,,,,,,,,,,,,,,,,,,,,,,,,,,,,,,,,,,,,,,,,,,,,,,,,,,,,,,,,,,,,,,,,,,,,,,10,9,1,2024-10-21_10h49.03.988,uWM_experiment,2022.2.3,59.992249
,,,,,,,,,,,,,,,,,,,,5,0,5,0,,,,,2,0,2,0,,,,,,,,,,,,,,,,,,,,,,,,,,,,,,,,,,,,,,,,,,,,,,,,,,,,,,,,,,,,,,,,,,,,,,,,,,,,,,,,,,,,,,,,,,,,,,,,,,,,,,,,,,,,,,,,,,,,,,,,,,,,,,10,9,1,2024-10-21_10h49.03.988,uWM_experiment,2022.2.3,59.992249
,,,,,,,,,,,,,,,,,,,,6,0,6,0,0,0,0,0,,,,,,,,,,,,,,,,,,,,,,,,,,,,,,,,,,,,,,,,,,,,,,,,,,,,,,,,,,,,,,,,,,,,,,0.045,,,,,,,,,,,,,,,,,,,,5815.649574,5816.349598,5816.649613,5817.349644,5817.649656,5818.349676,5818.349676,5818.666363,left,1,160,-30,130,1,5823.216553,5823.216553,5823.216553,None,None,2,0,1.2845878,,,,,,,None,,,,,,,,,,,,10,9,1,2024-10-21_10h49.03.988,uWM_experiment,2022.2.3,59.992249
,,,,,,,,,,,,,,,,,,,,6,0,6,0,1,0,1,0,,,,,,,,,,,,,,,,,,,,,,,,,,,,,,,,,,,,,,,,,,,,,,,,,,,,,,,,,,,,,,,,,,,,,,0.035,,,,,,,,,,,,,,,,,,,,,,,,,,,,right,0,100,-30,70,1,5831.816896,5831.816896,5831.816896,None,None,2,0,5.7643348,,,,,,,,,,,,,,,,,,,10,9,1,2024-10-21_10h49.03.988,uWM_experiment,2022.2.3,59.992249
,,,,,,,,,,,,,,,,,,,,6,0,6,0,2,0,2,0,,,,,,,,,,,,,,,,,,,,,,,,,,,,,,,,,,,,,,,,,,,,,,,,,,,,,,,,,,,,,,,,,,,,,,0.025,,,,,,,,,,,,,,,,,,,,,,,,,,,,left,1,160,-30,130,1,5846.250828,5846.250828,5846.250828,None,None,2,0,1.3623501,,,,,,,,,,,,,,,,,,,10,9,1,2024-10-21_10h49.03.988,uWM_experiment,2022.2.3,59.992249
,,,,,,,,,,,,,,,,,,,,6,0,6,0,3,0,3,0,,,,,,,,,,,,,,,,,,,,,,,,,,,,,,,,,,,,,,,,,,,,,,,,,,,,,,,,,,,,,,,,,,,,,,0,,,,,,,,,,,,,,,,,,,,,,,,,,,,right,1,40,30,70,0,5853.667818,5853.667818,5853.667818,None,None,2,0,0.5933034,,,,,,,,,,,,,,,,,,,10,9,1,2024-10-21_10h49.03.988,uWM_experiment,2022.2.3,59.992249
,,,,,,,,,,,,,,,,,,,,6,0,6,0,4,0,4,0,,,,,,,,,,,,,,,,,,,,,,,,,,,,,,,,,,,,,,,,,,,,,,,,,,,,,,,,,,,,,,,,,,,,,,0.015,,,,,,,,,,,,,,,,,,,,,,,,,,,,left,0,130,30,160,1,5860.401415,5860.401415,5860.401415,None,None,2,0,0.6436121,,,,,,,,,,,,,,,,,,,10,9,1,2024-10-21_10h49.03.988,uWM_experiment,2022.2.3,59.992249
,,,,,,,,,,,,,,,,,,,,6,0,6,0,5,0,5,0,,,,,,,,,,,,,,,,,,,,,,,,,,,,,,,,,,,,,,,,,,,,,,,,,,,,,,,,,,,,,,,,,,,,,,0.005,,,,,,,,,,,,,,,,,,,,,,,,,,,,left,0,70,30,100,1,5866.568313,5866.568313,5866.568313,None,None,1,1,0.4366746,,,,,,,,,,,,,,,,,,,10,9,1,2024-10-21_10h49.03.988,uWM_experiment,2022.2.3,59.992249
,,,,,,,,,,,,,,,,,,,,6,0,6,0,6,0,6,0,,,,,,,,,,,,,,,,,,,,,,,,,,,,,,,,,,,,,,,,,,,,,,,,,,,,,,,,,,,,,,,,,,,,,,0,,,,,,,,,,,,,,,,,,,,,,,,,,,,right,1,40,30,70,0,5872.4519,5872.4519,5872.4519,None,None,1,1,0.6410754,,,,,,,,,,,,,,,,,,,10,9,1,2024-10-21_10h49.03.988,uWM_experiment,2022.2.3,59.992249
,,,,,,,,,,,,,,,,,,,,6,0,6,0,7,0,7,0,,,,,,,,,,,,,,,,,,,,,,,,,,,,,,,,,,,,,,,,,,,,,,,,,,,,,,,,,,,,,,,,,,,,,,0.015,,,,,,,,,,,,,,,,,,,,,,,,,,,,left,1,40,-30,10,1,5878.802191,5878.802191,5878.802191,None,None,2,0,0.2828357,,,,,,,,,,,,,,,,,,,10,9,1,2024-10-21_10h49.03.988,uWM_experiment,2022.2.3,59.992249
,,,,,,,,,,,,,,,,,,,,6,0,6,0,8,0,8,0,,,,,,,,,,,,,,,,,,,,,,,,,,,,,,,,,,,,,,,,,,,,,,,,,,,,,,,,,,,,,,,,,,,,,,0,,,,,,,,,,,,,,,,,,,,,,,,,,,,right,1,160,30,190,0,5886.235825,5886.235825,5886.235825,None,None,1,1,0.489113,,,,,,,,,,,,,,,,,,,10,9,1,2024-10-21_10h49.03.988,uWM_experiment,2022.2.3,59.992249
,,,,,,,,,,,,,,,,,,,,6,0,6,0,9,0,9,0,,,,,,,,,,,,,,,,,,,,,,,,,,,,,,,,,,,,,,,,,,,,,,,,,,,,,,,,,,,,,,,,,,,,,,0,,,,,,,,,,,,,,,,,,,,,,,,,,,,left,0,160,30,190,0,5893.036068,5893.036068,5893.036068,None,None,2,0,1.0569541,,,,,,,,,,,,,,,,,,,10,9,1,2024-10-21_10h49.03.988,uWM_experiment,2022.2.3,59.992249
,,,,,,,,,,,,,,,,,,,,6,0,6,0,10,0,10,0,,,,,,,,,,,,,,,,,,,,,,,,,,,,,,,,,,,,,,,,,,,,,,,,,,,,,,,,,,,,,,,,,,,,,,0.005,,,,,,,,,,,,,,,,,,,,,,,,,,,,right,0,40,-30,10,1,5900.236366,5900.236366,5900.236366,None,None,2,0,1.4965348,,,,,,,,,,,,,,,,,,,10,9,1,2024-10-21_10h49.03.988,uWM_experiment,2022.2.3,59.992249
,,,,,,,,,,,,,,,,,,,,6,0,6,0,11,0,11,0,,,,,,,,,,,,,,,,,,,,,,,,,,,,,,,,,,,,,,,,,,,,,,,,,,,,,,,,,,,,,,,,,,,,,,0.005,,,,,,,,,,,,,,,,,,,,,,,,,,,,left,0,130,30,160,1,5907.403316,5907.403316,5907.403316,None,None,1,1,0.4575698,,,,,,,,,,,,,,,,,,,10,9,1,2024-10-21_10h49.03.988,uWM_experiment,2022.2.3,59.992249
,,,,,,,,,,,,,,,,,,,,6,0,6,0,12,0,12,0,,,,,,,,,,,,,,,,,,,,,,,,,,,,,,,,,,,,,,,,,,,,,,,,,,,,,,,,,,,,,,,,,,,,,,0,,,,,,,,,,,,,,,,,,,,,,,,,,,,right,0,40,-30,10,0,5913.303573,5913.303573,5913.303573,None,None,1,1,0.4133642,,,,,,,,,,,,,,,,,,,10,9,1,2024-10-21_10h49.03.988,uWM_experiment,2022.2.3,59.992249
,,,,,,,,,,,,,,,,,,,,6,0,6,0,13,0,13,0,,,,,,,,,,,,,,,,,,,,,,,,,,,,,,,,,,,,,,,,,,,,,,,,,,,,,,,,,,,,,,,,,,,,,,0.015,,,,,,,,,,,,,,,,,,,,,,,,,,,,right,0,100,-30,70,1,5919.320557,5919.320557,5919.320557,None,None,1,1,0.4603388,,,,,,,,,,,,,,,,,,,10,9,1,2024-10-21_10h49.03.988,uWM_experiment,2022.2.3,59.992249
,,,,,,,,,,,,,,,,,,,,6,0,6,0,14,0,14,0,,,,,,,,,,,,,,,,,,,,,,,,,,,,,,,,,,,,,,,,,,,,,,,,,,,,,,,,,,,,,,,,,,,,,,0.025,,,,,,,,,,,,,,,,,,,,,,,,,,,,left,1,160,-30,130,1,5925.870764,5925.870764,5925.870764,None,None,2,0,0.398109,,,,,,,,,,,,,,,,,,,10,9,1,2024-10-21_10h49.03.988,uWM_experiment,2022.2.3,59.992249
,,,,,,,,,,,,,,,,,,,,6,0,6,0,15,0,15,0,,,,,,,,,,,,,,,,,,,,,,,,,,,,,,,,,,,,,,,,,,,,,,,,,,,,,,,,,,,,,,,,,,,,,,0.015,,,,,,,,,,,,,,,,,,,,,,,,,,,,right,0,70,-30,40,1,5932.38767,5932.38767,5932.38767,None,None,2,0,3.1611161,,,,,,,,,,,,,,,,,,,10,9,1,2024-10-21_10h49.03.988,uWM_experiment,2022.2.3,59.992249
,,,,,,,,,,,,,,,,,,,,6,0,6,0,16,0,16,0,,,,,,,,,,,,,,,,,,,,,,,,,,,,,,,,,,,,,,,,,,,,,,,,,,,,,,,,,,,,,,,,,,,,,,0.005,,,,,,,,,,,,,,,,,,,,,,,,,,,,left,0,100,30,130,1,5941.221395,5941.221395,5941.221395,None,None,1,1,0.591425,,,,,,,,,,,,,,,,,,,10,9,1,2024-10-21_10h49.03.988,uWM_experiment,2022.2.3,59.992249
,,,,,,,,,,,,,,,,,,,,6,0,6,0,17,0,17,0,,,,,,,,,,,,,,,,,,,,,,,,,,,,,,,,,,,,,,,,,,,,,,,,,,,,,,,,,,,,,,,,,,,,,,0,,,,,,,,,,,,,,,,,,,,,,,,,,,,right,0,70,-30,40,0,5947.454953,5947.454953,5947.454953,None,None,1,1,3.2138727,,,,,,,,,,,,,,,,,,,10,9,1,2024-10-21_10h49.03.988,uWM_experiment,2022.2.3,59.992249
,,,,,,,,,,,,,,,,,,,,6,0,6,0,18,0,18,0,,,,,,,,,,,,,,,,,,,,,,,,,,,,,,,,,,,,,,,,,,,,,,,,,,,,,,,,,,,,,,,,,,,,,,0.015,,,,,,,,,,,,,,,,,,,,,,,,,,,,left,0,130,30,160,1,5956.171974,5956.171974,5956.171974,None,None,1,1,1.1767964,,,,,,,,,,,,,,,,,,,10,9,1,2024-10-21_10h49.03.988,uWM_experiment,2022.2.3,59.992249
,,,,,,,,,,,,,,,,,,,,6,0,6,0,19,0,19,0,,,,,,,,,,,,,,,,,,,,,,,,,,,,,,,,,,,,,,,,,,,,,,,,,,,,,,,,,,,,,,,,,,,,,,0,,,,,,,,,,,,,,,,,,,,,,,,,,,,right,1,40,30,70,0,5962.97227,5962.97227,5962.97227,None,None,1,1,0.4884222,,,,,,,,,,,,,,,,,,,10,9,1,2024-10-21_10h49.03.988,uWM_experiment,2022.2.3,59.992249
,,,,,,,,,,,,,,,,,,,,6,0,6,0,20,0,20,0,,,,,,,,,,,,,,,,,,,,,,,,,,,,,,,,,,,,,,,,,,,,,,,,,,,,,,,,,,,,,,,,,,,,,,0,,,,,,,,,,,,,,,,,,,,,,,,,,,,right,1,40,30,70,0,5969.072539,5969.072539,5969.072539,None,None,1,1,0.3401754,,,,,,,,,,,,,,,,,,,10,9,1,2024-10-21_10h49.03.988,uWM_experiment,2022.2.3,59.992249
,,,,,,,,,,,,,,,,,,,,6,0,6,0,21,0,21,0,,,,,,,,,,,,,,,,,,,,,,,,,,,,,,,,,,,,,,,,,,,,,,,,,,,,,,,,,,,,,,,,,,,,,,0.025,,,,,,,,,,,,,,,,,,,,,,,,,,,,right,0,70,-30,40,1,5974.772764,5974.772764,5974.772764,None,None,1,1,0.407942,,,,,,,,,,,,,,,,,,,10,9,1,2024-10-21_10h49.03.988,uWM_experiment,2022.2.3,59.992249
,,,,,,,,,,,,,,,,,,,,6,0,6,0,22,0,22,0,,,,,,,,,,,,,,,,,,,,,,,,,,,,,,,,,,,,,,,,,,,,,,,,,,,,,,,,,,,,,,,,,,,,,,0.035,,,,,,,,,,,,,,,,,,,,,,,,,,,,left,1,40,-30,10,1,5980.839686,5980.839686,5980.839686,None,None,2,0,0.5009721,,,,,,,,,,,,,,,,,,,10,9,1,2024-10-21_10h49.03.988,uWM_experiment,2022.2.3,59.992249
,,,,,,,,,,,,,,,,,,,,6,0,6,0,23,0,23,0,,,,,,,,,,,,,,,,,,,,,,,,,,,,,,,,,,,,,,,,,,,,,,,,,,,,,,,,,,,,,,,,,,,,,,0.025,,,,,,,,,,,,,,,,,,,,,,,,,,,,right,1,100,30,130,1,5986.789909,5986.789909,5986.789909,None,None,2,0,0.7747395,,,,,,,,,,,,,,,,,,,10,9,1,2024-10-21_10h49.03.988,uWM_experiment,2022.2.3,59.992249
,,,,,,,,,,,,,,,,,,,,6,0,6,0,,,,,0,0,0,0,,,,,,,,,,,,,,,,,,,,,,,,,,,,,,,,,,,,,,,,,,,,,,,,,,,,,,,,,,,,,,,,,,,,,,,,,,,,,,,,,,,,,,,,,,,,,,,,,,,,,,,,,,,,5987.589919,5987.589919,space,2.5428266,None,space,,,,,5990.156697,5990.156697,20.2319691,,,,,,10,9,1,2024-10-21_10h49.03.988,uWM_experiment,2022.2.3,59.992249
,,,,,,,,,,,,,,,,,,,,6,0,6,0,,,,,1,0,1,0,,,,,,,,,,,,,,,,,,,,,,,,,,,,,,,,,,,,,,,,,,,,,,,,,,,,,,,,,,,,,,,,,,,,,,,,,,,,,,,,,,,,,,,,,,,,,,,,,,,,,,,,,,,,,,,,,,,,,,,,,,,,,,10,9,1,2024-10-21_10h49.03.988,uWM_experiment,2022.2.3,59.992249
,,,,,,,,,,,,,,,,,,,,6,0,6,0,,,,,2,0,2,0,,,,,,,,,,,,,,,,,,,,,,,,,,,,,,,,,,,,,,,,,,,,,,,,,,,,,,,,,,,,,,,,,,,,,,,,,,,,,,,,,,,,,,,,,,,,,,,,,,,,,,,,,,,,,,,,,,,,,,,,,,,,,,10,9,1,2024-10-21_10h49.03.988,uWM_experiment,2022.2.3,59.992249
,,,,,,,,,,,,,,,,,,,,7,0,7,0,0,0,0,0,,,,,,,,,,,,,,,,,,,,,,,,,,,,,,,,,,,,,,,,,,,,,,,,,,,,,,,,,,,,,,,,,,,,,,0.015,,,,,,,,,,,,,,,,,,,,6040.092087,6040.792113,6041.075481,6041.775487,6042.075493,6042.775546,6042.775546,6043.09222,right,1,160,30,190,1,6049.775843,6049.775843,6049.775843,None,None,1,1,0.5886668,,,,,,,space,,,,,,,6030.625031,6030.625031,9.443437,,,10,9,1,2024-10-21_10h49.03.988,uWM_experiment,2022.2.3,59.992249
,,,,,,,,,,,,,,,,,,,,7,0,7,0,1,0,1,0,,,,,,,,,,,,,,,,,,,,,,,,,,,,,,,,,,,,,,,,,,,,,,,,,,,,,,,,,,,,,,,,,,,,,,0.025,,,,,,,,,,,,,,,,,,,,,,,,,,,,right,1,160,30,190,1,6056.626097,6056.626097,6056.626097,None,None,1,1,1.3304047,,,,,,,,,,,,,,,,,,,10,9,1,2024-10-21_10h49.03.988,uWM_experiment,2022.2.3,59.992249
,,,,,,,,,,,,,,,,,,,,7,0,7,0,2,0,2,0,,,,,,,,,,,,,,,,,,,,,,,,,,,,,,,,,,,,,,,,,,,,,,,,,,,,,,,,,,,,,,,,,,,,,,0.035,,,,,,,,,,,,,,,,,,,,,,,,,,,,right,0,100,-30,70,1,6065.109781,6065.109781,6065.109781,None,None,1,1,1.5667147,,,,,,,,,,,,,,,,,,,10,9,1,2024-10-21_10h49.03.988,uWM_experiment,2022.2.3,59.992249
,,,,,,,,,,,,,,,,,,,,7,0,7,0,3,0,3,0,,,,,,,,,,,,,,,,,,,,,,,,,,,,,,,,,,,,,,,,,,,,,,,,,,,,,,,,,,,,,,,,,,,,,,0.045,,,,,,,,,,,,,,,,,,,,,,,,,,,,left,0,70,30,100,1,6076.860278,6076.860278,6076.860278,None,None,1,1,1.1761139,,,,,,,,,,,,,,,,,,,10,9,1,2024-10-21_10h49.03.988,uWM_experiment,2022.2.3,59.992249
,,,,,,,,,,,,,,,,,,,,7,0,7,0,4,0,4,0,,,,,,,,,,,,,,,,,,,,,,,,,,,,,,,,,,,,,,,,,,,,,,,,,,,,,,,,,,,,,,,,,,,,,,0.055,,,,,,,,,,,,,,,,,,,,,,,,,,,,left,1,130,-30,100,1,6084.193887,6084.193887,6084.193887,None,None,2,0,0.5543859,,,,,,,,,,,,,,,,,,,10,9,1,2024-10-21_10h49.03.988,uWM_experiment,2022.2.3,59.992249
,,,,,,,,,,,,,,,,,,,,7,0,7,0,5,0,5,0,,,,,,,,,,,,,,,,,,,,,,,,,,,,,,,,,,,,,,,,,,,,,,,,,,,,,,,,,,,,,,,,,,,,,,0.045,,,,,,,,,,,,,,,,,,,,,,,,,,,,left,0,70,30,100,1,6090.977507,6090.977507,6090.977507,None,None,2,0,0.322819,,,,,,,,,,,,,,,,,,,10,9,1,2024-10-21_10h49.03.988,uWM_experiment,2022.2.3,59.992249
,,,,,,,,,,,,,,,,,,,,7,0,7,0,6,0,6,0,,,,,,,,,,,,,,,,,,,,,,,,,,,,,,,,,,,,,,,,,,,,,,,,,,,,,,,,,,,,,,,,,,,,,,0.035,,,,,,,,,,,,,,,,,,,,,,,,,,,,left,1,70,-30,40,1,6097.944453,6097.944453,6097.944453,None,None,2,0,0.307847,,,,,,,,,,,,,,,,,,,10,9,1,2024-10-21_10h49.03.988,uWM_experiment,2022.2.3,59.992249
,,,,,,,,,,,,,,,,,,,,7,0,7,0,7,0,7,0,,,,,,,,,,,,,,,,,,,,,,,,,,,,,,,,,,,,,,,,,,,,,,,,,,,,,,,,,,,,,,,,,,,,,,0.025,,,,,,,,,,,,,,,,,,,,,,,,,,,,left,1,10,-30,-20,1,6104.594743,6104.594743,6104.594743,None,None,2,0,0.6575369,,,,,,,,,,,,,,,,,,,10,9,1,2024-10-21_10h49.03.988,uWM_experiment,2022.2.3,59.992249
,,,,,,,,,,,,,,,,,,,,7,0,7,0,8,0,8,0,,,,,,,,,,,,,,,,,,,,,,,,,,,,,,,,,,,,,,,,,,,,,,,,,,,,,,,,,,,,,,,,,,,,,,0.015,,,,,,,,,,,,,,,,,,,,,,,,,,,,right,0,100,-30,70,1,6111.44501,6111.44501,6111.44501,None,None,1,1,1.9351693,,,,,,,,,,,,,,,,,,,10,9,1,2024-10-21_10h49.03.988,uWM_experiment,2022.2.3,59.992249
,,,,,,,,,,,,,,,,,,,,7,0,7,0,9,0,9,0,,,,,,,,,,,,,,,,,,,,,,,,,,,,,,,,,,,,,,,,,,,,,,,,,,,,,,,,,,,,,,,,,,,,,,0.025,,,,,,,,,,,,,,,,,,,,,,,,,,,,right,1,160,30,190,1,6123.495492,6123.495492,6123.495492,None,None,2,0,0.6366462,,,,,,,,,,,,,,,,,,,10,9,1,2024-10-21_10h49.03.988,uWM_experiment,2022.2.3,59.992249
,,,,,,,,,,,,,,,,,,,,7,0,7,0,10,0,10,0,,,,,,,,,,,,,,,,,,,,,,,,,,,,,,,,,,,,,,,,,,,,,,,,,,,,,,,,,,,,,,,,,,,,,,0.015,,,,,,,,,,,,,,,,,,,,,,,,,,,,left,0,70,30,100,1,6130.662456,6130.662456,6130.662456,None,None,1,1,0.5497809,,,,,,,,,,,,,,,,,,,10,9,1,2024-10-21_10h49.03.988,uWM_experiment,2022.2.3,59.992249
,,,,,,,,,,,,,,,,,,,,7,0,7,0,11,0,11,0,,,,,,,,,,,,,,,,,,,,,,,,,,,,,,,,,,,,,,,,,,,,,,,,,,,,,,,,,,,,,,,,,,,,,,0.025,,,,,,,,,,,,,,,,,,,,,,,,,,,,right,1,160,30,190,1,6137.162723,6137.162723,6137.162723,None,None,1,1,0.5693846,,,,,,,,,,,,,,,,,,,10,9,1,2024-10-21_10h49.03.988,uWM_experiment,2022.2.3,59.992249
,,,,,,,,,,,,,,,,,,,,7,0,7,0,12,0,12,0,,,,,,,,,,,,,,,,,,,,,,,,,,,,,,,,,,,,,,,,,,,,,,,,,,,,,,,,,,,,,,,,,,,,,,0.035,,,,,,,,,,,,,,,,,,,,,,,,,,,,right,1,40,30,70,1,6144.046353,6144.046353,6144.046353,None,None,1,1,0.9017658,,,,,,,,,,,,,,,,,,,10,9,1,2024-10-21_10h49.03.988,uWM_experiment,2022.2.3,59.992249
,,,,,,,,,,,,,,,,,,,,7,0,7,0,13,0,13,0,,,,,,,,,,,,,,,,,,,,,,,,,,,,,,,,,,,,,,,,,,,,,,,,,,,,,,,,,,,,,,,,,,,,,,0,,,,,,,,,,,,,,,,,,,,,,,,,,,,right,1,40,30,70,0,6151.063314,6151.063314,6151.063314,None,None,1,1,1.2207884,,,,,,,,,,,,,,,,,,,10,9,1,2024-10-21_10h49.03.988,uWM_experiment,2022.2.3,59.992249
,,,,,,,,,,,,,,,,,,,,7,0,7,0,14,0,14,0,,,,,,,,,,,,,,,,,,,,,,,,,,,,,,,,,,,,,,,,,,,,,,,,,,,,,,,,,,,,,,,,,,,,,,0.045,,,,,,,,,,,,,,,,,,,,,,,,,,,,left,1,40,-30,10,1,6158.246911,6158.246911,6158.246911,None,None,2,0,1.0051233,,,,,,,,,,,,,,,,,,,10,9,1,2024-10-21_10h49.03.988,uWM_experiment,2022.2.3,59.992249
,,,,,,,,,,,,,,,,,,,,7,0,7,0,15,0,15,0,,,,,,,,,,,,,,,,,,,,,,,,,,,,,,,,,,,,,,,,,,,,,,,,,,,,,,,,,,,,,,,,,,,,,,0.035,,,,,,,,,,,,,,,,,,,,,,,,,,,,right,1,40,30,70,1,6165.363897,6165.363897,6165.363897,None,None,2,0,0.2881345,,,,,,,,,,,,,,,,,,,10,9,1,2024-10-21_10h49.03.988,uWM_experiment,2022.2.3,59.992249
,,,,,,,,,,,,,,,,,,,,7,0,7,0,16,0,16,0,,,,,,,,,,,,,,,,,,,,,,,,,,,,,,,,,,,,,,,,,,,,,,,,,,,,,,,,,,,,,,,,,,,,,,0,,,,,,,,,,,,,,,,,,,,,,,,,,,,left,0,160,30,190,0,6171.747477,6171.747477,6171.747477,None,None,1,1,0.3606266,,,,,,,,,,,,,,,,,,,10,9,1,2024-10-21_10h49.03.988,uWM_experiment,2022.2.3,59.992249
,,,,,,,,,,,,,,,,,,,,7,0,7,0,17,0,17,0,,,,,,,,,,,,,,,,,,,,,,,,,,,,,,,,,,,,,,,,,,,,,,,,,,,,,,,,,,,,,,,,,,,,,,0.025,,,,,,,,,,,,,,,,,,,,,,,,,,,,left,0,160,30,190,1,6178.047717,6178.047717,6178.047717,None,None,1,1,0.5883231,,,,,,,,,,,,,,,,,,,10,9,1,2024-10-21_10h49.03.988,uWM_experiment,2022.2.3,59.992249
,,,,,,,,,,,,,,,,,,,,7,0,7,0,18,0,18,0,,,,,,,,,,,,,,,,,,,,,,,,,,,,,,,,,,,,,,,,,,,,,,,,,,,,,,,,,,,,,,,,,,,,,,0.035,,,,,,,,,,,,,,,,,,,,,,,,,,,,left,1,70,-30,40,1,6184.881359,6184.881359,6184.881359,None,None,2,0,2.1626959,,,,,,,,,,,,,,,,,,,10,9,1,2024-10-21_10h49.03.988,uWM_experiment,2022.2.3,59.992249
,,,,,,,,,,,,,,,,,,,,7,0,7,0,19,0,19,0,,,,,,,,,,,,,,,,,,,,,,,,,,,,,,,,,,,,,,,,,,,,,,,,,,,,,,,,,,,,,,,,,,,,,,0.025,,,,,,,,,,,,,,,,,,,,,,,,,,,,right,0,100,-30,70,1,6193.365007,6193.365007,6193.365007,None,None,2,0,0.3910095,,,,,,,,,,,,,,,,,,,10,9,1,2024-10-21_10h49.03.988,uWM_experiment,2022.2.3,59.992249
,,,,,,,,,,,,,,,,,,,,7,0,7,0,20,0,20,0,,,,,,,,,,,,,,,,,,,,,,,,,,,,,,,,,,,,,,,,,,,,,,,,,,,,,,,,,,,,,,,,,,,,,,0.015,,,,,,,,,,,,,,,,,,,,,,,,,,,,right,0,130,-30,100,1,6201.748714,6201.748714,6201.748714,None,None,1,1,1.4152817,,,,,,,,,,,,,,,,,,,10,9,1,2024-10-21_10h49.03.988,uWM_experiment,2022.2.3,59.992249
,,,,,,,,,,,,,,,,,,,,7,0,7,0,21,0,21,0,,,,,,,,,,,,,,,,,,,,,,,,,,,,,,,,,,,,,,,,,,,,,,,,,,,,,,,,,,,,,,,,,,,,,,0.025,,,,,,,,,,,,,,,,,,,,,,,,,,,,right,1,100,30,130,1,6209.28233,6209.28233,6209.28233,None,None,1,1,1.3855657,,,,,,,,,,,,,,,,,,,10,9,1,2024-10-21_10h49.03.988,uWM_experiment,2022.2.3,59.992249
,,,,,,,,,,,,,,,,,,,,7,0,7,0,22,0,22,0,,,,,,,,,,,,,,,,,,,,,,,,,,,,,,,,,,,,,,,,,,,,,,,,,,,,,,,,,,,,,,,,,,,,,,0,,,,,,,,,,,,,,,,,,,,,,,,,,,,right,0,10,-30,-20,0,6217.199323,6217.199323,6217.199323,None,None,1,1,0.5406249,,,,,,,,,,,,,,,,,,,10,9,1,2024-10-21_10h49.03.988,uWM_experiment,2022.2.3,59.992249
,,,,,,,,,,,,,,,,,,,,7,0,7,0,23,0,23,0,,,,,,,,,,,,,,,,,,,,,,,,,,,,,,,,,,,,,,,,,,,,,,,,,,,,,,,,,,,,,,,,,,,,,,0.035,,,,,,,,,,,,,,,,,,,,,,,,,,,,right,1,40,30,70,1,6223.86626,6223.86626,6223.86626,None,None,2,0,0.4976791,,,,,,,,,,,,,,,,,,,10,9,1,2024-10-21_10h49.03.988,uWM_experiment,2022.2.3,59.992249
,,,,,,,,,,,,,,,,,,,,7,0,7,0,,,,,0,0,0,0,,,,,,,,,,,,,,,,,,,,,,,,,,,,,,,,,,,,,,,,,,,,,,,,,,,,,,,,,,,,,,,,,,,,,,,,,,,,,,,,,,,,,,,,,,,,,,,,,,,,,,,,,,,,6224.383002,6224.383002,space,3.372952,None,None,,,,,,,,,,,,,10,9,1,2024-10-21_10h49.03.988,uWM_experiment,2022.2.3,59.992249
,,,,,,,,,,,,,,,,,,,,7,0,7,0,,,,,1,0,1,0,,,,,,,,,,,,,,,,,,,,,,,,,,,,,,,,,,,,,,,,,,,,,,,,,,,,,,,,,,,,,,,,,,,,,,,,,,,,,,,,,,,,,,,,,,,,,,,,,,,,,,,,,,,,,,,,,,,,,,,,,,,,,,10,9,1,2024-10-21_10h49.03.988,uWM_experiment,2022.2.3,59.992249
,,,,,,,,,,,,,,,,,,,,7,0,7,0,,,,,2,0,2,0,,,,,,,,,,,,,,,,,,,,,,,,,,,,,,,,,,,,,,,,,,,,,,,,,,,,,,,,,,,,,,,,,,,,,,,,,,,,,,,,,,,,,,,,,,,,,,,,,,,,,,,,,,,,,,,,,,,,,,,,,,,,,,10,9,1,2024-10-21_10h49.03.988,uWM_experiment,2022.2.3,59.992249
,,,,,,,,,,,,,,,,,,,,8,0,8,0,0,0,0,0,,,,,,,,,,,,,,,,,,,,,,,,,,,,,,,,,,,,,,,,,,,,,,,,,,,,,,,,,,,,,,,,,,,,,,0.025,,,,,,,,,,,,,,,,,,,,6227.783094,6228.483122,6228.783135,6229.483165,6229.783175,6230.483206,6230.483206,6230.79989,left,1,10,-30,-20,1,6235.950101,6235.950101,6235.950101,None,None,2,0,0.4777109,,,,,,,None,,,,,,,,,,,,10,9,1,2024-10-21_10h49.03.988,uWM_experiment,2022.2.3,59.992249
,,,,,,,,,,,,,,,,,,,,8,0,8,0,1,0,1,0,,,,,,,,,,,,,,,,,,,,,,,,,,,,,,,,,,,,,,,,,,,,,,,,,,,,,,,,,,,,,,,,,,,,,,0.015,,,,,,,,,,,,,,,,,,,,,,,,,,,,right,1,160,30,190,1,6242.817037,6242.817037,6242.817037,None,None,1,1,0.2669889,,,,,,,,,,,,,,,,,,,10,9,1,2024-10-21_10h49.03.988,uWM_experiment,2022.2.3,59.992249
,,,,,,,,,,,,,,,,,,,,8,0,8,0,2,0,2,0,,,,,,,,,,,,,,,,,,,,,,,,,,,,,,,,,,,,,,,,,,,,,,,,,,,,,,,,,,,,,,,,,,,,,,0.1,,,,,,,,,,,,,,,,,,,,,,,,,,,,right,0,160,-30,130,2,6257.117622,6257.117622,6257.117622,None,None,4,0,1.7102232,,,,,,,,,,,,,,,,,,,10,9,1,2024-10-21_10h49.03.988,uWM_experiment,2022.2.3,59.992249
,,,,,,,,,,,,,,,,,,,,8,0,8,0,3,0,3,0,,,,,,,,,,,,,,,,,,,,,,,,,,,,,,,,,,,,,,,,,,,,,,,,,,,,,,,,,,,,,,,,,,,,,,0.025,,,,,,,,,,,,,,,,,,,,,,,,,,,,right,0,40,-30,10,1,6266.101334,6266.101334,6266.101334,None,None,1,1,0.4784737,,,,,,,,,,,,,,,,,,,10,9,1,2024-10-21_10h49.03.988,uWM_experiment,2022.2.3,59.992249
,,,,,,,,,,,,,,,,,,,,8,0,8,0,4,0,4,0,,,,,,,,,,,,,,,,,,,,,,,,,,,,,,,,,,,,,,,,,,,,,,,,,,,,,,,,,,,,,,,,,,,,,,0.035,,,,,,,,,,,,,,,,,,,,,,,,,,,,right,1,10,30,40,1,6273.284949,6273.284949,6273.284949,None,None,1,1,0.5427962,,,,,,,,,,,,,,,,,,,10,9,1,2024-10-21_10h49.03.988,uWM_experiment,2022.2.3,59.992249
,,,,,,,,,,,,,,,,,,,,8,0,8,0,5,0,5,0,,,,,,,,,,,,,,,,,,,,,,,,,,,,,,,,,,,,,,,,,,,,,,,,,,,,,,,,,,,,,,,,,,,,,,0,,,,,,,,,,,,,,,,,,,,,,,,,,,,left,0,100,30,130,0,6279.718537,6279.718537,6279.718537,None,None,1,1,0.7092444,,,,,,,,,,,,,,,,,,,10,9,1,2024-10-21_10h49.03.988,uWM_experiment,2022.2.3,59.992249
,,,,,,,,,,,,,,,,,,,,8,0,8,0,6,0,6,0,,,,,,,,,,,,,,,,,,,,,,,,,,,,,,,,,,,,,,,,,,,,,,,,,,,,,,,,,,,,,,,,,,,,,,0.045,,,,,,,,,,,,,,,,,,,,,,,,,,,,right,1,100,30,130,1,6286.685503,6286.685503,6286.685503,None,None,2,0,1.2541775,,,,,,,,,,,,,,,,,,,10,9,1,2024-10-21_10h49.03.988,uWM_experiment,2022.2.3,59.992249
,,,,,,,,,,,,,,,,,,,,8,0,8,0,7,0,7,0,,,,,,,,,,,,,,,,,,,,,,,,,,,,,,,,,,,,,,,,,,,,,,,,,,,,,,,,,,,,,,,,,,,,,,0.035,,,,,,,,,,,,,,,,,,,,,,,,,,,,right,1,40,30,70,1,6294.219147,6294.219147,6294.219147,None,None,2,0,0.2965401,,,,,,,,,,,,,,,,,,,10,9,1,2024-10-21_10h49.03.988,uWM_experiment,2022.2.3,59.992249
,,,,,,,,,,,,,,,,,,,,8,0,8,0,8,0,8,0,,,,,,,,,,,,,,,,,,,,,,,,,,,,,,,,,,,,,,,,,,,,,,,,,,,,,,,,,,,,,,,,,,,,,,0.025,,,,,,,,,,,,,,,,,,,,,,,,,,,,right,1,40,30,70,1,6301.236112,6301.236112,6301.236112,None,None,1,1,0.7194994,,,,,,,,,,,,,,,,,,,10,9,1,2024-10-21_10h49.03.988,uWM_experiment,2022.2.3,59.992249
,,,,,,,,,,,,,,,,,,,,8,0,8,0,9,0,9,0,,,,,,,,,,,,,,,,,,,,,,,,,,,,,,,,,,,,,,,,,,,,,,,,,,,,,,,,,,,,,,,,,,,,,,0.035,,,,,,,,,,,,,,,,,,,,,,,,,,,,right,1,40,30,70,1,6307.953033,6307.953033,6307.953033,None,None,2,0,0.6986682,,,,,,,,,,,,,,,,,,,10,9,1,2024-10-21_10h49.03.988,uWM_experiment,2022.2.3,59.992249
,,,,,,,,,,,,,,,,,,,,8,0,8,0,10,0,10,0,,,,,,,,,,,,,,,,,,,,,,,,,,,,,,,,,,,,,,,,,,,,,,,,,,,,,,,,,,,,,,,,,,,,,,0.025,,,,,,,,,,,,,,,,,,,,,,,,,,,,left,1,70,-30,40,1,6315.086679,6315.086679,6315.086679,None,None,2,0,0.3969171,,,,,,,,,,,,,,,,,,,10,9,1,2024-10-21_10h49.03.988,uWM_experiment,2022.2.3,59.992249
,,,,,,,,,,,,,,,,,,,,8,0,8,0,11,0,11,0,,,,,,,,,,,,,,,,,,,,,,,,,,,,,,,,,,,,,,,,,,,,,,,,,,,,,,,,,,,,,,,,,,,,,,0.015,,,,,,,,,,,,,,,,,,,,,,,,,,,,right,1,10,30,40,1,6321.503597,6321.503597,6321.503597,None,None,1,1,1.147969,,,,,,,,,,,,,,,,,,,10,9,1,2024-10-21_10h49.03.988,uWM_experiment,2022.2.3,59.992249
,,,,,,,,,,,,,,,,,,,,8,0,8,0,12,0,12,0,,,,,,,,,,,,,,,,,,,,,,,,,,,,,,,,,,,,,,,,,,,,,,,,,,,,,,,,,,,,,,,,,,,,,,0.025,,,,,,,,,,,,,,,,,,,,,,,,,,,,left,1,70,-30,40,1,6329.020563,6329.020563,6329.020563,None,None,2,0,1.0309784,,,,,,,,,,,,,,,,,,,10,9,1,2024-10-21_10h49.03.988,uWM_experiment,2022.2.3,59.992249
,,,,,,,,,,,,,,,,,,,,8,0,8,0,13,0,13,0,,,,,,,,,,,,,,,,,,,,,,,,,,,,,,,,,,,,,,,,,,,,,,,,,,,,,,,,,,,,,,,,,,,,,,0.015,,,,,,,,,,,,,,,,,,,,,,,,,,,,right,1,40,30,70,1,6336.720881,6336.720881,6336.720881,None,None,1,1,1.194749,,,,,,,,,,,,,,,,,,,10,9,1,2024-10-21_10h49.03.988,uWM_experiment,2022.2.3,59.992249
,,,,,,,,,,,,,,,,,,,,8,0,8,0,14,0,14,0,,,,,,,,,,,,,,,,,,,,,,,,,,,,,,,,,,,,,,,,,,,,,,,,,,,,,,,,,,,,,,,,,,,,,,0.025,,,,,,,,,,,,,,,,,,,,,,,,,,,,left,1,10,-30,-20,1,6344.221168,6344.221168,6344.221168,None,None,1,1,0.4303989,,,,,,,,,,,,,,,,,,,10,9,1,2024-10-21_10h49.03.988,uWM_experiment,2022.2.3,59.992249
,,,,,,,,,,,,,,,,,,,,8,0,8,0,15,0,15,0,,,,,,,,,,,,,,,,,,,,,,,,,,,,,,,,,,,,,,,,,,,,,,,,,,,,,,,,,,,,,,,,,,,,,,0,,,,,,,,,,,,,,,,,,,,,,,,,,,,right,0,70,-30,40,0,6350.721455,6350.721455,6350.721455,None,None,1,1,1.1939966,,,,,,,,,,,,,,,,,,,10,9,1,2024-10-21_10h49.03.988,uWM_experiment,2022.2.3,59.992249
,,,,,,,,,,,,,,,,,,,,8,0,8,0,16,0,16,0,,,,,,,,,,,,,,,,,,,,,,,,,,,,,,,,,,,,,,,,,,,,,,,,,,,,,,,,,,,,,,,,,,,,,,0,,,,,,,,,,,,,,,,,,,,,,,,,,,,right,1,40,30,70,0,6357.938424,6357.938424,6357.938424,None,None,1,1,0.52097,,,,,,,,,,,,,,,,,,,10,9,1,2024-10-21_10h49.03.988,uWM_experiment,2022.2.3,59.992249
,,,,,,,,,,,,,,,,,,,,8,0,8,0,17,0,17,0,,,,,,,,,,,,,,,,,,,,,,,,,,,,,,,,,,,,,,,,,,,,,,,,,,,,,,,,,,,,,,,,,,,,,,0.035,,,,,,,,,,,,,,,,,,,,,,,,,,,,left,1,130,-30,100,1,6364.388696,6364.388696,6364.388696,None,None,2,0,0.3186968,,,,,,,,,,,,,,,,,,,10,9,1,2024-10-21_10h49.03.988,uWM_experiment,2022.2.3,59.992249
,,,,,,,,,,,,,,,,,,,,8,0,8,0,18,0,18,0,,,,,,,,,,,,,,,,,,,,,,,,,,,,,,,,,,,,,,,,,,,,,,,,,,,,,,,,,,,,,,,,,,,,,,0.025,,,,,,,,,,,,,,,,,,,,,,,,,,,,right,0,100,-30,70,1,6370.322276,6370.322276,6370.322276,None,None,1,1,0.5530772,,,,,,,,,,,,,,,,,,,10,9,1,2024-10-21_10h49.03.988,uWM_experiment,2022.2.3,59.992249
,,,,,,,,,,,,,,,,,,,,8,0,8,0,19,0,19,0,,,,,,,,,,,,,,,,,,,,,,,,,,,,,,,,,,,,,,,,,,,,,,,,,,,,,,,,,,,,,,,,,,,,,,0.035,,,,,,,,,,,,,,,,,,,,,,,,,,,,left,1,40,-30,10,1,6376.605828,6376.605828,6376.605828,None,None,1,1,1.1096145,,,,,,,,,,,,,,,,,,,10,9,1,2024-10-21_10h49.03.988,uWM_experiment,2022.2.3,59.992249
,,,,,,,,,,,,,,,,,,,,8,0,8,0,20,0,20,0,,,,,,,,,,,,,,,,,,,,,,,,,,,,,,,,,,,,,,,,,,,,,,,,,,,,,,,,,,,,,,,,,,,,,,0.045,,,,,,,,,,,,,,,,,,,,,,,,,,,,right,1,70,30,100,1,6387.806295,6387.806295,6387.806295,None,None,2,0,1.2050315,,,,,,,,,,,,,,,,,,,10,9,1,2024-10-21_10h49.03.988,uWM_experiment,2022.2.3,59.992249
,,,,,,,,,,,,,,,,,,,,8,0,8,0,21,0,21,0,,,,,,,,,,,,,,,,,,,,,,,,,,,,,,,,,,,,,,,,,,,,,,,,,,,,,,,,,,,,,,,,,,,,,,0,,,,,,,,,,,,,,,,,,,,,,,,,,,,right,0,160,-30,130,0,6395.606665,6395.606665,6395.606665,None,None,2,0,1.0446782,,,,,,,,,,,,,,,,,,,10,9,1,2024-10-21_10h49.03.988,uWM_experiment,2022.2.3,59.992249
,,,,,,,,,,,,,,,,,,,,8,0,8,0,22,0,22,0,,,,,,,,,,,,,,,,,,,,,,,,,,,,,,,,,,,,,,,,,,,,,,,,,,,,,,,,,,,,,,,,,,,,,,0.035,,,,,,,,,,,,,,,,,,,,,,,,,,,,right,0,10,-30,-20,1,6402.756924,6402.756924,6402.756924,None,None,2,0,0.6144533,,,,,,,,,,,,,,,,,,,10,9,1,2024-10-21_10h49.03.988,uWM_experiment,2022.2.3,59.992249
,,,,,,,,,,,,,,,,,,,,8,0,8,0,23,0,23,0,,,,,,,,,,,,,,,,,,,,,,,,,,,,,,,,,,,,,,,,,,,,,,,,,,,,,,,,,,,,,,,,,,,,,,0.1,,,,,,,,,,,,,,,,,,,,,,,,,,,,right,0,100,-30,70,2,6414.140714,6414.140714,6414.140714,None,None,4,0,0.6145866,,,,,,,,,,,,,,,,,,,10,9,1,2024-10-21_10h49.03.988,uWM_experiment,2022.2.3,59.992249
,,,,,,,,,,,,,,,,,,,,8,0,8,0,,,,,0,0,0,0,,,,,,,,,,,,,,,,,,,,,,,,,,,,,,,,,,,,,,,,,,,,,,,,,,,,,,,,,,,,,,,,,,,,,,,,,,,,,,,,,,,,,,,,,,,,,,,,,,,,,,,,,,,,6414.774059,6414.774059,space,1.4052853,space,None,,6416.20747,6416.20747,5.1718247,,,,,,,,,10,9,1,2024-10-21_10h49.03.988,uWM_experiment,2022.2.3,59.992249
,,,,,,,,,,,,,,,,,,,,8,0,8,0,,,,,1,0,1,0,,,,,,,,,,,,,,,,,,,,,,,,,,,,,,,,,,,,,,,,,,,,,,,,,,,,,,,,,,,,,,,,,,,,,,,,,,,,,,,,,,,,,,,,,,,,,,,,,,,,,,,,,,,,,,,,,,,,,,,,,,,,,,10,9,1,2024-10-21_10h49.03.988,uWM_experiment,2022.2.3,59.992249
,,,,,,,,,,,,,,,,,,,,8,0,8,0,,,,,2,0,2,0,,,,,,,,,,,,,,,,,,,,,,,,,,,,,,,,,,,,,,,,,,,,,,,,,,,,,,,,,,,,,,,,,,,,,,,,,,,,,,,,,,,,,,,,,,,,,,,,,,,,,,,,,,,,,,,,,,,,,,,,,,,,,,10,9,1,2024-10-21_10h49.03.988,uWM_experiment,2022.2.3,59.992249
,,,,,,,,,,,,,,,,,,,,9,0,9,0,0,0,0,0,,,,,,,,,,,,,,,,,,,,,,,,,,,,,,,,,,,,,,,,,,,,,,,,,,,,,,,,,,,,,,,,,,,,,,0.025,,,,,,,,,,,,,,,,,,,,6421.407675,6422.107697,6422.407714,6423.107737,6423.407769,6424.107785,6424.107785,6424.424474,right,0,40,-30,10,1,6429.141317,6429.141317,6429.141317,None,None,1,1,1.813913,,,,,,,None,,,,,,,,,,,,10,9,1,2024-10-21_10h49.03.988,uWM_experiment,2022.2.3,59.992249
,,,,,,,,,,,,,,,,,,,,9,0,9,0,1,0,1,0,,,,,,,,,,,,,,,,,,,,,,,,,,,,,,,,,,,,,,,,,,,,,,,,,,,,,,,,,,,,,,,,,,,,,,0.035,,,,,,,,,,,,,,,,,,,,,,,,,,,,left,0,70,30,100,1,6437.908347,6437.908347,6437.908347,None,None,3,0,3.4229454,,,,,,,,,,,,,,,,,,,10,9,1,2024-10-21_10h49.03.988,uWM_experiment,2022.2.3,59.992249
,,,,,,,,,,,,,,,,,,,,9,0,9,0,2,0,2,0,,,,,,,,,,,,,,,,,,,,,,,,,,,,,,,,,,,,,,,,,,,,,,,,,,,,,,,,,,,,,,,,,,,,,,0.025,,,,,,,,,,,,,,,,,,,,,,,,,,,,right,0,10,-30,-20,1,6449.075467,6449.075467,6449.075467,None,None,2,0,0.6637299,,,,,,,,,,,,,,,,,,,10,9,1,2024-10-21_10h49.03.988,uWM_experiment,2022.2.3,59.992249
,,,,,,,,,,,,,,,,,,,,9,0,9,0,3,0,3,0,,,,,,,,,,,,,,,,,,,,,,,,,,,,,,,,,,,,,,,,,,,,,,,,,,,,,,,,,,,,,,,,,,,,,,0,,,,,,,,,,,,,,,,,,,,,,,,,,,,left,0,130,30,160,0,6455.44242,6455.44242,6455.44242,None,None,2,0,0.4006986,,,,,,,,,,,,,,,,,,,10,9,1,2024-10-21_10h49.03.988,uWM_experiment,2022.2.3,59.992249
,,,,,,,,,,,,,,,,,,,,9,0,9,0,4,0,4,0,,,,,,,,,,,,,,,,,,,,,,,,,,,,,,,,,,,,,,,,,,,,,,,,,,,,,,,,,,,,,,,,,,,,,,0.015,,,,,,,,,,,,,,,,,,,,,,,,,,,,right,0,10,-30,-20,1,6461.959329,6461.959329,6461.959329,None,None,1,1,0.3398862,,,,,,,,,,,,,,,,,,,10,9,1,2024-10-21_10h49.03.988,uWM_experiment,2022.2.3,59.992249
,,,,,,,,,,,,,,,,,,,,9,0,9,0,5,0,5,0,,,,,,,,,,,,,,,,,,,,,,,,,,,,,,,,,,,,,,,,,,,,,,,,,,,,,,,,,,,,,,,,,,,,,,0.025,,,,,,,,,,,,,,,,,,,,,,,,,,,,right,0,100,-30,70,1,6468.342922,6468.342922,6468.342922,None,None,1,1,0.6681664,,,,,,,,,,,,,,,,,,,10,9,1,2024-10-21_10h49.03.988,uWM_experiment,2022.2.3,59.992249
,,,,,,,,,,,,,,,,,,,,9,0,9,0,6,0,6,0,,,,,,,,,,,,,,,,,,,,,,,,,,,,,,,,,,,,,,,,,,,,,,,,,,,,,,,,,,,,,,,,,,,,,,0.035,,,,,,,,,,,,,,,,,,,,,,,,,,,,left,0,70,30,100,1,6474.759851,6474.759851,6474.759851,None,None,1,1,1.075276,,,,,,,,,,,,,,,,,,,10,9,1,2024-10-21_10h49.03.988,uWM_experiment,2022.2.3,59.992249
,,,,,,,,,,,,,,,,,,,,9,0,9,0,7,0,7,0,,,,,,,,,,,,,,,,,,,,,,,,,,,,,,,,,,,,,,,,,,,,,,,,,,,,,,,,,,,,,,,,,,,,,,0.045,,,,,,,,,,,,,,,,,,,,,,,,,,,,right,1,40,30,70,1,6481.860136,6481.860136,6481.860136,None,None,2,0,0.7028672,,,,,,,,,,,,,,,,,,,10,9,1,2024-10-21_10h49.03.988,uWM_experiment,2022.2.3,59.992249
,,,,,,,,,,,,,,,,,,,,9,0,9,0,8,0,8,0,,,,,,,,,,,,,,,,,,,,,,,,,,,,,,,,,,,,,,,,,,,,,,,,,,,,,,,,,,,,,,,,,,,,,,0.035,,,,,,,,,,,,,,,,,,,,,,,,,,,,right,1,130,30,160,1,6488.460409,6488.460409,6488.460409,None,None,3,0,3.0226502,,,,,,,,,,,,,,,,,,,10,9,1,2024-10-21_10h49.03.988,uWM_experiment,2022.2.3,59.992249
,,,,,,,,,,,,,,,,,,,,9,0,9,0,9,0,9,0,,,,,,,,,,,,,,,,,,,,,,,,,,,,,,,,,,,,,,,,,,,,,,,,,,,,,,,,,,,,,,,,,,,,,,0.025,,,,,,,,,,,,,,,,,,,,,,,,,,,,left,1,70,-30,40,1,6497.860816,6497.860816,6497.860816,None,None,2,0,0.3902274,,,,,,,,,,,,,,,,,,,10,9,1,2024-10-21_10h49.03.988,uWM_experiment,2022.2.3,59.992249
,,,,,,,,,,,,,,,,,,,,9,0,9,0,10,0,10,0,,,,,,,,,,,,,,,,,,,,,,,,,,,,,,,,,,,,,,,,,,,,,,,,,,,,,,,,,,,,,,,,,,,,,,0.015,,,,,,,,,,,,,,,,,,,,,,,,,,,,left,1,130,-30,100,1,6504.294415,6504.294415,6504.294415,None,None,1,1,0.948652,,,,,,,,,,,,,,,,,,,10,9,1,2024-10-21_10h49.03.988,uWM_experiment,2022.2.3,59.992249
,,,,,,,,,,,,,,,,,,,,9,0,9,0,11,0,11,0,,,,,,,,,,,,,,,,,,,,,,,,,,,,,,,,,,,,,,,,,,,,,,,,,,,,,,,,,,,,,,,,,,,,,,0.025,,,,,,,,,,,,,,,,,,,,,,,,,,,,right,1,10,30,40,1,6510.994681,6510.994681,6510.994681,None,None,2,0,2.7123318,,,,,,,,,,,,,,,,,,,10,9,1,2024-10-21_10h49.03.988,uWM_experiment,2022.2.3,59.992249
,,,,,,,,,,,,,,,,,,,,9,0,9,0,12,0,12,0,,,,,,,,,,,,,,,,,,,,,,,,,,,,,,,,,,,,,,,,,,,,,,,,,,,,,,,,,,,,,,,,,,,,,,0.015,,,,,,,,,,,,,,,,,,,,,,,,,,,,left,0,100,30,130,1,6519.278347,6519.278347,6519.278347,None,None,1,1,0.6845647,,,,,,,,,,,,,,,,,,,10,9,1,2024-10-21_10h49.03.988,uWM_experiment,2022.2.3,59.992249
,,,,,,,,,,,,,,,,,,,,9,0,9,0,13,0,13,0,,,,,,,,,,,,,,,,,,,,,,,,,,,,,,,,,,,,,,,,,,,,,,,,,,,,,,,,,,,,,,,,,,,,,,0.025,,,,,,,,,,,,,,,,,,,,,,,,,,,,left,0,100,30,130,1,6526.628674,6526.628674,6526.628674,None,None,1,1,3.9742322,,,,,,,,,,,,,,,,,,,10,9,1,2024-10-21_10h49.03.988,uWM_experiment,2022.2.3,59.992249
,,,,,,,,,,,,,,,,,,,,9,0,9,0,14,0,14,0,,,,,,,,,,,,,,,,,,,,,,,,,,,,,,,,,,,,,,,,,,,,,,,,,,,,,,,,,,,,,,,,,,,,,,0,,,,,,,,,,,,,,,,,,,,,,,,,,,,right,0,10,-30,-20,0,6536.779063,6536.779063,6536.779063,None,None,1,1,0.3918625,,,,,,,,,,,,,,,,,,,10,9,1,2024-10-21_10h49.03.988,uWM_experiment,2022.2.3,59.992249
,,,,,,,,,,,,,,,,,,,,9,0,9,0,15,0,15,0,,,,,,,,,,,,,,,,,,,,,,,,,,,,,,,,,,,,,,,,,,,,,,,,,,,,,,,,,,,,,,,,,,,,,,0.035,,,,,,,,,,,,,,,,,,,,,,,,,,,,left,1,160,-30,130,1,6543.579353,6543.579353,6543.579353,None,None,2,0,0.4796106,,,,,,,,,,,,,,,,,,,10,9,1,2024-10-21_10h49.03.988,uWM_experiment,2022.2.3,59.992249
,,,,,,,,,,,,,,,,,,,,9,0,9,0,16,0,16,0,,,,,,,,,,,,,,,,,,,,,,,,,,,,,,,,,,,,,,,,,,,,,,,,,,,,,,,,,,,,,,,,,,,,,,0.025,,,,,,,,,,,,,,,,,,,,,,,,,,,,left,0,100,30,130,1,6550.079619,6550.079619,6550.079619,None,None,2,0,0.5793008,,,,,,,,,,,,,,,,,,,10,9,1,2024-10-21_10h49.03.988,uWM_experiment,2022.2.3,59.992249
,,,,,,,,,,,,,,,,,,,,9,0,9,0,17,0,17,0,,,,,,,,,,,,,,,,,,,,,,,,,,,,,,,,,,,,,,,,,,,,,,,,,,,,,,,,,,,,,,,,,,,,,,0,,,,,,,,,,,,,,,,,,,,,,,,,,,,left,0,130,30,160,0,6556.813203,6556.813203,6556.813203,None,None,2,0,1.0937237,,,,,,,,,,,,,,,,,,,10,9,1,2024-10-21_10h49.03.988,uWM_experiment,2022.2.3,59.992249
,,,,,,,,,,,,,,,,,,,,9,0,9,0,18,0,18,0,,,,,,,,,,,,,,,,,,,,,,,,,,,,,,,,,,,,,,,,,,,,,,,,,,,,,,,,,,,,,,,,,,,,,,0.015,,,,,,,,,,,,,,,,,,,,,,,,,,,,left,1,130,-30,100,1,6563.830166,6563.830166,6563.830166,None,None,1,1,0.5647302,,,,,,,,,,,,,,,,,,,10,9,1,2024-10-21_10h49.03.988,uWM_experiment,2022.2.3,59.992249
,,,,,,,,,,,,,,,,,,,,9,0,9,0,19,0,19,0,,,,,,,,,,,,,,,,,,,,,,,,,,,,,,,,,,,,,,,,,,,,,,,,,,,,,,,,,,,,,,,,,,,,,,0.025,,,,,,,,,,,,,,,,,,,,,,,,,,,,right,1,40,30,70,1,6570.447093,6570.447093,6570.447093,None,None,1,1,0.6117379,,,,,,,,,,,,,,,,,,,10,9,1,2024-10-21_10h49.03.988,uWM_experiment,2022.2.3,59.992249
,,,,,,,,,,,,,,,,,,,,9,0,9,0,20,0,20,0,,,,,,,,,,,,,,,,,,,,,,,,,,,,,,,,,,,,,,,,,,,,,,,,,,,,,,,,,,,,,,,,,,,,,,0.1,,,,,,,,,,,,,,,,,,,,,,,,,,,,right,1,40,30,70,2,6577.480773,6577.480773,6577.480773,None,None,4,0,1.0661088,,,,,,,,,,,,,,,,,,,10,9,1,2024-10-21_10h49.03.988,uWM_experiment,2022.2.3,59.992249
,,,,,,,,,,,,,,,,,,,,9,0,9,0,21,0,21,0,,,,,,,,,,,,,,,,,,,,,,,,,,,,,,,,,,,,,,,,,,,,,,,,,,,,,,,,,,,,,,,,,,,,,,0.035,,,,,,,,,,,,,,,,,,,,,,,,,,,,right,1,160,30,190,1,6585.364394,6585.364394,6585.364394,None,None,3,0,2.806357,,,,,,,,,,,,,,,,,,,10,9,1,2024-10-21_10h49.03.988,uWM_experiment,2022.2.3,59.992249
,,,,,,,,,,,,,,,,,,,,9,0,9,0,22,0,22,0,,,,,,,,,,,,,,,,,,,,,,,,,,,,,,,,,,,,,,,,,,,,,,,,,,,,,,,,,,,,,,,,,,,,,,0,,,,,,,,,,,,,,,,,,,,,,,,,,,,left,1,10,-30,-20,0,6594.231419,6594.231419,6594.231419,None,None,2,0,0.2273138,,,,,,,,,,,,,,,,,,,10,9,1,2024-10-21_10h49.03.988,uWM_experiment,2022.2.3,59.992249
,,,,,,,,,,,,,,,,,,,,9,0,9,0,23,0,23,0,,,,,,,,,,,,,,,,,,,,,,,,,,,,,,,,,,,,,,,,,,,,,,,,,,,,,,,,,,,,,,,,,,,,,,0.025,,,,,,,,,,,,,,,,,,,,,,,,,,,,left,1,160,-30,130,1,6600.581661,6600.581661,6600.581661,None,None,2,0,0.493016,,,,,,,,,,,,,,,,,,,10,9,1,2024-10-21_10h49.03.988,uWM_experiment,2022.2.3,59.992249
,,,,,,,,,,,,,,,,,,,,9,0,9,0,,,,,0,0,0,0,,,,,,,,,,,,,,,,,,,,,,,,,,,,,,,,,,,,,,,,,,,,,,,,,,,,,,,,,,,,,,,,,,,,,,,,,,,,,,,,,,,,,,,,,,,,,,,,,,,,,,,,,,,,6601.098336,6601.098336,space,3.3923404,None,None,,,,,,,,,,,,,10,9,1,2024-10-21_10h49.03.988,uWM_experiment,2022.2.3,59.992249
,,,,,,,,,,,,,,,,,,,,9,0,9,0,,,,,1,0,1,0,,,,,,,,,,,,,,,,,,,,,,,,,,,,,,,,,,,,,,,,,,,,,,,,,,,,,,,,,,,,,,,,,,,,,,,,,,,,,,,,,,,,,,,,,,,,,,,,,,,,,,,,,,,,,,,,,,,,,,,,,,,,,,10,9,1,2024-10-21_10h49.03.988,uWM_experiment,2022.2.3,59.992249
,,,,,,,,,,,,,,,,,,,,9,0,9,0,,,,,2,0,2,0,,,,,,,,,,,,,,,,,,,,,,,,,,,,,,,,,,,,,,,,,,,,,,,,,,,,,,,,,,,,,,,,,,,,,,,,,,,,,,,,,,,,,,,,,,,,,,,,,,,,,,,,,,,,,,,,,,,,,,,,,,,,,,10,9,1,2024-10-21_10h49.03.988,uWM_experiment,2022.2.3,59.992249
