PreTrainingPAS4_loop.thisRepN,PreTrainingPAS4_loop.thisTrialN,PreTrainingPAS4_loop.thisN,PreTrainingPAS4_loop.thisIndex,PreTrainingPAS1_loop.thisRepN,PreTrainingPAS1_loop.thisTrialN,PreTrainingPAS1_loop.thisN,PreTrainingPAS1_loop.thisIndex,RepeatCV_loop.thisRepN,RepeatCV_loop.thisTrialN,RepeatCV_loop.thisN,RepeatCV_loop.thisIndex,TrainingCV_loop.thisRepN,TrainingCV_loop.thisTrialN,TrainingCV_loop.thisN,TrainingCV_loop.thisIndex,TrainingCAL_loop.thisRepN,TrainingCAL_loop.thisTrialN,TrainingCAL_loop.thisN,TrainingCAL_loop.thisIndex,blocks_loop.thisRepN,blocks_loop.thisTrialN,blocks_loop.thisN,blocks_loop.thisIndex,trials_loop.thisRepN,trials_loop.thisTrialN,trials_loop.thisN,trials_loop.thisIndex,TrainingPAS1_loop.thisRepN,TrainingPAS1_loop.thisTrialN,TrainingPAS1_loop.thisN,TrainingPAS1_loop.thisIndex,spacebarWelcome0.started,spacebarWelcome0.keys,spacebarWelcome0.rt,spacebarWelcome1.started,gaborWelcome1.started,maskWelcome1.started,textMaskWelcome1.started,spacebarWelcome1.keys,spacebarWelcome1.rt,spacebarWelcome2.started,spacebarWelcome2.keys,spacebarWelcome2.rt,textInst_PreTrainingPAS4.started,spacebarPreTrainingPAS4.started,spacebarPreTrainingPAS4.keys,spacebarPreTrainingPAS4.rt,textPreTrainingPAS1.started,spacebarPreTrainingPAS1.started,spacebarPreTrainingPAS1.keys,spacebarPreTrainingPAS1.rt,textQUEST0.started,spacebarQUEST0.started,spacebarQUEST0.keys,spacebarQUEST0.rt,spacebar0.started,spacebar0.keys,spacebar0.rt,spacebar1.started,spacebar1.keys,spacebar1.rt,textInstructions2.started,spacebar2.started,Gabor1Inst2.started,Gabor2Inst2.started,Gabor3Inst2.started,Gabor4Inst2.started,spacebar2.keys,spacebar2.rt,textInstructionsPAS.started,spacebarInstPAS.started,spacebarInstPAS.keys,spacebarInstPAS.rt,textInstructions3.started,spacebar3.started,spacebar3.keys,spacebar3.rt,WMresp_CV,WMresp_CV_acc,oriMemo_CV,gyre_CV,oriTest_CV,feedbackText.started,feedbackText.stopped,sliderCV.started,PAStextCV.started,PASkeyCV.started,sliderCV.response,sliderCV.rt,PASkeyCV.keys,PASkeyCV.corr,PASkeyCV.rt,TextInstructionsCAL.started,spacebarCAL.started,spacebarCAL.keys,spacebarCAL.rt,contrast,WMresp_CAL,WMresp_CAL_acc,oriMemo_CAL,gyre_CAL,oriTest_CAL,cue_CAL,sliderCAL.started,PAStextCAL.started,PASkeyCAL.started,sliderCAL.response,sliderCAL.rt,PASkeyCAL.keys,PASkeyCAL.corr,PASkeyCAL.rt,propUnseen_CAL,textStart.started,spacebar4.started,spacebar4.keys,spacebar4.rt,three.started,three.stopped,two.started,two.stopped,one.started,one.stopped,blank_countdown.started,blank_countdown.stopped,WMresp,WMresp_acc,oriMemo,gyre,oriTest,cue,slider.started,textPAS_firstGabor.started,PASkey.started,slider.response,slider.rt,PASkey.keys,PASkey.corr,PASkey.rt,spacebarContinue.started,textBreak.started,spacebarContinue.keys,spacebarContinue.rt,spacebar_reminder.keys,spacebar_TrainingPAS1.keys,spacebar_endpractice.keys,spacebar_reminder.started,textReminder.started,spacebar_reminder.rt,textInst_TrainingPAS1.started,spacebar_TrainingPAS1.started,spacebar_TrainingPAS1.rt,textend_practicePAS1.started,spacebar_endpractice.started,spacebar_endpractice.rt,textThanks.started,buttonURL.started,buttonURL.numClicks,buttonURL.timesOn,buttonURL.timesOff,laboratory,participant,session,date,expName,psychopyVersion,frameRate
,,,,,,,,,,,,,,,,,,,,,,,,,,,,,,,,26.8805679,space,379.8399867,,,,,,,,,,,,,,,,,,,,,,,,,,,,,,,,,,,,,,,,,,,,,,,,,,,,,,,,,,,,,,,,,,,,,,,,,,,,,,,,,,,,,,,,,,,,,,,,,,,,,,,,,,,,,,,,,,,,,,,,,,,,,,10,9,2,2024-10-31_09h28.31.578,uWM_experiment,2022.2.3,59.99714413
,,,,,,,,,,,,,,,,,,,,,,,,,,,,,,,,,,,406.763997,406.763997,406.763997,406.763997,space,6.8365796,,,,,,,,,,,,,,,,,,,,,,,,,,,,,,,,,,,,,,,,,,,,,,,,,,,,,,,,,,,,,,,,,,,,,,,,,,,,,,,,,,,,,,,,,,,,,,,,,,,,,,,,,,,,,,,,,,,,,,,,10,9,2,2024-10-31_09h28.31.578,uWM_experiment,2022.2.3,59.99714413
,,,,,,,,,,,,,,,,,,,,,,,,,,,,,,,,,,,,,,,,,413.6309748,space,4.3534187,,,,,,,,,,,,,,,,,,,,,,,,,,,,,,,,,,,,,,,,,,,,,,,,,,,,,,,,,,,,,,,,,,,,,,,,,,,,,,,,,,,,,,,,,,,,,,,,,,,,,,,,,,,,,,,,,,,,,10,9,2,2024-10-31_09h28.31.578,uWM_experiment,2022.2.3,59.99714413
,,,,,,,,,,,,,,,,,,,,,,,,,,,,,,,,,,,,,,,,,,,,418.0145022,418.0145022,space,7.209958,,,,,,,,,,,,,,,,,,,,,,,,,,,,,,,,,,,,,,,,,,,,,,,,,,,,,,,,,,,,,,,,,,,,,,,,,,,,,,,,,,,,,,,,,,,,,,,,,,,,,,,,,,,,,,,,,10,9,2,2024-10-31_09h28.31.578,uWM_experiment,2022.2.3,59.99714413
0,0,0,0,,,,,,,,,,,,,,,,,,,,,,,,,,,,,,,,,,,,,,,,,,,,,,,,,,,,,,,,,,,,,,,,,,,,,,,,,,,,,,,,,,,,,,,,,,,,,,,,,,,,,,,,,,,,,,,,,,,,,,,,,,,,,,,,,,,,,,,,,,,,,,,,,,,,,,,,,,,,,10,9,2,2024-10-31_09h28.31.578,uWM_experiment,2022.2.3,59.99714413
1,0,1,0,,,,,,,,,,,,,,,,,,,,,,,,,,,,,,,,,,,,,,,,,,,,,,,,,,,,,,,,,,,,,,,,,,,,,,,,,,,,,,,,,,,,,,,,,,,,,,,,,,,,,,,,,,,,,,,,,,,,,,,,,,,,,,,,,,,,,,,,,,,,,,,,,,,,,,,,,,,,,10,9,2,2024-10-31_09h28.31.578,uWM_experiment,2022.2.3,59.99714413
2,0,2,0,,,,,,,,,,,,,,,,,,,,,,,,,,,,,,,,,,,,,,,,,,,,,,,,,,,,,,,,,,,,,,,,,,,,,,,,,,,,,,,,,,,,,,,,,,,,,,,,,,,,,,,,,,,,,,,,,,,,,,,,,,,,,,,,,,,,,,,,,,,,,,,,,,,,,,,,,,,,,10,9,2,2024-10-31_09h28.31.578,uWM_experiment,2022.2.3,59.99714413
,,,,,,,,,,,,,,,,,,,,,,,,,,,,,,,,,,,,,,,,,,,,,,,,439.9988429,439.9988429,space,12.4817037,,,,,,,,,,,,,,,,,,,,,,,,,,,,,,,,,,,,,,,,,,,,,,,,,,,,,,,,,,,,,,,,,,,,,,,,,,,,,,,,,,,,,,,,,,,,,,,,,,,,,,,,,,,,,10,9,2,2024-10-31_09h28.31.578,uWM_experiment,2022.2.3,59.99714413
,,,,0,0,0,0,,,,,,,,,,,,,,,,,,,,,,,,,,,,,,,,,,,,,,,,,,,,,,,,,,,,,,,,,,,,,,,,,,,,,,,,,,,,,,,,,,,,,,,,,,,,,,,,,,,,,,,,,,,,,,,,,,,,,,,,,,,,,,,,,,,,,,,,,,,,,,,,,,,,,,,,,10,9,2,2024-10-31_09h28.31.578,uWM_experiment,2022.2.3,59.99714413
,,,,1,0,1,0,,,,,,,,,,,,,,,,,,,,,,,,,,,,,,,,,,,,,,,,,,,,,,,,,,,,,,,,,,,,,,,,,,,,,,,,,,,,,,,,,,,,,,,,,,,,,,,,,,,,,,,,,,,,,,,,,,,,,,,,,,,,,,,,,,,,,,,,,,,,,,,,,,,,,,,,,10,9,2,2024-10-31_09h28.31.578,uWM_experiment,2022.2.3,59.99714413
,,,,2,0,2,0,,,,,,,,,,,,,,,,,,,,,,,,,,,,,,,,,,,,,,,,,,,,,,,,,,,,,,,,,,,,,,,,,,,,,,,,,,,,,,,,,,,,,,,,,,,,,,,,,,,,,,,,,,,,,,,,,,,,,,,,,,,,,,,,,,,,,,,,,,,,,,,,,,,,,,,,,10,9,2,2024-10-31_09h28.31.578,uWM_experiment,2022.2.3,59.99714413
,,,,,,,,,,,,,,,,,,,,,,,,,,,,,,,,,,,,,,,,,,,,,,,,,,,,461.7664999,461.7664999,space,8.3620271,,,,,,,,,,,,,,,,,,,,,,,,,,,,,,,,,,,,,,,,,,,,,,,,,,,,,,,,,,,,,,,,,,,,,,,,,,,,,,,,,,,,,,,,,,,,,,,,,,,,,,,,,10,9,2,2024-10-31_09h28.31.578,uWM_experiment,2022.2.3,59.99714413
,,,,,,,,,,,,,,,,,,,,,,,,,,,,,,,,,,,,,,,,,,,,,,,,,,,,,,,,676.9928562,space,4.7517807,,,,,,,,,,,,,,,,,,,,,,,,,,,,,,,,,,,,,,,,,,,,,,,,,,,,,,,,,,,,,,,,,,,,,,,,,,,,,,,,,,,,,,,,,,,,,,,,,,,,,,10,9,2,2024-10-31_09h28.31.578,uWM_experiment,2022.2.3,59.99714413
,,,,,,,,,,,,,,,,,,,,,,,,,,,,,,,,,,,,,,,,,,,,,,,,,,,,,,,,,,,681.7763742,space,31.0803505,,,,,,,,,,,,,,,,,,,,,,,,,,,,,,,,,,,,,,,,,,,,,,,,,,,,,,,,,,,,,,,,,,,,,,,,,,,,,,,,,,,,,,,,,,,,,,,,,,,10,9,2,2024-10-31_09h28.31.578,uWM_experiment,2022.2.3,59.99714413
,,,,,,,,,,,,,,,,,,,,,,,,,,,,,,,,,,,,,,,,,,,,,,,,,,,,,,,,,,,,,,712.8777996,712.8777996,712.8777996,712.8777996,712.8777996,712.8777996,space,19.6029112,,,,,,,,,,,,,,,,,,,,,,,,,,,,,,,,,,,,,,,,,,,,,,,,,,,,,,,,,,,,,,,,,,,,,,,,,,,,,,,,,,,,,,,,,,,10,9,2,2024-10-31_09h28.31.578,uWM_experiment,2022.2.3,59.99714413
,,,,,,,,,,,,,,,,,,,,,,,,,,,,,,,,,,,,,,,,,,,,,,,,,,,,,,,,,,,,,,,,,,,,,,732.5119828,732.5119828,space,5.4486769,,,,,,,,,,,,,,,,,,,,,,,,,,,,,,,,,,,,,,,,,,,,,,,,,,,,,,,,,,,,,,,,,,,,,,,,,,,,,,,,,,,,,,,10,9,2,2024-10-31_09h28.31.578,uWM_experiment,2022.2.3,59.99714413
,,,,,,,,,,,,,,,,,,,,,,,,,,,,,,,,,,,,,,,,,,,,,,,,,,,,,,,,,,,,,,,,,,,,,,,,,,737.9789025,737.9789025,space,7.109783,,,,,,,,,,,,,,,,,,,,,,,,,,,,,,,,,,,,,,,,,,,,,,,,,,,,,,,,,,,,,,,,,,,,,,,,,,,,,,,,,,,10,9,2,2024-10-31_09h28.31.578,uWM_experiment,2022.2.3,59.99714413
,,,,,,,,0,0,0,0,0,0,0,0,,,,,,,,,,,,,,,,,,,,,,,,,,,,,,,,,,,,,,,,,,,,,,,,,,,,,,,,,,,,,,,left,1,160,-30,130,753.7296244,754.729652,754.729652,754.729652,754.729652,None,None,4,0,3.9671566,,,,,,,,,,,,,,,,,,,,,,,,,,,,,,,,,,,,,,,,,,,,,,,,,,,,,,,,,,,,,,,,,,,,10,9,2,2024-10-31_09h28.31.578,uWM_experiment,2022.2.3,59.99714413
,,,,,,,,0,0,0,0,1,0,1,0,,,,,,,,,,,,,,,,,,,,,,,,,,,,,,,,,,,,,,,,,,,,,,,,,,,,,,,,,,,,,,,right,1,130,30,160,764.7967738,765.7968166,765.7968166,765.7968166,765.7968166,None,None,4,0,1.1238801,,,,,,,,,,,,,,,,,,,,,,,,,,,,,,,,,,,,,,,,,,,,,,,,,,,,,,,,,,,,,,,,,,,,10,9,2,2024-10-31_09h28.31.578,uWM_experiment,2022.2.3,59.99714413
,,,,,,,,0,0,0,0,2,0,2,0,,,,,,,,,,,,,,,,,,,,,,,,,,,,,,,,,,,,,,,,,,,,,,,,,,,,,,,,,,,,,,,left,1,10,-30,-20,773.2471603,774.247198,774.247198,774.247198,774.247198,None,None,4,0,0.8893944,,,,,,,,,,,,,,,,,,,,,,,,,,,,,,,,,,,,,,,,,,,,,,,,,,,,,,,,,,,,,,,,,,,,10,9,2,2024-10-31_09h28.31.578,uWM_experiment,2022.2.3,59.99714413
,,,,,,,,0,0,0,0,3,0,3,0,,,,,,,,,,,,,,,,,,,,,,,,,,,,,,,,,,,,,,,,,,,,,,,,,,,,,,,,,,,,,,,left,1,40,-30,10,781.1975085,782.1975537,782.1975537,782.1975537,782.1975537,None,None,4,0,1.3951852,,,,,,,,,,,,,,,,,,,,,,,,,,,,,,,,,,,,,,,,,,,,,,,,,,,,,,,,,,,,,,,,,,,,10,9,2,2024-10-31_09h28.31.578,uWM_experiment,2022.2.3,59.99714413
,,,,,,,,0,0,0,0,4,0,4,0,,,,,,,,,,,,,,,,,,,,,,,,,,,,,,,,,,,,,,,,,,,,,,,,,,,,,,,,,,,,,,,right,1,40,30,70,789.6479001,790.6479381,790.6479381,790.6479381,790.6479381,None,None,4,0,0.6407479,,,,,,,,,,,,,,,,,,,,,,,,,,,,,,,,,,,,,,,,,,,,,,,,,,,,,,,,,,,,,,,,,,,,10,9,2,2024-10-31_09h28.31.578,uWM_experiment,2022.2.3,59.99714413
,,,,,,,,0,0,0,0,5,0,5,0,,,,,,,,,,,,,,,,,,,,,,,,,,,,,,,,,,,,,,,,,,,,,,,,,,,,,,,,,,,,,,,right,1,10,30,40,797.4815785,798.481637,798.481637,798.481637,798.481637,None,None,4,0,0.9910506,,,,,,,,,,,,,,,,,,,,,,,,,,,,,,,,,,,,,,,,,,,,,,,,,,,,,,,,,,,,,,,,,,,,10,9,2,2024-10-31_09h28.31.578,uWM_experiment,2022.2.3,59.99714413
,,,,,,,,0,0,0,0,,,,,,,,,,,,,,,,,,,,,,,,,,,,,,,,,,,,,,,,,,,,,,,,,,,,,,,,,,,,,,,,,,,,,,,,,,,,,,,,,,,,,,,,,,,,,,,,,,,,,,,,,,,,,,,,,,,,,,,,,,,,,,,,,,,,,,,,,,,,,,,,,,,,,10,9,2,2024-10-31_09h28.31.578,uWM_experiment,2022.2.3,59.99714413
,,,,,,,,,,,,,,,,,,,,,,,,,,,,,,,,,,,,,,,,,,,,,,,,,,,,,,,,,,,,,,,,,,,,,,,,,,,,,,,,,,,,,,,,,,,,,804.8652406,804.8652406,space,6.0074519,,,,,,,,,,,,,,,,,,,,,,,,,,,,,,,,,,,,,,,,,,,,,,,,,,,,,,,,,,,,,,,,10,9,2,2024-10-31_09h28.31.578,uWM_experiment,2022.2.3,59.99714413
,,,,,,,,,,,,,,,,0,0,0,0,,,,,,,,,,,,,,,,,,,,,,,,,,,,,,,,,,,,,,,,,,,,,,,,,,,,,,,,,,,,,,,,,,,,,,,,,,,,,,0.200189765,right,1,100,30,130,1,816.7324439,816.7324439,816.7324439,None,None,3,0,2.3004022,,,,,,,,,,,,,,,,,,,,,,,,,,,,,,,,,,,,,,,,,,,,,,,,,10,9,2,2024-10-31_09h28.31.578,uWM_experiment,2022.2.3,59.99714413
,,,,,,,,,,,,,,,,1,0,1,0,,,,,,,,,,,,,,,,,,,,,,,,,,,,,,,,,,,,,,,,,,,,,,,,,,,,,,,,,,,,,,,,,,,,,,,,,,,,,,0.190189765,left,1,160,-30,130,1,824.7661401,824.7661401,824.7661401,None,None,3,0,1.8666575,0,,,,,,,,,,,,,,,,,,,,,,,,,,,,,,,,,,,,,,,,,,,,,,,,10,9,2,2024-10-31_09h28.31.578,uWM_experiment,2022.2.3,59.99714413
,,,,,,,,,,,,,,,,2,0,2,0,,,,,,,,,,,,,,,,,,,,,,,,,,,,,,,,,,,,,,,,,,,,,,,,,,,,,,,,,,,,,,,,,,,,,,,,,,,,,,0.1,right,1,40,30,70,2,832.4331527,832.4331527,832.4331527,None,None,4,0,1.0235234,0,,,,,,,,,,,,,,,,,,,,,,,,,,,,,,,,,,,,,,,,,,,,,,,,10,9,2,2024-10-31_09h28.31.578,uWM_experiment,2022.2.3,59.99714413
,,,,,,,,,,,,,,,,3,0,3,0,,,,,,,,,,,,,,,,,,,,,,,,,,,,,,,,,,,,,,,,,,,,,,,,,,,,,,,,,,,,,,,,,,,,,,,,,,,,,,0.1,left,1,130,-30,100,2,839.4668139,839.4668139,839.4668139,None,None,4,0,1.2938434,0,,,,,,,,,,,,,,,,,,,,,,,,,,,,,,,,,,,,,,,,,,,,,,,,10,9,2,2024-10-31_09h28.31.578,uWM_experiment,2022.2.3,59.99714413
,,,,,,,,,,,,,,,,4,0,4,0,,,,,,,,,,,,,,,,,,,,,,,,,,,,,,,,,,,,,,,,,,,,,,,,,,,,,,,,,,,,,,,,,,,,,,,,,,,,,,0.180189765,left,0,70,30,100,1,848.2005205,848.2005205,848.2005205,None,None,3,0,1.9521083,0,,,,,,,,,,,,,,,,,,,,,,,,,,,,,,,,,,,,,,,,,,,,,,,,10,9,2,2024-10-31_09h28.31.578,uWM_experiment,2022.2.3,59.99714413
,,,,,,,,,,,,,,,,5,0,5,0,,,,,,,,,,,,,,,,,,,,,,,,,,,,,,,,,,,,,,,,,,,,,,,,,,,,,,,,,,,,,,,,,,,,,,,,,,,,,,0.1,left,1,10,-30,-20,2,856.3342264,856.3342264,856.3342264,None,None,4,0,1.282575,0,,,,,,,,,,,,,,,,,,,,,,,,,,,,,,,,,,,,,,,,,,,,,,,,10,9,2,2024-10-31_09h28.31.578,uWM_experiment,2022.2.3,59.99714413
,,,,,,,,,,,,,,,,,,,,,,,,,,,,,,,,,,,,,,,,,,,,,,,,,,,,,,,,,,,,,,,,,,,,,,,,,,,,,,,,,,,,,,,,,,,,,,,,,,,,,,,,,,,,,,,,,857.6342635,858.617642,space,8.0391649,,,,,,,,,,,,,,,,,,,,,,,,,,,,,,,,,,,,,,,,,,,,10,9,2,2024-10-31_09h28.31.578,uWM_experiment,2022.2.3,59.99714413
,,,,,,,,,,,,,,,,,,,,0,0,0,0,0,0,0,0,,,,,,,,,,,,,,,,,,,,,,,,,,,,,,,,,,,,,,,,,,,,,,,,,,,,,,,,,,,,,,,,,,,,,,0.180189765,,,,,,,,,,,,,,,,,,,,866.6846983,867.3847127,867.6680839,868.3680879,868.6681014,869.3681332,869.3681332,869.718164,right,0,100,-30,70,1,876.7518073,876.7518073,876.7518073,None,None,3,0,1.9528275,,,,,,,,,,,,,,,,,,,,,,10,9,2,2024-10-31_09h28.31.578,uWM_experiment,2022.2.3,59.99714413
,,,,,,,,,,,,,,,,,,,,0,0,0,0,1,0,1,0,,,,,,,,,,,,,,,,,,,,,,,,,,,,,,,,,,,,,,,,,,,,,,,,,,,,,,,,,,,,,,,,,,,,,,0.170189765,,,,,,,,,,,,,,,,,,,,,,,,,,,,right,1,10,30,40,1,885.3022125,885.3022125,885.3022125,None,None,3,0,0.5785062,,,,,,,,,,,,,,,,,,,,,,10,9,2,2024-10-31_09h28.31.578,uWM_experiment,2022.2.3,59.99714413
,,,,,,,,,,,,,,,,,,,,0,0,0,0,2,0,2,0,,,,,,,,,,,,,,,,,,,,,,,,,,,,,,,,,,,,,,,,,,,,,,,,,,,,,,,,,,,,,,,,,,,,,,0.160189765,,,,,,,,,,,,,,,,,,,,,,,,,,,,left,1,70,-30,40,1,892.5192052,892.5192052,892.5192052,None,None,3,0,1.1054694,,,,,,,,,,,,,,,,,,,,,,10,9,2,2024-10-31_09h28.31.578,uWM_experiment,2022.2.3,59.99714413
,,,,,,,,,,,,,,,,,,,,0,0,0,0,3,0,3,0,,,,,,,,,,,,,,,,,,,,,,,,,,,,,,,,,,,,,,,,,,,,,,,,,,,,,,,,,,,,,,,,,,,,,,0.150189765,,,,,,,,,,,,,,,,,,,,,,,,,,,,right,1,70,30,100,1,899.5195313,899.5195313,899.5195313,None,None,3,0,0.8652141,,,,,,,,,,,,,,,,,,,,,,10,9,2,2024-10-31_09h28.31.578,uWM_experiment,2022.2.3,59.99714413
,,,,,,,,,,,,,,,,,,,,0,0,0,0,4,0,4,0,,,,,,,,,,,,,,,,,,,,,,,,,,,,,,,,,,,,,,,,,,,,,,,,,,,,,,,,,,,,,,,,,,,,,,0,,,,,,,,,,,,,,,,,,,,,,,,,,,,left,1,160,-30,130,0,907.6865567,907.6865567,907.6865567,None,None,1,1,1.2982521,,,,,,,,,,,,,,,,,,,,,,10,9,2,2024-10-31_09h28.31.578,uWM_experiment,2022.2.3,59.99714413
,,,,,,,,,,,,,,,,,,,,0,0,0,0,5,0,5,0,,,,,,,,,,,,,,,,,,,,,,,,,,,,,,,,,,,,,,,,,,,,,,,,,,,,,,,,,,,,,,,,,,,,,,0.140189765,,,,,,,,,,,,,,,,,,,,,,,,,,,,right,1,40,30,70,1,914.6201975,914.6201975,914.6201975,None,None,3,0,0.8766045,,,,,,,,,,,,,,,,,,,,,,10,9,2,2024-10-31_09h28.31.578,uWM_experiment,2022.2.3,59.99714413
,,,,,,,,,,,,,,,,,,,,0,0,0,0,6,0,6,0,,,,,,,,,,,,,,,,,,,,,,,,,,,,,,,,,,,,,,,,,,,,,,,,,,,,,,,,,,,,,,,,,,,,,,0,,,,,,,,,,,,,,,,,,,,,,,,,,,,left,0,70,30,100,0,921.3371871,921.3371871,921.3371871,None,None,1,1,0.4714592,,,,,,,,,,,,,,,,,,,,,,10,9,2,2024-10-31_09h28.31.578,uWM_experiment,2022.2.3,59.99714413
,,,,,,,,,,,,,,,,,,,,0,0,0,0,7,0,7,0,,,,,,,,,,,,,,,,,,,,,,,,,,,,,,,,,,,,,,,,,,,,,,,,,,,,,,,,,,,,,,,,,,,,,,0,,,,,,,,,,,,,,,,,,,,,,,,,,,,left,1,70,-30,40,0,929.7375373,929.7375373,929.7375373,None,None,1,1,0.4792808,,,,,,,,,,,,,,,,,,,,,,10,9,2,2024-10-31_09h28.31.578,uWM_experiment,2022.2.3,59.99714413
,,,,,,,,,,,,,,,,,,,,0,0,0,0,8,0,8,0,,,,,,,,,,,,,,,,,,,,,,,,,,,,,,,,,,,,,,,,,,,,,,,,,,,,,,,,,,,,,,,,,,,,,,0,,,,,,,,,,,,,,,,,,,,,,,,,,,,left,0,70,30,100,0,935.904466,935.904466,935.904466,None,None,1,1,0.4963292,,,,,,,,,,,,,,,,,,,,,,10,9,2,2024-10-31_09h28.31.578,uWM_experiment,2022.2.3,59.99714413
,,,,,,,,,,,,,,,,,,,,0,0,0,0,9,0,9,0,,,,,,,,,,,,,,,,,,,,,,,,,,,,,,,,,,,,,,,,,,,,,,,,,,,,,,,,,,,,,,,,,,,,,,0,,,,,,,,,,,,,,,,,,,,,,,,,,,,right,0,160,-30,130,0,942.4047455,942.4047455,942.4047455,None,None,1,1,0.3560498,,,,,,,,,,,,,,,,,,,,,,10,9,2,2024-10-31_09h28.31.578,uWM_experiment,2022.2.3,59.99714413
,,,,,,,,,,,,,,,,,,,,0,0,0,0,10,0,10,0,,,,,,,,,,,,,,,,,,,,,,,,,,,,,,,,,,,,,,,,,,,,,,,,,,,,,,,,,,,,,,,,,,,,,,0.130189765,,,,,,,,,,,,,,,,,,,,,,,,,,,,left,1,130,-30,100,1,948.4383587,948.4383587,948.4383587,None,None,3,0,1.5223642,,,,,,,,,,,,,,,,,,,,,,10,9,2,2024-10-31_09h28.31.578,uWM_experiment,2022.2.3,59.99714413
,,,,,,,,,,,,,,,,,,,,0,0,0,0,11,0,11,0,,,,,,,,,,,,,,,,,,,,,,,,,,,,,,,,,,,,,,,,,,,,,,,,,,,,,,,,,,,,,,,,,,,,,,0.120189765,,,,,,,,,,,,,,,,,,,,,,,,,,,,right,1,130,30,160,1,955.7720328,955.7720328,955.7720328,None,None,3,0,0.5407295,,,,,,,,,,,,,,,,,,,,,,10,9,2,2024-10-31_09h28.31.578,uWM_experiment,2022.2.3,59.99714413
,,,,,,,,,,,,,,,,,,,,0,0,0,0,12,0,12,0,,,,,,,,,,,,,,,,,,,,,,,,,,,,,,,,,,,,,,,,,,,,,,,,,,,,,,,,,,,,,,,,,,,,,,0,,,,,,,,,,,,,,,,,,,,,,,,,,,,right,0,70,-30,40,0,962.0056514,962.0056514,962.0056514,None,None,1,1,0.3231353,,,,,,,,,,,,,,,,,,,,,,10,9,2,2024-10-31_09h28.31.578,uWM_experiment,2022.2.3,59.99714413
,,,,,,,,,,,,,,,,,,,,0,0,0,0,13,0,13,0,,,,,,,,,,,,,,,,,,,,,,,,,,,,,,,,,,,,,,,,,,,,,,,,,,,,,,,,,,,,,,,,,,,,,,0.110189765,,,,,,,,,,,,,,,,,,,,,,,,,,,,left,1,70,-30,40,1,968.5726092,968.5726092,968.5726092,None,None,1,1,0.9005021,,,,,,,,,,,,,,,,,,,,,,10,9,2,2024-10-31_09h28.31.578,uWM_experiment,2022.2.3,59.99714413
,,,,,,,,,,,,,,,,,,,,0,0,0,0,14,0,14,0,,,,,,,,,,,,,,,,,,,,,,,,,,,,,,,,,,,,,,,,,,,,,,,,,,,,,,,,,,,,,,,,,,,,,,0.120189765,,,,,,,,,,,,,,,,,,,,,,,,,,,,right,0,100,-30,70,1,975.3895599,975.3895599,975.3895599,None,None,1,1,0.8031293,,,,,,,,,,,,,,,,,,,,,,10,9,2,2024-10-31_09h28.31.578,uWM_experiment,2022.2.3,59.99714413
,,,,,,,,,,,,,,,,,,,,0,0,0,0,15,0,15,0,,,,,,,,,,,,,,,,,,,,,,,,,,,,,,,,,,,,,,,,,,,,,,,,,,,,,,,,,,,,,,,,,,,,,,0.130189765,,,,,,,,,,,,,,,,,,,,,,,,,,,,left,1,160,-30,130,1,982.0732235,982.0732235,982.0732235,None,None,3,0,0.639579,,,,,,,,,,,,,,,,,,,,,,10,9,2,2024-10-31_09h28.31.578,uWM_experiment,2022.2.3,59.99714413
,,,,,,,,,,,,,,,,,,,,0,0,0,0,16,0,16,0,,,,,,,,,,,,,,,,,,,,,,,,,,,,,,,,,,,,,,,,,,,,,,,,,,,,,,,,,,,,,,,,,,,,,,0.120189765,,,,,,,,,,,,,,,,,,,,,,,,,,,,left,1,40,-30,10,1,988.9235092,988.9235092,988.9235092,None,None,3,0,0.7334495,,,,,,,,,,,,,,,,,,,,,,10,9,2,2024-10-31_09h28.31.578,uWM_experiment,2022.2.3,59.99714413
,,,,,,,,,,,,,,,,,,,,0,0,0,0,17,0,17,0,,,,,,,,,,,,,,,,,,,,,,,,,,,,,,,,,,,,,,,,,,,,,,,,,,,,,,,,,,,,,,,,,,,,,,0.1,,,,,,,,,,,,,,,,,,,,,,,,,,,,right,1,160,30,190,2,995.4571573,995.4571573,995.4571573,None,None,4,0,0.4157268,,,,,,,,,,,,,,,,,,,,,,10,9,2,2024-10-31_09h28.31.578,uWM_experiment,2022.2.3,59.99714413
,,,,,,,,,,,,,,,,,,,,0,0,0,0,18,0,18,0,,,,,,,,,,,,,,,,,,,,,,,,,,,,,,,,,,,,,,,,,,,,,,,,,,,,,,,,,,,,,,,,,,,,,,0,,,,,,,,,,,,,,,,,,,,,,,,,,,,left,1,40,-30,10,0,1001.557435,1001.557435,1001.557435,None,None,1,1,0.3873029,,,,,,,,,,,,,,,,,,,,,,10,9,2,2024-10-31_09h28.31.578,uWM_experiment,2022.2.3,59.99714413
,,,,,,,,,,,,,,,,,,,,0,0,0,0,19,0,19,0,,,,,,,,,,,,,,,,,,,,,,,,,,,,,,,,,,,,,,,,,,,,,,,,,,,,,,,,,,,,,,,,,,,,,,0,,,,,,,,,,,,,,,,,,,,,,,,,,,,right,0,100,-30,70,0,1007.974369,1007.974369,1007.974369,None,None,1,1,0.3703296,,,,,,,,,,,,,,,,,,,,,,10,9,2,2024-10-31_09h28.31.578,uWM_experiment,2022.2.3,59.99714413
,,,,,,,,,,,,,,,,,,,,0,0,0,0,20,0,20,0,,,,,,,,,,,,,,,,,,,,,,,,,,,,,,,,,,,,,,,,,,,,,,,,,,,,,,,,,,,,,,,,,,,,,,0.1,,,,,,,,,,,,,,,,,,,,,,,,,,,,left,1,160,-30,130,2,1014.174642,1014.174642,1014.174642,None,None,4,0,0.3700772,,,,,,,,,,,,,,,,,,,,,,10,9,2,2024-10-31_09h28.31.578,uWM_experiment,2022.2.3,59.99714413
,,,,,,,,,,,,,,,,,,,,0,0,0,0,21,0,21,0,,,,,,,,,,,,,,,,,,,,,,,,,,,,,,,,,,,,,,,,,,,,,,,,,,,,,,,,,,,,,,,,,,,,,,0.110189765,,,,,,,,,,,,,,,,,,,,,,,,,,,,right,1,130,30,160,1,1020.124908,1020.124908,1020.124908,None,None,3,0,0.7239024,,,,,,,,,,,,,,,,,,,,,,10,9,2,2024-10-31_09h28.31.578,uWM_experiment,2022.2.3,59.99714413
,,,,,,,,,,,,,,,,,,,,0,0,0,0,22,0,22,0,,,,,,,,,,,,,,,,,,,,,,,,,,,,,,,,,,,,,,,,,,,,,,,,,,,,,,,,,,,,,,,,,,,,,,0.100189765,,,,,,,,,,,,,,,,,,,,,,,,,,,,left,1,40,-30,10,1,1026.341866,1026.341866,1026.341866,None,None,3,0,1.0589632,,,,,,,,,,,,,,,,,,,,,,10,9,2,2024-10-31_09h28.31.578,uWM_experiment,2022.2.3,59.99714413
,,,,,,,,,,,,,,,,,,,,0,0,0,0,23,0,23,0,,,,,,,,,,,,,,,,,,,,,,,,,,,,,,,,,,,,,,,,,,,,,,,,,,,,,,,,,,,,,,,,,,,,,,0.090189765,,,,,,,,,,,,,,,,,,,,,,,,,,,,right,1,130,30,160,1,1033.825539,1033.825539,1033.825539,None,None,3,0,0.3992765,,,,,,,,,,,,,,,,,,,,,,10,9,2,2024-10-31_09h28.31.578,uWM_experiment,2022.2.3,59.99714413
,,,,,,,,,,,,,,,,,,,,0,0,0,0,,,,,0,0,0,0,,,,,,,,,,,,,,,,,,,,,,,,,,,,,,,,,,,,,,,,,,,,,,,,,,,,,,,,,,,,,,,,,,,,,,,,,,,,,,,,,,,,,,,,,,,,,,,,,,,,,,,,,,,,1034.242211,1034.242211,space,15.0146717,None,None,,,,,,,,,,,,,,,,10,9,2,2024-10-31_09h28.31.578,uWM_experiment,2022.2.3,59.99714413
,,,,,,,,,,,,,,,,,,,,0,0,0,0,,,,,1,0,1,0,,,,,,,,,,,,,,,,,,,,,,,,,,,,,,,,,,,,,,,,,,,,,,,,,,,,,,,,,,,,,,,,,,,,,,,,,,,,,,,,,,,,,,,,,,,,,,,,,,,,,,,,,,,,,,,,,,,,,,,,,,,,,,,,,10,9,2,2024-10-31_09h28.31.578,uWM_experiment,2022.2.3,59.99714413
,,,,,,,,,,,,,,,,,,,,0,0,0,0,,,,,2,0,2,0,,,,,,,,,,,,,,,,,,,,,,,,,,,,,,,,,,,,,,,,,,,,,,,,,,,,,,,,,,,,,,,,,,,,,,,,,,,,,,,,,,,,,,,,,,,,,,,,,,,,,,,,,,,,,,,,,,,,,,,,,,,,,,,,,10,9,2,2024-10-31_09h28.31.578,uWM_experiment,2022.2.3,59.99714413
,,,,,,,,,,,,,,,,,,,,1,0,1,0,0,0,0,0,,,,,,,,,,,,,,,,,,,,,,,,,,,,,,,,,,,,,,,,,,,,,,,,,,,,,,,,,,,,,,,,,,,,,,0.080189765,,,,,,,,,,,,,,,,,,,,1049.276214,1049.976242,1050.276257,1050.976288,1051.276299,1051.97632,1051.97632,1052.293021,left,1,70,-30,40,1,1057.476607,1057.476607,1057.476607,None,None,3,0,2.2841887,,,,,,,None,,,,,,,,,,,,,,,10,9,2,2024-10-31_09h28.31.578,uWM_experiment,2022.2.3,59.99714413
,,,,,,,,,,,,,,,,,,,,1,0,1,0,1,0,1,0,,,,,,,,,,,,,,,,,,,,,,,,,,,,,,,,,,,,,,,,,,,,,,,,,,,,,,,,,,,,,,,,,,,,,,0,,,,,,,,,,,,,,,,,,,,,,,,,,,,left,1,160,-30,130,0,1065.476943,1065.476943,1065.476943,None,None,1,1,0.5479126,,,,,,,,,,,,,,,,,,,,,,10,9,2,2024-10-31_09h28.31.578,uWM_experiment,2022.2.3,59.99714413
,,,,,,,,,,,,,,,,,,,,1,0,1,0,2,0,2,0,,,,,,,,,,,,,,,,,,,,,,,,,,,,,,,,,,,,,,,,,,,,,,,,,,,,,,,,,,,,,,,,,,,,,,0,,,,,,,,,,,,,,,,,,,,,,,,,,,,left,0,10,30,40,0,1072.427247,1072.427247,1072.427247,None,None,1,1,2.9495858,,,,,,,,,,,,,,,,,,,,,,10,9,2,2024-10-31_09h28.31.578,uWM_experiment,2022.2.3,59.99714413
,,,,,,,,,,,,,,,,,,,,1,0,1,0,3,0,3,0,,,,,,,,,,,,,,,,,,,,,,,,,,,,,,,,,,,,,,,,,,,,,,,,,,,,,,,,,,,,,,,,,,,,,,0.070189765,,,,,,,,,,,,,,,,,,,,,,,,,,,,left,1,40,-30,10,1,1082.111042,1082.111042,1082.111042,None,None,2,0,1.9217096,,,,,,,,,,,,,,,,,,,,,,10,9,2,2024-10-31_09h28.31.578,uWM_experiment,2022.2.3,59.99714413
,,,,,,,,,,,,,,,,,,,,1,0,1,0,4,0,4,0,,,,,,,,,,,,,,,,,,,,,,,,,,,,,,,,,,,,,,,,,,,,,,,,,,,,,,,,,,,,,,,,,,,,,,0.060189765,,,,,,,,,,,,,,,,,,,,,,,,,,,,right,1,100,30,130,1,1090.511391,1090.511391,1090.511391,None,None,2,0,1.4814963,,,,,,,,,,,,,,,,,,,,,,10,9,2,2024-10-31_09h28.31.578,uWM_experiment,2022.2.3,59.99714413
,,,,,,,,,,,,,,,,,,,,1,0,1,0,5,0,5,0,,,,,,,,,,,,,,,,,,,,,,,,,,,,,,,,,,,,,,,,,,,,,,,,,,,,,,,,,,,,,,,,,,,,,,0,,,,,,,,,,,,,,,,,,,,,,,,,,,,right,1,130,30,160,0,1097.778408,1097.778408,1097.778408,None,None,1,1,0.5264393,,,,,,,,,,,,,,,,,,,,,,10,9,2,2024-10-31_09h28.31.578,uWM_experiment,2022.2.3,59.99714413
,,,,,,,,,,,,,,,,,,,,1,0,1,0,6,0,6,0,,,,,,,,,,,,,,,,,,,,,,,,,,,,,,,,,,,,,,,,,,,,,,,,,,,,,,,,,,,,,,,,,,,,,,0.050189765,,,,,,,,,,,,,,,,,,,,,,,,,,,,right,1,40,30,70,1,1104.062022,1104.062022,1104.062022,None,None,3,0,1.5069169,,,,,,,,,,,,,,,,,,,,,,10,9,2,2024-10-31_09h28.31.578,uWM_experiment,2022.2.3,59.99714413
,,,,,,,,,,,,,,,,,,,,1,0,1,0,7,0,7,0,,,,,,,,,,,,,,,,,,,,,,,,,,,,,,,,,,,,,,,,,,,,,,,,,,,,,,,,,,,,,,,,,,,,,,0.040189765,,,,,,,,,,,,,,,,,,,,,,,,,,,,left,1,10,-30,-20,1,1111.079014,1111.079014,1111.079014,None,None,2,0,1.2017607,,,,,,,,,,,,,,,,,,,,,,10,9,2,2024-10-31_09h28.31.578,uWM_experiment,2022.2.3,59.99714413
,,,,,,,,,,,,,,,,,,,,1,0,1,0,8,0,8,0,,,,,,,,,,,,,,,,,,,,,,,,,,,,,,,,,,,,,,,,,,,,,,,,,,,,,,,,,,,,,,,,,,,,,,0.030189765,,,,,,,,,,,,,,,,,,,,,,,,,,,,left,1,160,-30,130,1,1117.912632,1117.912632,1117.912632,None,None,1,1,0.3683113,,,,,,,,,,,,,,,,,,,,,,10,9,2,2024-10-31_09h28.31.578,uWM_experiment,2022.2.3,59.99714413
,,,,,,,,,,,,,,,,,,,,1,0,1,0,9,0,9,0,,,,,,,,,,,,,,,,,,,,,,,,,,,,,,,,,,,,,,,,,,,,,,,,,,,,,,,,,,,,,,,,,,,,,,0.040189765,,,,,,,,,,,,,,,,,,,,,,,,,,,,left,1,40,-30,10,1,1124.062919,1124.062919,1124.062919,None,None,1,1,1.7459446,,,,,,,,,,,,,,,,,,,,,,10,9,2,2024-10-31_09h28.31.578,uWM_experiment,2022.2.3,59.99714413
,,,,,,,,,,,,,,,,,,,,1,0,1,0,10,0,10,0,,,,,,,,,,,,,,,,,,,,,,,,,,,,,,,,,,,,,,,,,,,,,,,,,,,,,,,,,,,,,,,,,,,,,,0.050189765,,,,,,,,,,,,,,,,,,,,,,,,,,,,right,0,100,-30,70,1,1132.263283,1132.263283,1132.263283,None,None,2,0,0.4576097,,,,,,,,,,,,,,,,,,,,,,10,9,2,2024-10-31_09h28.31.578,uWM_experiment,2022.2.3,59.99714413
,,,,,,,,,,,,,,,,,,,,1,0,1,0,11,0,11,0,,,,,,,,,,,,,,,,,,,,,,,,,,,,,,,,,,,,,,,,,,,,,,,,,,,,,,,,,,,,,,,,,,,,,,0.040189765,,,,,,,,,,,,,,,,,,,,,,,,,,,,left,1,130,-30,100,1,1138.53022,1138.53022,1138.53022,None,None,1,1,0.3185936,,,,,,,,,,,,,,,,,,,,,,10,9,2,2024-10-31_09h28.31.578,uWM_experiment,2022.2.3,59.99714413
,,,,,,,,,,,,,,,,,,,,1,0,1,0,12,0,12,0,,,,,,,,,,,,,,,,,,,,,,,,,,,,,,,,,,,,,,,,,,,,,,,,,,,,,,,,,,,,,,,,,,,,,,0.050189765,,,,,,,,,,,,,,,,,,,,,,,,,,,,right,1,160,30,190,1,1144.380515,1144.380515,1144.380515,None,None,1,1,0.3802773,,,,,,,,,,,,,,,,,,,,,,10,9,2,2024-10-31_09h28.31.578,uWM_experiment,2022.2.3,59.99714413
,,,,,,,,,,,,,,,,,,,,1,0,1,0,13,0,13,0,,,,,,,,,,,,,,,,,,,,,,,,,,,,,,,,,,,,,,,,,,,,,,,,,,,,,,,,,,,,,,,,,,,,,,0.060189765,,,,,,,,,,,,,,,,,,,,,,,,,,,,left,1,70,-30,40,1,1150.88078,1150.88078,1150.88078,None,None,1,1,0.2240873,,,,,,,,,,,,,,,,,,,,,,10,9,2,2024-10-31_09h28.31.578,uWM_experiment,2022.2.3,59.99714413
,,,,,,,,,,,,,,,,,,,,1,0,1,0,14,0,14,0,,,,,,,,,,,,,,,,,,,,,,,,,,,,,,,,,,,,,,,,,,,,,,,,,,,,,,,,,,,,,,,,,,,,,,0.070189765,,,,,,,,,,,,,,,,,,,,,,,,,,,,right,0,100,-30,70,1,1157.3144,1157.3144,1157.3144,None,None,1,1,0.4863772,,,,,,,,,,,,,,,,,,,,,,10,9,2,2024-10-31_09h28.31.578,uWM_experiment,2022.2.3,59.99714413
,,,,,,,,,,,,,,,,,,,,1,0,1,0,15,0,15,0,,,,,,,,,,,,,,,,,,,,,,,,,,,,,,,,,,,,,,,,,,,,,,,,,,,,,,,,,,,,,,,,,,,,,,0,,,,,,,,,,,,,,,,,,,,,,,,,,,,left,1,10,-30,-20,0,1163.54803,1163.54803,1163.54803,None,None,1,1,1.6609127,,,,,,,,,,,,,,,,,,,,,,10,9,2,2024-10-31_09h28.31.578,uWM_experiment,2022.2.3,59.99714413
,,,,,,,,,,,,,,,,,,,,1,0,1,0,16,0,16,0,,,,,,,,,,,,,,,,,,,,,,,,,,,,,,,,,,,,,,,,,,,,,,,,,,,,,,,,,,,,,,,,,,,,,,0.080189765,,,,,,,,,,,,,,,,,,,,,,,,,,,,left,1,70,-30,40,1,1171.798369,1171.798369,1171.798369,None,None,2,0,1.4665239,,,,,,,,,,,,,,,,,,,,,,10,9,2,2024-10-31_09h28.31.578,uWM_experiment,2022.2.3,59.99714413
,,,,,,,,,,,,,,,,,,,,1,0,1,0,17,0,17,0,,,,,,,,,,,,,,,,,,,,,,,,,,,,,,,,,,,,,,,,,,,,,,,,,,,,,,,,,,,,,,,,,,,,,,0.070189765,,,,,,,,,,,,,,,,,,,,,,,,,,,,left,1,130,-30,100,1,1179.598746,1179.598746,1179.598746,None,None,2,0,1.8581008,,,,,,,,,,,,,,,,,,,,,,10,9,2,2024-10-31_09h28.31.578,uWM_experiment,2022.2.3,59.99714413
,,,,,,,,,,,,,,,,,,,,1,0,1,0,18,0,18,0,,,,,,,,,,,,,,,,,,,,,,,,,,,,,,,,,,,,,,,,,,,,,,,,,,,,,,,,,,,,,,,,,,,,,,0,,,,,,,,,,,,,,,,,,,,,,,,,,,,left,0,70,30,100,0,1187.299093,1187.299093,1187.299093,None,None,1,1,1.1818633,,,,,,,,,,,,,,,,,,,,,,10,9,2,2024-10-31_09h28.31.578,uWM_experiment,2022.2.3,59.99714413
,,,,,,,,,,,,,,,,,,,,1,0,1,0,19,0,19,0,,,,,,,,,,,,,,,,,,,,,,,,,,,,,,,,,,,,,,,,,,,,,,,,,,,,,,,,,,,,,,,,,,,,,,0.060189765,,,,,,,,,,,,,,,,,,,,,,,,,,,,right,1,10,30,40,1,1195.049429,1195.049429,1195.049429,None,None,1,1,1.0795322,,,,,,,,,,,,,,,,,,,,,,10,9,2,2024-10-31_09h28.31.578,uWM_experiment,2022.2.3,59.99714413
,,,,,,,,,,,,,,,,,,,,1,0,1,0,20,0,20,0,,,,,,,,,,,,,,,,,,,,,,,,,,,,,,,,,,,,,,,,,,,,,,,,,,,,,,,,,,,,,,,,,,,,,,0,,,,,,,,,,,,,,,,,,,,,,,,,,,,left,1,70,-30,40,0,1202.149774,1202.149774,1202.149774,None,None,1,1,1.2991251,,,,,,,,,,,,,,,,,,,,,,10,9,2,2024-10-31_09h28.31.578,uWM_experiment,2022.2.3,59.99714413
,,,,,,,,,,,,,,,,,,,,1,0,1,0,21,0,21,0,,,,,,,,,,,,,,,,,,,,,,,,,,,,,,,,,,,,,,,,,,,,,,,,,,,,,,,,,,,,,,,,,,,,,,0.070189765,,,,,,,,,,,,,,,,,,,,,,,,,,,,right,1,100,30,130,1,1209.533407,1209.533407,1209.533407,None,None,2,0,1.8034207,,,,,,,,,,,,,,,,,,,,,,10,9,2,2024-10-31_09h28.31.578,uWM_experiment,2022.2.3,59.99714413
,,,,,,,,,,,,,,,,,,,,1,0,1,0,22,0,22,0,,,,,,,,,,,,,,,,,,,,,,,,,,,,,,,,,,,,,,,,,,,,,,,,,,,,,,,,,,,,,,,,,,,,,,0.060189765,,,,,,,,,,,,,,,,,,,,,,,,,,,,left,0,70,30,100,1,1217.683793,1217.683793,1217.683793,None,None,1,1,4.989181,,,,,,,,,,,,,,,,,,,,,,10,9,2,2024-10-31_09h28.31.578,uWM_experiment,2022.2.3,59.99714413
,,,,,,,,,,,,,,,,,,,,1,0,1,0,23,0,23,0,,,,,,,,,,,,,,,,,,,,,,,,,,,,,,,,,,,,,,,,,,,,,,,,,,,,,,,,,,,,,,,,,,,,,,0.070189765,,,,,,,,,,,,,,,,,,,,,,,,,,,,left,1,10,-30,-20,1,1228.617603,1228.617603,1228.617603,None,None,3,0,2.6872069,,,,,,,,,,,,,,,,,,,,,,10,9,2,2024-10-31_09h28.31.578,uWM_experiment,2022.2.3,59.99714413
,,,,,,,,,,,,,,,,,,,,1,0,1,0,,,,,0,0,0,0,,,,,,,,,,,,,,,,,,,,,,,,,,,,,,,,,,,,,,,,,,,,,,,,,,,,,,,,,,,,,,,,,,,,,,,,,,,,,,,,,,,,,,,,,,,,,,,,,,,,,,,,,,,,1231.33438,1231.33438,space,3.7065105,None,None,,,,,,,,,,,,,,,,10,9,2,2024-10-31_09h28.31.578,uWM_experiment,2022.2.3,59.99714413
,,,,,,,,,,,,,,,,,,,,1,0,1,0,,,,,1,0,1,0,,,,,,,,,,,,,,,,,,,,,,,,,,,,,,,,,,,,,,,,,,,,,,,,,,,,,,,,,,,,,,,,,,,,,,,,,,,,,,,,,,,,,,,,,,,,,,,,,,,,,,,,,,,,,,,,,,,,,,,,,,,,,,,,,10,9,2,2024-10-31_09h28.31.578,uWM_experiment,2022.2.3,59.99714413
,,,,,,,,,,,,,,,,,,,,1,0,1,0,,,,,2,0,2,0,,,,,,,,,,,,,,,,,,,,,,,,,,,,,,,,,,,,,,,,,,,,,,,,,,,,,,,,,,,,,,,,,,,,,,,,,,,,,,,,,,,,,,,,,,,,,,,,,,,,,,,,,,,,,,,,,,,,,,,,,,,,,,,,,10,9,2,2024-10-31_09h28.31.578,uWM_experiment,2022.2.3,59.99714413
,,,,,,,,,,,,,,,,,,,,2,0,2,0,0,0,0,0,,,,,,,,,,,,,,,,,,,,,,,,,,,,,,,,,,,,,,,,,,,,,,,,,,,,,,,,,,,,,,,,,,,,,,0.060189765,,,,,,,,,,,,,,,,,,,,1235.067887,1235.767923,1236.06794,1236.767964,1237.067983,1237.768013,1237.768013,1238.084701,right,1,100,30,130,1,1243.584968,1243.584968,1243.584968,None,None,2,0,3.2160532,,,,,,,None,,,,,,,,,,,,,,,10,9,2,2024-10-31_09h28.31.578,uWM_experiment,2022.2.3,59.99714413
,,,,,,,,,,,,,,,,,,,,2,0,2,0,1,0,1,0,,,,,,,,,,,,,,,,,,,,,,,,,,,,,,,,,,,,,,,,,,,,,,,,,,,,,,,,,,,,,,,,,,,,,,0.050189765,,,,,,,,,,,,,,,,,,,,,,,,,,,,right,0,100,-30,70,1,1253.81874,1253.81874,1253.81874,None,None,1,1,0.4061612,,,,,,,,,,,,,,,,,,,,,,10,9,2,2024-10-31_09h28.31.578,uWM_experiment,2022.2.3,59.99714413
,,,,,,,,,,,,,,,,,,,,2,0,2,0,2,0,2,0,,,,,,,,,,,,,,,,,,,,,,,,,,,,,,,,,,,,,,,,,,,,,,,,,,,,,,,,,,,,,,,,,,,,,,0.060189765,,,,,,,,,,,,,,,,,,,,,,,,,,,,left,1,40,-30,10,1,1259.919044,1259.919044,1259.919044,None,None,1,1,1.3537948,,,,,,,,,,,,,,,,,,,,,,10,9,2,2024-10-31_09h28.31.578,uWM_experiment,2022.2.3,59.99714413
,,,,,,,,,,,,,,,,,,,,2,0,2,0,3,0,3,0,,,,,,,,,,,,,,,,,,,,,,,,,,,,,,,,,,,,,,,,,,,,,,,,,,,,,,,,,,,,,,,,,,,,,,0.070189765,,,,,,,,,,,,,,,,,,,,,,,,,,,,left,1,40,-30,10,1,1266.985994,1266.985994,1266.985994,None,None,1,1,1.1028362,,,,,,,,,,,,,,,,,,,,,,10,9,2,2024-10-31_09h28.31.578,uWM_experiment,2022.2.3,59.99714413
,,,,,,,,,,,,,,,,,,,,2,0,2,0,4,0,4,0,,,,,,,,,,,,,,,,,,,,,,,,,,,,,,,,,,,,,,,,,,,,,,,,,,,,,,,,,,,,,,,,,,,,,,0.080189765,,,,,,,,,,,,,,,,,,,,,,,,,,,,right,1,40,30,70,1,1273.852969,1273.852969,1273.852969,None,None,1,1,2.0358924,,,,,,,,,,,,,,,,,,,,,,10,9,2,2024-10-31_09h28.31.578,uWM_experiment,2022.2.3,59.99714413
,,,,,,,,,,,,,,,,,,,,2,0,2,0,5,0,5,0,,,,,,,,,,,,,,,,,,,,,,,,,,,,,,,,,,,,,,,,,,,,,,,,,,,,,,,,,,,,,,,,,,,,,,0.090189765,,,,,,,,,,,,,,,,,,,,,,,,,,,,right,1,100,30,130,1,1282.020003,1282.020003,1282.020003,None,None,1,1,1.1888938,,,,,,,,,,,,,,,,,,,,,,10,9,2,2024-10-31_09h28.31.578,uWM_experiment,2022.2.3,59.99714413
,,,,,,,,,,,,,,,,,,,,2,0,2,0,6,0,6,0,,,,,,,,,,,,,,,,,,,,,,,,,,,,,,,,,,,,,,,,,,,,,,,,,,,,,,,,,,,,,,,,,,,,,,0.100189765,,,,,,,,,,,,,,,,,,,,,,,,,,,,left,1,70,-30,40,1,1289.687038,1289.687038,1289.687038,None,None,2,0,3.0018271,,,,,,,,,,,,,,,,,,,,,,10,9,2,2024-10-31_09h28.31.578,uWM_experiment,2022.2.3,59.99714413
,,,,,,,,,,,,,,,,,,,,2,0,2,0,7,0,7,0,,,,,,,,,,,,,,,,,,,,,,,,,,,,,,,,,,,,,,,,,,,,,,,,,,,,,,,,,,,,,,,,,,,,,,0,,,,,,,,,,,,,,,,,,,,,,,,,,,,left,1,70,-30,40,0,1299.27078,1299.27078,1299.27078,None,None,2,0,1.5141385,,,,,,,,,,,,,,,,,,,,,,10,9,2,2024-10-31_09h28.31.578,uWM_experiment,2022.2.3,59.99714413
,,,,,,,,,,,,,,,,,,,,2,0,2,0,8,0,8,0,,,,,,,,,,,,,,,,,,,,,,,,,,,,,,,,,,,,,,,,,,,,,,,,,,,,,,,,,,,,,,,,,,,,,,0.090189765,,,,,,,,,,,,,,,,,,,,,,,,,,,,left,1,40,-30,10,1,1306.77113,1306.77113,1306.77113,None,None,3,0,1.7417987,,,,,,,,,,,,,,,,,,,,,,10,9,2,2024-10-31_09h28.31.578,uWM_experiment,2022.2.3,59.99714413
,,,,,,,,,,,,,,,,,,,,2,0,2,0,9,0,9,0,,,,,,,,,,,,,,,,,,,,,,,,,,,,,,,,,,,,,,,,,,,,,,,,,,,,,,,,,,,,,,,,,,,,,,0.080189765,,,,,,,,,,,,,,,,,,,,,,,,,,,,right,1,100,30,130,1,1314.188125,1314.188125,1314.188125,None,None,3,0,1.308898,,,,,,,,,,,,,,,,,,,,,,10,9,2,2024-10-31_09h28.31.578,uWM_experiment,2022.2.3,59.99714413
,,,,,,,,,,,,,,,,,,,,2,0,2,0,10,0,10,0,,,,,,,,,,,,,,,,,,,,,,,,,,,,,,,,,,,,,,,,,,,,,,,,,,,,,,,,,,,,,,,,,,,,,,0.070189765,,,,,,,,,,,,,,,,,,,,,,,,,,,,right,1,130,30,160,1,1320.938433,1320.938433,1320.938433,None,None,3,0,1.1184928,,,,,,,,,,,,,,,,,,,,,,10,9,2,2024-10-31_09h28.31.578,uWM_experiment,2022.2.3,59.99714413
,,,,,,,,,,,,,,,,,,,,2,0,2,0,11,0,11,0,,,,,,,,,,,,,,,,,,,,,,,,,,,,,,,,,,,,,,,,,,,,,,,,,,,,,,,,,,,,,,,,,,,,,,0.060189765,,,,,,,,,,,,,,,,,,,,,,,,,,,,left,0,160,30,190,1,1327.888732,1327.888732,1327.888732,None,None,3,0,1.3762548,,,,,,,,,,,,,,,,,,,,,,10,9,2,2024-10-31_09h28.31.578,uWM_experiment,2022.2.3,59.99714413
,,,,,,,,,,,,,,,,,,,,2,0,2,0,12,0,12,0,,,,,,,,,,,,,,,,,,,,,,,,,,,,,,,,,,,,,,,,,,,,,,,,,,,,,,,,,,,,,,,,,,,,,,0,,,,,,,,,,,,,,,,,,,,,,,,,,,,left,0,100,30,130,0,1335.822422,1335.822422,1335.822422,None,None,1,1,1.1065571,,,,,,,,,,,,,,,,,,,,,,10,9,2,2024-10-31_09h28.31.578,uWM_experiment,2022.2.3,59.99714413
,,,,,,,,,,,,,,,,,,,,2,0,2,0,13,0,13,0,,,,,,,,,,,,,,,,,,,,,,,,,,,,,,,,,,,,,,,,,,,,,,,,,,,,,,,,,,,,,,,,,,,,,,0.050189765,,,,,,,,,,,,,,,,,,,,,,,,,,,,right,1,10,30,40,1,1342.539385,1342.539385,1342.539385,None,None,1,1,1.469501,,,,,,,,,,,,,,,,,,,,,,10,9,2,2024-10-31_09h28.31.578,uWM_experiment,2022.2.3,59.99714413
,,,,,,,,,,,,,,,,,,,,2,0,2,0,14,0,14,0,,,,,,,,,,,,,,,,,,,,,,,,,,,,,,,,,,,,,,,,,,,,,,,,,,,,,,,,,,,,,,,,,,,,,,0.060189765,,,,,,,,,,,,,,,,,,,,,,,,,,,,right,0,160,-30,130,1,1352.039812,1352.039812,1352.039812,None,None,1,1,3.017201,,,,,,,,,,,,,,,,,,,,,,10,9,2,2024-10-31_09h28.31.578,uWM_experiment,2022.2.3,59.99714413
,,,,,,,,,,,,,,,,,,,,2,0,2,0,15,0,15,0,,,,,,,,,,,,,,,,,,,,,,,,,,,,,,,,,,,,,,,,,,,,,,,,,,,,,,,,,,,,,,,,,,,,,,0.070189765,,,,,,,,,,,,,,,,,,,,,,,,,,,,right,1,10,30,40,1,1361.740249,1361.740249,1361.740249,None,None,1,1,1.4846487,,,,,,,,,,,,,,,,,,,,,,10,9,2,2024-10-31_09h28.31.578,uWM_experiment,2022.2.3,59.99714413
,,,,,,,,,,,,,,,,,,,,2,0,2,0,16,0,16,0,,,,,,,,,,,,,,,,,,,,,,,,,,,,,,,,,,,,,,,,,,,,,,,,,,,,,,,,,,,,,,,,,,,,,,0.080189765,,,,,,,,,,,,,,,,,,,,,,,,,,,,right,1,160,30,190,1,1370.523982,1370.523982,1370.523982,None,None,2,0,2.5009377,,,,,,,,,,,,,,,,,,,,,,10,9,2,2024-10-31_09h28.31.578,uWM_experiment,2022.2.3,59.99714413
,,,,,,,,,,,,,,,,,,,,2,0,2,0,17,0,17,0,,,,,,,,,,,,,,,,,,,,,,,,,,,,,,,,,,,,,,,,,,,,,,,,,,,,,,,,,,,,,,,,,,,,,,0.070189765,,,,,,,,,,,,,,,,,,,,,,,,,,,,right,1,10,30,40,1,1378.707712,1378.707712,1378.707712,None,None,2,0,1.0772682,,,,,,,,,,,,,,,,,,,,,,10,9,2,2024-10-31_09h28.31.578,uWM_experiment,2022.2.3,59.99714413
,,,,,,,,,,,,,,,,,,,,2,0,2,0,18,0,18,0,,,,,,,,,,,,,,,,,,,,,,,,,,,,,,,,,,,,,,,,,,,,,,,,,,,,,,,,,,,,,,,,,,,,,,0.060189765,,,,,,,,,,,,,,,,,,,,,,,,,,,,right,1,130,30,160,1,1385.824664,1385.824664,1385.824664,None,None,2,0,1.1123705,,,,,,,,,,,,,,,,,,,,,,10,9,2,2024-10-31_09h28.31.578,uWM_experiment,2022.2.3,59.99714413
,,,,,,,,,,,,,,,,,,,,2,0,2,0,19,0,19,0,,,,,,,,,,,,,,,,,,,,,,,,,,,,,,,,,,,,,,,,,,,,,,,,,,,,,,,,,,,,,,,,,,,,,,0.050189765,,,,,,,,,,,,,,,,,,,,,,,,,,,,right,1,160,30,190,1,1392.608292,1392.608292,1392.608292,None,None,2,0,1.0886902,,,,,,,,,,,,,,,,,,,,,,10,9,2,2024-10-31_09h28.31.578,uWM_experiment,2022.2.3,59.99714413
,,,,,,,,,,,,,,,,,,,,2,0,2,0,20,0,20,0,,,,,,,,,,,,,,,,,,,,,,,,,,,,,,,,,,,,,,,,,,,,,,,,,,,,,,,,,,,,,,,,,,,,,,0,,,,,,,,,,,,,,,,,,,,,,,,,,,,left,0,70,30,100,0,1400.975341,1400.975341,1400.975341,None,None,1,1,1.2497043,,,,,,,,,,,,,,,,,,,,,,10,9,2,2024-10-31_09h28.31.578,uWM_experiment,2022.2.3,59.99714413
,,,,,,,,,,,,,,,,,,,,2,0,2,0,21,0,21,0,,,,,,,,,,,,,,,,,,,,,,,,,,,,,,,,,,,,,,,,,,,,,,,,,,,,,,,,,,,,,,,,,,,,,,0.040189765,,,,,,,,,,,,,,,,,,,,,,,,,,,,left,0,70,30,100,1,1408.092343,1408.092343,1408.092343,None,None,1,1,1.4127284,,,,,,,,,,,,,,,,,,,,,,10,9,2,2024-10-31_09h28.31.578,uWM_experiment,2022.2.3,59.99714413
,,,,,,,,,,,,,,,,,,,,2,0,2,0,22,0,22,0,,,,,,,,,,,,,,,,,,,,,,,,,,,,,,,,,,,,,,,,,,,,,,,,,,,,,,,,,,,,,,,,,,,,,,0,,,,,,,,,,,,,,,,,,,,,,,,,,,,left,1,160,-30,130,0,1415.742687,1415.742687,1415.742687,None,None,1,1,0.9382766,,,,,,,,,,,,,,,,,,,,,,10,9,2,2024-10-31_09h28.31.578,uWM_experiment,2022.2.3,59.99714413
,,,,,,,,,,,,,,,,,,,,2,0,2,0,23,0,23,0,,,,,,,,,,,,,,,,,,,,,,,,,,,,,,,,,,,,,,,,,,,,,,,,,,,,,,,,,,,,,,,,,,,,,,0.050189765,,,,,,,,,,,,,,,,,,,,,,,,,,,,right,1,160,30,190,1,1423.009685,1423.009685,1423.009685,None,None,1,1,1.1273388,,,,,,,,,,,,,,,,,,,,,,10,9,2,2024-10-31_09h28.31.578,uWM_experiment,2022.2.3,59.99714413
,,,,,,,,,,,,,,,,,,,,2,0,2,0,,,,,0,0,0,0,,,,,,,,,,,,,,,,,,,,,,,,,,,,,,,,,,,,,,,,,,,,,,,,,,,,,,,,,,,,,,,,,,,,,,,,,,,,,,,,,,,,,,,,,,,,,,,,,,,,,,,,,,,,1424.159704,1424.159704,space,2.5293546,space,None,,1426.709833,1426.709833,9.2352944,,,,,,,,,,,,10,9,2,2024-10-31_09h28.31.578,uWM_experiment,2022.2.3,59.99714413
,,,,,,,,,,,,,,,,,,,,2,0,2,0,,,,,1,0,1,0,,,,,,,,,,,,,,,,,,,,,,,,,,,,,,,,,,,,,,,,,,,,,,,,,,,,,,,,,,,,,,,,,,,,,,,,,,,,,,,,,,,,,,,,,,,,,,,,,,,,,,,,,,,,,,,,,,,,,,,,,,,,,,,,,10,9,2,2024-10-31_09h28.31.578,uWM_experiment,2022.2.3,59.99714413
,,,,,,,,,,,,,,,,,,,,2,0,2,0,,,,,2,0,2,0,,,,,,,,,,,,,,,,,,,,,,,,,,,,,,,,,,,,,,,,,,,,,,,,,,,,,,,,,,,,,,,,,,,,,,,,,,,,,,,,,,,,,,,,,,,,,,,,,,,,,,,,,,,,,,,,,,,,,,,,,,,,,,,,,10,9,2,2024-10-31_09h28.31.578,uWM_experiment,2022.2.3,59.99714413
,,,,,,,,,,,,,,,,,,,,3,0,3,0,0,0,0,0,,,,,,,,,,,,,,,,,,,,,,,,,,,,,,,,,,,,,,,,,,,,,,,,,,,,,,,,,,,,,,,,,,,,,,0.060189765,,,,,,,,,,,,,,,,,,,,1435.976924,1436.676927,1436.97693,1437.677008,1437.977028,1438.67703,1438.67703,1438.993717,right,1,160,30,190,1,1445.244012,1445.244012,1445.244012,None,None,2,0,1.0610599,,,,,,,None,,,,,,,,,,,,,,,10,9,2,2024-10-31_09h28.31.578,uWM_experiment,2022.2.3,59.99714413
,,,,,,,,,,,,,,,,,,,,3,0,3,0,1,0,1,0,,,,,,,,,,,,,,,,,,,,,,,,,,,,,,,,,,,,,,,,,,,,,,,,,,,,,,,,,,,,,,,,,,,,,,0,,,,,,,,,,,,,,,,,,,,,,,,,,,,left,1,10,-30,-20,0,1451.977642,1451.977642,1451.977642,None,None,2,0,1.0474454,,,,,,,,,,,,,,,,,,,,,,10,9,2,2024-10-31_09h28.31.578,uWM_experiment,2022.2.3,59.99714413
,,,,,,,,,,,,,,,,,,,,3,0,3,0,2,0,2,0,,,,,,,,,,,,,,,,,,,,,,,,,,,,,,,,,,,,,,,,,,,,,,,,,,,,,,,,,,,,,,,,,,,,,,0,,,,,,,,,,,,,,,,,,,,,,,,,,,,left,1,40,-30,10,0,1459.027965,1459.027965,1459.027965,None,None,1,1,1.5730795,,,,,,,,,,,,,,,,,,,,,,10,9,2,2024-10-31_09h28.31.578,uWM_experiment,2022.2.3,59.99714413
,,,,,,,,,,,,,,,,,,,,3,0,3,0,3,0,3,0,,,,,,,,,,,,,,,,,,,,,,,,,,,,,,,,,,,,,,,,,,,,,,,,,,,,,,,,,,,,,,,,,,,,,,0.050189765,,,,,,,,,,,,,,,,,,,,,,,,,,,,right,1,130,30,160,1,1467.194992,1467.194992,1467.194992,None,None,2,0,2.2620561,,,,,,,,,,,,,,,,,,,,,,10,9,2,2024-10-31_09h28.31.578,uWM_experiment,2022.2.3,59.99714413
,,,,,,,,,,,,,,,,,,,,3,0,3,0,4,0,4,0,,,,,,,,,,,,,,,,,,,,,,,,,,,,,,,,,,,,,,,,,,,,,,,,,,,,,,,,,,,,,,,,,,,,,,0.040189765,,,,,,,,,,,,,,,,,,,,,,,,,,,,left,0,10,30,40,1,1476.328739,1476.328739,1476.328739,None,None,2,0,2.0722484,,,,,,,,,,,,,,,,,,,,,,10,9,2,2024-10-31_09h28.31.578,uWM_experiment,2022.2.3,59.99714413
,,,,,,,,,,,,,,,,,,,,3,0,3,0,5,0,5,0,,,,,,,,,,,,,,,,,,,,,,,,,,,,,,,,,,,,,,,,,,,,,,,,,,,,,,,,,,,,,,,,,,,,,,0.030189765,,,,,,,,,,,,,,,,,,,,,,,,,,,,left,1,40,-30,10,1,1484.629101,1484.629101,1484.629101,None,None,2,0,1.4199131,,,,,,,,,,,,,,,,,,,,,,10,9,2,2024-10-31_09h28.31.578,uWM_experiment,2022.2.3,59.99714413
,,,,,,,,,,,,,,,,,,,,3,0,3,0,6,0,6,0,,,,,,,,,,,,,,,,,,,,,,,,,,,,,,,,,,,,,,,,,,,,,,,,,,,,,,,,,,,,,,,,,,,,,,0,,,,,,,,,,,,,,,,,,,,,,,,,,,,left,0,100,30,130,0,1492.72946,1492.72946,1492.72946,None,None,1,1,1.0235308,,,,,,,,,,,,,,,,,,,,,,10,9,2,2024-10-31_09h28.31.578,uWM_experiment,2022.2.3,59.99714413
,,,,,,,,,,,,,,,,,,,,3,0,3,0,7,0,7,0,,,,,,,,,,,,,,,,,,,,,,,,,,,,,,,,,,,,,,,,,,,,,,,,,,,,,,,,,,,,,,,,,,,,,,0,,,,,,,,,,,,,,,,,,,,,,,,,,,,right,0,100,-30,70,0,1500.596478,1500.596478,1500.596478,None,None,1,1,4.3007506,,,,,,,,,,,,,,,,,,,,,,10,9,2,2024-10-31_09h28.31.578,uWM_experiment,2022.2.3,59.99714413
,,,,,,,,,,,,,,,,,,,,3,0,3,0,8,0,8,0,,,,,,,,,,,,,,,,,,,,,,,,,,,,,,,,,,,,,,,,,,,,,,,,,,,,,,,,,,,,,,,,,,,,,,0.020189765,,,,,,,,,,,,,,,,,,,,,,,,,,,,right,1,130,30,160,1,1511.580344,1511.580344,1511.580344,None,None,1,1,1.3407306,,,,,,,,,,,,,,,,,,,,,,10,9,2,2024-10-31_09h28.31.578,uWM_experiment,2022.2.3,59.99714413
,,,,,,,,,,,,,,,,,,,,3,0,3,0,9,0,9,0,,,,,,,,,,,,,,,,,,,,,,,,,,,,,,,,,,,,,,,,,,,,,,,,,,,,,,,,,,,,,,,,,,,,,,0.030189765,,,,,,,,,,,,,,,,,,,,,,,,,,,,right,1,130,30,160,1,1519.330663,1519.330663,1519.330663,None,None,1,1,1.1664314,,,,,,,,,,,,,,,,,,,,,,10,9,2,2024-10-31_09h28.31.578,uWM_experiment,2022.2.3,59.99714413
,,,,,,,,,,,,,,,,,,,,3,0,3,0,10,0,10,0,,,,,,,,,,,,,,,,,,,,,,,,,,,,,,,,,,,,,,,,,,,,,,,,,,,,,,,,,,,,,,,,,,,,,,0,,,,,,,,,,,,,,,,,,,,,,,,,,,,left,1,100,-30,70,0,1529.114428,1529.114428,1529.114428,None,None,1,1,1.110659,,,,,,,,,,,,,,,,,,,,,,10,9,2,2024-10-31_09h28.31.578,uWM_experiment,2022.2.3,59.99714413
,,,,,,,,,,,,,,,,,,,,3,0,3,0,11,0,11,0,,,,,,,,,,,,,,,,,,,,,,,,,,,,,,,,,,,,,,,,,,,,,,,,,,,,,,,,,,,,,,,,,,,,,,0.040189765,,,,,,,,,,,,,,,,,,,,,,,,,,,,left,1,10,-30,-20,1,1536.414773,1536.414773,1536.414773,None,None,2,0,2.3303865,,,,,,,,,,,,,,,,,,,,,,10,9,2,2024-10-31_09h28.31.578,uWM_experiment,2022.2.3,59.99714413
,,,,,,,,,,,,,,,,,,,,3,0,3,0,12,0,12,0,,,,,,,,,,,,,,,,,,,,,,,,,,,,,,,,,,,,,,,,,,,,,,,,,,,,,,,,,,,,,,,,,,,,,,0.030189765,,,,,,,,,,,,,,,,,,,,,,,,,,,,left,0,100,30,130,1,1546.44856,1546.44856,1546.44856,None,None,1,1,1.6884647,,,,,,,,,,,,,,,,,,,,,,10,9,2,2024-10-31_09h28.31.578,uWM_experiment,2022.2.3,59.99714413
,,,,,,,,,,,,,,,,,,,,3,0,3,0,13,0,13,0,,,,,,,,,,,,,,,,,,,,,,,,,,,,,,,,,,,,,,,,,,,,,,,,,,,,,,,,,,,,,,,,,,,,,,0.040189765,,,,,,,,,,,,,,,,,,,,,,,,,,,,left,1,130,-30,100,1,1553.898878,1553.898878,1553.898878,None,None,2,0,1.5742286,,,,,,,,,,,,,,,,,,,,,,10,9,2,2024-10-31_09h28.31.578,uWM_experiment,2022.2.3,59.99714413
,,,,,,,,,,,,,,,,,,,,3,0,3,0,14,0,14,0,,,,,,,,,,,,,,,,,,,,,,,,,,,,,,,,,,,,,,,,,,,,,,,,,,,,,,,,,,,,,,,,,,,,,,0,,,,,,,,,,,,,,,,,,,,,,,,,,,,left,1,160,-30,130,0,1561.882568,1561.882568,1561.882568,None,None,1,1,1.1105245,,,,,,,,,,,,,,,,,,,,,,10,9,2,2024-10-31_09h28.31.578,uWM_experiment,2022.2.3,59.99714413
,,,,,,,,,,,,,,,,,,,,3,0,3,0,15,0,15,0,,,,,,,,,,,,,,,,,,,,,,,,,,,,,,,,,,,,,,,,,,,,,,,,,,,,,,,,,,,,,,,,,,,,,,0.030189765,,,,,,,,,,,,,,,,,,,,,,,,,,,,left,1,10,-30,-20,1,1568.999569,1568.999569,1568.999569,None,None,1,1,1.2576262,,,,,,,,,,,,,,,,,,,,,,10,9,2,2024-10-31_09h28.31.578,uWM_experiment,2022.2.3,59.99714413
,,,,,,,,,,,,,,,,,,,,3,0,3,0,16,0,16,0,,,,,,,,,,,,,,,,,,,,,,,,,,,,,,,,,,,,,,,,,,,,,,,,,,,,,,,,,,,,,,,,,,,,,,0,,,,,,,,,,,,,,,,,,,,,,,,,,,,left,0,70,30,100,0,1576.366568,1576.366568,1576.366568,None,None,1,1,1.3544471,,,,,,,,,,,,,,,,,,,,,,10,9,2,2024-10-31_09h28.31.578,uWM_experiment,2022.2.3,59.99714413
,,,,,,,,,,,,,,,,,,,,3,0,3,0,17,0,17,0,,,,,,,,,,,,,,,,,,,,,,,,,,,,,,,,,,,,,,,,,,,,,,,,,,,,,,,,,,,,,,,,,,,,,,0.040189765,,,,,,,,,,,,,,,,,,,,,,,,,,,,left,1,70,-30,40,1,1583.866903,1583.866903,1583.866903,None,None,1,1,0.8462066,,,,,,,,,,,,,,,,,,,,,,10,9,2,2024-10-31_09h28.31.578,uWM_experiment,2022.2.3,59.99714413
,,,,,,,,,,,,,,,,,,,,3,0,3,0,18,0,18,0,,,,,,,,,,,,,,,,,,,,,,,,,,,,,,,,,,,,,,,,,,,,,,,,,,,,,,,,,,,,,,,,,,,,,,0,,,,,,,,,,,,,,,,,,,,,,,,,,,,left,0,130,30,160,0,1590.933925,1590.933925,1590.933925,None,None,1,1,1.1711408,,,,,,,,,,,,,,,,,,,,,,10,9,2,2024-10-31_09h28.31.578,uWM_experiment,2022.2.3,59.99714413
,,,,,,,,,,,,,,,,,,,,3,0,3,0,19,0,19,0,,,,,,,,,,,,,,,,,,,,,,,,,,,,,,,,,,,,,,,,,,,,,,,,,,,,,,,,,,,,,,,,,,,,,,0.050189765,,,,,,,,,,,,,,,,,,,,,,,,,,,,left,0,70,30,100,1,1598.817556,1598.817556,1598.817556,None,None,1,1,3.1034758,,,,,,,,,,,,,,,,,,,,,,10,9,2,2024-10-31_09h28.31.578,uWM_experiment,2022.2.3,59.99714413
,,,,,,,,,,,,,,,,,,,,3,0,3,0,20,0,20,0,,,,,,,,,,,,,,,,,,,,,,,,,,,,,,,,,,,,,,,,,,,,,,,,,,,,,,,,,,,,,,,,,,,,,,0.060189765,,,,,,,,,,,,,,,,,,,,,,,,,,,,right,0,100,-30,70,1,1607.817963,1607.817963,1607.817963,None,None,1,1,1.1831746,,,,,,,,,,,,,,,,,,,,,,10,9,2,2024-10-31_09h28.31.578,uWM_experiment,2022.2.3,59.99714413
,,,,,,,,,,,,,,,,,,,,3,0,3,0,21,0,21,0,,,,,,,,,,,,,,,,,,,,,,,,,,,,,,,,,,,,,,,,,,,,,,,,,,,,,,,,,,,,,,,,,,,,,,0.070189765,,,,,,,,,,,,,,,,,,,,,,,,,,,,right,1,130,30,160,1,1615.318283,1615.318283,1615.318283,None,None,2,0,1.8268143,,,,,,,,,,,,,,,,,,,,,,10,9,2,2024-10-31_09h28.31.578,uWM_experiment,2022.2.3,59.99714413
,,,,,,,,,,,,,,,,,,,,3,0,3,0,22,0,22,0,,,,,,,,,,,,,,,,,,,,,,,,,,,,,,,,,,,,,,,,,,,,,,,,,,,,,,,,,,,,,,,,,,,,,,0.060189765,,,,,,,,,,,,,,,,,,,,,,,,,,,,left,1,10,-30,-20,1,1623.168646,1623.168646,1623.168646,None,None,2,0,1.6004804,,,,,,,,,,,,,,,,,,,,,,10,9,2,2024-10-31_09h28.31.578,uWM_experiment,2022.2.3,59.99714413
,,,,,,,,,,,,,,,,,,,,3,0,3,0,23,0,23,0,,,,,,,,,,,,,,,,,,,,,,,,,,,,,,,,,,,,,,,,,,,,,,,,,,,,,,,,,,,,,,,,,,,,,,0.1,,,,,,,,,,,,,,,,,,,,,,,,,,,,left,1,160,-30,130,2,1632.002424,1632.002424,1632.002424,None,None,4,0,1.3107421,,,,,,,,,,,,,,,,,,,,,,10,9,2,2024-10-31_09h28.31.578,uWM_experiment,2022.2.3,59.99714413
,,,,,,,,,,,,,,,,,,,,3,0,3,0,,,,,0,0,0,0,,,,,,,,,,,,,,,,,,,,,,,,,,,,,,,,,,,,,,,,,,,,,,,,,,,,,,,,,,,,,,,,,,,,,,,,,,,,,,,,,,,,,,,,,,,,,,,,,,,,,,,,,,,,1633.335756,1633.335756,space,6.7774685,None,None,,,,,,,,,,,,,,,,10,9,2,2024-10-31_09h28.31.578,uWM_experiment,2022.2.3,59.99714413
,,,,,,,,,,,,,,,,,,,,3,0,3,0,,,,,1,0,1,0,,,,,,,,,,,,,,,,,,,,,,,,,,,,,,,,,,,,,,,,,,,,,,,,,,,,,,,,,,,,,,,,,,,,,,,,,,,,,,,,,,,,,,,,,,,,,,,,,,,,,,,,,,,,,,,,,,,,,,,,,,,,,,,,,10,9,2,2024-10-31_09h28.31.578,uWM_experiment,2022.2.3,59.99714413
,,,,,,,,,,,,,,,,,,,,3,0,3,0,,,,,2,0,2,0,,,,,,,,,,,,,,,,,,,,,,,,,,,,,,,,,,,,,,,,,,,,,,,,,,,,,,,,,,,,,,,,,,,,,,,,,,,,,,,,,,,,,,,,,,,,,,,,,,,,,,,,,,,,,,,,,,,,,,,,,,,,,,,,,10,9,2,2024-10-31_09h28.31.578,uWM_experiment,2022.2.3,59.99714413
,,,,,,,,,,,,,,,,,,,,4,0,4,0,0,0,0,0,,,,,,,,,,,,,,,,,,,,,,,,,,,,,,,,,,,,,,,,,,,,,,,,,,,,,,,,,,,,,,,,,,,,,,0.050189765,,,,,,,,,,,,,,,,,,,,1640.136098,1640.836106,1641.136114,1641.836164,1642.136169,1642.836195,1642.836195,1643.152878,right,0,100,-30,70,1,1648.436469,1648.436469,1648.436469,None,None,1,1,2.0846053,,,,,,,None,,,,,,,,,,,,,,,10,9,2,2024-10-31_09h28.31.578,uWM_experiment,2022.2.3,59.99714413
,,,,,,,,,,,,,,,,,,,,4,0,4,0,1,0,1,0,,,,,,,,,,,,,,,,,,,,,,,,,,,,,,,,,,,,,,,,,,,,,,,,,,,,,,,,,,,,,,,,,,,,,,0.060189765,,,,,,,,,,,,,,,,,,,,,,,,,,,,right,1,10,30,40,1,1656.486831,1656.486831,1656.486831,None,None,2,0,1.9702248,,,,,,,,,,,,,,,,,,,,,,10,9,2,2024-10-31_09h28.31.578,uWM_experiment,2022.2.3,59.99714413
,,,,,,,,,,,,,,,,,,,,4,0,4,0,2,0,2,0,,,,,,,,,,,,,,,,,,,,,,,,,,,,,,,,,,,,,,,,,,,,,,,,,,,,,,,,,,,,,,,,,,,,,,0.050189765,,,,,,,,,,,,,,,,,,,,,,,,,,,,left,1,160,-30,130,1,1664.353887,1664.353887,1664.353887,None,None,2,0,1.0633205,,,,,,,,,,,,,,,,,,,,,,10,9,2,2024-10-31_09h28.31.578,uWM_experiment,2022.2.3,59.99714413
,,,,,,,,,,,,,,,,,,,,4,0,4,0,3,0,3,0,,,,,,,,,,,,,,,,,,,,,,,,,,,,,,,,,,,,,,,,,,,,,,,,,,,,,,,,,,,,,,,,,,,,,,0.040189765,,,,,,,,,,,,,,,,,,,,,,,,,,,,left,1,70,-30,40,1,1671.35415,1671.35415,1671.35415,None,None,2,0,0.750923,,,,,,,,,,,,,,,,,,,,,,10,9,2,2024-10-31_09h28.31.578,uWM_experiment,2022.2.3,59.99714413
,,,,,,,,,,,,,,,,,,,,4,0,4,0,4,0,4,0,,,,,,,,,,,,,,,,,,,,,,,,,,,,,,,,,,,,,,,,,,,,,,,,,,,,,,,,,,,,,,,,,,,,,,0,,,,,,,,,,,,,,,,,,,,,,,,,,,,left,0,160,30,190,0,1679.237865,1679.237865,1679.237865,None,None,1,1,1.0592995,,,,,,,,,,,,,,,,,,,,,,10,9,2,2024-10-31_09h28.31.578,uWM_experiment,2022.2.3,59.99714413
,,,,,,,,,,,,,,,,,,,,4,0,4,0,5,0,5,0,,,,,,,,,,,,,,,,,,,,,,,,,,,,,,,,,,,,,,,,,,,,,,,,,,,,,,,,,,,,,,,,,,,,,,0.030189765,,,,,,,,,,,,,,,,,,,,,,,,,,,,left,0,160,30,190,1,1686.421512,1686.421512,1686.421512,None,None,1,1,2.3317126,,,,,,,,,,,,,,,,,,,,,,10,9,2,2024-10-31_09h28.31.578,uWM_experiment,2022.2.3,59.99714413
,,,,,,,,,,,,,,,,,,,,4,0,4,0,6,0,6,0,,,,,,,,,,,,,,,,,,,,,,,,,,,,,,,,,,,,,,,,,,,,,,,,,,,,,,,,,,,,,,,,,,,,,,0.040189765,,,,,,,,,,,,,,,,,,,,,,,,,,,,right,0,100,-30,70,1,1694.621882,1694.621882,1694.621882,None,None,1,1,0.7232994,,,,,,,,,,,,,,,,,,,,,,10,9,2,2024-10-31_09h28.31.578,uWM_experiment,2022.2.3,59.99714413
,,,,,,,,,,,,,,,,,,,,4,0,4,0,7,0,7,0,,,,,,,,,,,,,,,,,,,,,,,,,,,,,,,,,,,,,,,,,,,,,,,,,,,,,,,,,,,,,,,,,,,,,,0.050189765,,,,,,,,,,,,,,,,,,,,,,,,,,,,right,1,130,30,160,1,1701.222208,1701.222208,1701.222208,None,None,2,0,1.1629528,,,,,,,,,,,,,,,,,,,,,,10,9,2,2024-10-31_09h28.31.578,uWM_experiment,2022.2.3,59.99714413
,,,,,,,,,,,,,,,,,,,,4,0,4,0,8,0,8,0,,,,,,,,,,,,,,,,,,,,,,,,,,,,,,,,,,,,,,,,,,,,,,,,,,,,,,,,,,,,,,,,,,,,,,0.040189765,,,,,,,,,,,,,,,,,,,,,,,,,,,,left,0,70,30,100,1,1708.372492,1708.372492,1708.372492,None,None,1,1,1.0126615,,,,,,,,,,,,,,,,,,,,,,10,9,2,2024-10-31_09h28.31.578,uWM_experiment,2022.2.3,59.99714413
,,,,,,,,,,,,,,,,,,,,4,0,4,0,9,0,9,0,,,,,,,,,,,,,,,,,,,,,,,,,,,,,,,,,,,,,,,,,,,,,,,,,,,,,,,,,,,,,,,,,,,,,,0.050189765,,,,,,,,,,,,,,,,,,,,,,,,,,,,left,1,70,-30,40,1,1715.356145,1715.356145,1715.356145,None,None,2,0,0.9331114,,,,,,,,,,,,,,,,,,,,,,10,9,2,2024-10-31_09h28.31.578,uWM_experiment,2022.2.3,59.99714413
,,,,,,,,,,,,,,,,,,,,4,0,4,0,10,0,10,0,,,,,,,,,,,,,,,,,,,,,,,,,,,,,,,,,,,,,,,,,,,,,,,,,,,,,,,,,,,,,,,,,,,,,,0.040189765,,,,,,,,,,,,,,,,,,,,,,,,,,,,right,1,40,30,70,1,1722.189779,1722.189779,1722.189779,None,None,3,0,1.3713727,,,,,,,,,,,,,,,,,,,,,,10,9,2,2024-10-31_09h28.31.578,uWM_experiment,2022.2.3,59.99714413
,,,,,,,,,,,,,,,,,,,,4,0,4,0,11,0,11,0,,,,,,,,,,,,,,,,,,,,,,,,,,,,,,,,,,,,,,,,,,,,,,,,,,,,,,,,,,,,,,,,,,,,,,0,,,,,,,,,,,,,,,,,,,,,,,,,,,,right,0,10,-30,-20,0,1729.640103,1729.640103,1729.640103,None,None,1,1,1.4971051,,,,,,,,,,,,,,,,,,,,,,10,9,2,2024-10-31_09h28.31.578,uWM_experiment,2022.2.3,59.99714413
,,,,,,,,,,,,,,,,,,,,4,0,4,0,12,0,12,0,,,,,,,,,,,,,,,,,,,,,,,,,,,,,,,,,,,,,,,,,,,,,,,,,,,,,,,,,,,,,,,,,,,,,,0.030189765,,,,,,,,,,,,,,,,,,,,,,,,,,,,right,1,40,30,70,1,1736.807116,1736.807116,1736.807116,None,None,2,0,2.8500586,,,,,,,,,,,,,,,,,,,,,,10,9,2,2024-10-31_09h28.31.578,uWM_experiment,2022.2.3,59.99714413
,,,,,,,,,,,,,,,,,,,,4,0,4,0,13,0,13,0,,,,,,,,,,,,,,,,,,,,,,,,,,,,,,,,,,,,,,,,,,,,,,,,,,,,,,,,,,,,,,,,,,,,,,0.020189765,,,,,,,,,,,,,,,,,,,,,,,,,,,,left,0,160,30,190,1,1745.824202,1745.824202,1745.824202,None,None,1,1,3.0969202,,,,,,,,,,,,,,,,,,,,,,10,9,2,2024-10-31_09h28.31.578,uWM_experiment,2022.2.3,59.99714413
,,,,,,,,,,,,,,,,,,,,4,0,4,0,14,0,14,0,,,,,,,,,,,,,,,,,,,,,,,,,,,,,,,,,,,,,,,,,,,,,,,,,,,,,,,,,,,,,,,,,,,,,,0.030189765,,,,,,,,,,,,,,,,,,,,,,,,,,,,left,1,10,-30,-20,1,1754.874564,1754.874564,1754.874564,None,None,2,0,2.4626169,,,,,,,,,,,,,,,,,,,,,,10,9,2,2024-10-31_09h28.31.578,uWM_experiment,2022.2.3,59.99714413
,,,,,,,,,,,,,,,,,,,,4,0,4,0,15,0,15,0,,,,,,,,,,,,,,,,,,,,,,,,,,,,,,,,,,,,,,,,,,,,,,,,,,,,,,,,,,,,,,,,,,,,,,0.020189765,,,,,,,,,,,,,,,,,,,,,,,,,,,,right,1,160,30,190,1,1763.90832,1763.90832,1763.90832,None,None,1,1,1.2208398,,,,,,,,,,,,,,,,,,,,,,10,9,2,2024-10-31_09h28.31.578,uWM_experiment,2022.2.3,59.99714413
,,,,,,,,,,,,,,,,,,,,4,0,4,0,16,0,16,0,,,,,,,,,,,,,,,,,,,,,,,,,,,,,,,,,,,,,,,,,,,,,,,,,,,,,,,,,,,,,,,,,,,,,,0.030189765,,,,,,,,,,,,,,,,,,,,,,,,,,,,right,1,160,30,190,1,1771.191958,1771.191958,1771.191958,None,None,2,0,2.713236,,,,,,,,,,,,,,,,,,,,,,10,9,2,2024-10-31_09h28.31.578,uWM_experiment,2022.2.3,59.99714413
,,,,,,,,,,,,,,,,,,,,4,0,4,0,17,0,17,0,,,,,,,,,,,,,,,,,,,,,,,,,,,,,,,,,,,,,,,,,,,,,,,,,,,,,,,,,,,,,,,,,,,,,,0,,,,,,,,,,,,,,,,,,,,,,,,,,,,left,1,40,-30,10,0,1779.675701,1779.675701,1779.675701,None,None,1,1,0.9814874,,,,,,,,,,,,,,,,,,,,,,10,9,2,2024-10-31_09h28.31.578,uWM_experiment,2022.2.3,59.99714413
,,,,,,,,,,,,,,,,,,,,4,0,4,0,18,0,18,0,,,,,,,,,,,,,,,,,,,,,,,,,,,,,,,,,,,,,,,,,,,,,,,,,,,,,,,,,,,,,,,,,,,,,,0.020189765,,,,,,,,,,,,,,,,,,,,,,,,,,,,left,0,130,30,160,1,1786.826014,1786.826014,1786.826014,None,None,1,1,1.1431808,,,,,,,,,,,,,,,,,,,,,,10,9,2,2024-10-31_09h28.31.578,uWM_experiment,2022.2.3,59.99714413
,,,,,,,,,,,,,,,,,,,,4,0,4,0,19,0,19,0,,,,,,,,,,,,,,,,,,,,,,,,,,,,,,,,,,,,,,,,,,,,,,,,,,,,,,,,,,,,,,,,,,,,,,0.030189765,,,,,,,,,,,,,,,,,,,,,,,,,,,,left,0,160,30,190,1,1793.876329,1793.876329,1793.876329,None,None,1,1,5.756846,,,,,,,,,,,,,,,,,,,,,,10,9,2,2024-10-31_09h28.31.578,uWM_experiment,2022.2.3,59.99714413
,,,,,,,,,,,,,,,,,,,,4,0,4,0,20,0,20,0,,,,,,,,,,,,,,,,,,,,,,,,,,,,,,,,,,,,,,,,,,,,,,,,,,,,,,,,,,,,,,,,,,,,,,0.040189765,,,,,,,,,,,,,,,,,,,,,,,,,,,,left,1,70,-30,40,1,1805.943528,1805.943528,1805.943528,None,None,1,1,2.3056481,,,,,,,,,,,,,,,,,,,,,,10,9,2,2024-10-31_09h28.31.578,uWM_experiment,2022.2.3,59.99714413
,,,,,,,,,,,,,,,,,,,,4,0,4,0,21,0,21,0,,,,,,,,,,,,,,,,,,,,,,,,,,,,,,,,,,,,,,,,,,,,,,,,,,,,,,,,,,,,,,,,,,,,,,0.050189765,,,,,,,,,,,,,,,,,,,,,,,,,,,,right,0,100,-30,70,1,1814.743934,1814.743934,1814.743934,None,None,2,0,2.6093445,,,,,,,,,,,,,,,,,,,,,,10,9,2,2024-10-31_09h28.31.578,uWM_experiment,2022.2.3,59.99714413
,,,,,,,,,,,,,,,,,,,,4,0,4,0,22,0,22,0,,,,,,,,,,,,,,,,,,,,,,,,,,,,,,,,,,,,,,,,,,,,,,,,,,,,,,,,,,,,,,,,,,,,,,0.040189765,,,,,,,,,,,,,,,,,,,,,,,,,,,,right,1,100,30,130,1,1823.577628,1823.577628,1823.577628,None,None,2,0,1.2396236,,,,,,,,,,,,,,,,,,,,,,10,9,2,2024-10-31_09h28.31.578,uWM_experiment,2022.2.3,59.99714413
,,,,,,,,,,,,,,,,,,,,4,0,4,0,23,0,23,0,,,,,,,,,,,,,,,,,,,,,,,,,,,,,,,,,,,,,,,,,,,,,,,,,,,,,,,,,,,,,,,,,,,,,,0.030189765,,,,,,,,,,,,,,,,,,,,,,,,,,,,right,1,100,30,130,1,1832.044709,1832.044709,1832.044709,None,None,1,1,1.3965431,,,,,,,,,,,,,,,,,,,,,,10,9,2,2024-10-31_09h28.31.578,uWM_experiment,2022.2.3,59.99714413
,,,,,,,,,,,,,,,,,,,,4,0,4,0,,,,,0,0,0,0,,,,,,,,,,,,,,,,,,,,,,,,,,,,,,,,,,,,,,,,,,,,,,,,,,,,,,,,,,,,,,,,,,,,,,,,,,,,,,,,,,,,,,,,,,,,,,,,,,,,,,,,,,,,1833.461434,1833.461434,space,3.9957862,None,None,,,,,,,,,,,,,,,,10,9,2,2024-10-31_09h28.31.578,uWM_experiment,2022.2.3,59.99714413
,,,,,,,,,,,,,,,,,,,,4,0,4,0,,,,,1,0,1,0,,,,,,,,,,,,,,,,,,,,,,,,,,,,,,,,,,,,,,,,,,,,,,,,,,,,,,,,,,,,,,,,,,,,,,,,,,,,,,,,,,,,,,,,,,,,,,,,,,,,,,,,,,,,,,,,,,,,,,,,,,,,,,,,,10,9,2,2024-10-31_09h28.31.578,uWM_experiment,2022.2.3,59.99714413
,,,,,,,,,,,,,,,,,,,,4,0,4,0,,,,,2,0,2,0,,,,,,,,,,,,,,,,,,,,,,,,,,,,,,,,,,,,,,,,,,,,,,,,,,,,,,,,,,,,,,,,,,,,,,,,,,,,,,,,,,,,,,,,,,,,,,,,,,,,,,,,,,,,,,,,,,,,,,,,,,,,,,,,,10,9,2,2024-10-31_09h28.31.578,uWM_experiment,2022.2.3,59.99714413
,,,,,,,,,,,,,,,,,,,,5,0,5,0,0,0,0,0,,,,,,,,,,,,,,,,,,,,,,,,,,,,,,,,,,,,,,,,,,,,,,,,,,,,,,,,,,,,,,,,,,,,,,0.1,,,,,,,,,,,,,,,,,,,,1837.47827,1838.178297,1838.478308,1839.178339,1839.478352,1840.178407,1840.178407,1840.495077,left,1,10,-30,-20,2,1845.69533,1845.69533,1845.69533,None,None,4,0,2.1139922,,,,,,,None,,,,,,,,,,,,,,,10,9,2,2024-10-31_09h28.31.578,uWM_experiment,2022.2.3,59.99714413
,,,,,,,,,,,,,,,,,,,,5,0,5,0,1,0,1,0,,,,,,,,,,,,,,,,,,,,,,,,,,,,,,,,,,,,,,,,,,,,,,,,,,,,,,,,,,,,,,,,,,,,,,0.040189765,,,,,,,,,,,,,,,,,,,,,,,,,,,,right,1,100,30,130,1,1854.962401,1854.962401,1854.962401,None,None,2,0,2.2629229,,,,,,,,,,,,,,,,,,,,,,10,9,2,2024-10-31_09h28.31.578,uWM_experiment,2022.2.3,59.99714413
,,,,,,,,,,,,,,,,,,,,5,0,5,0,2,0,2,0,,,,,,,,,,,,,,,,,,,,,,,,,,,,,,,,,,,,,,,,,,,,,,,,,,,,,,,,,,,,,,,,,,,,,,0.030189765,,,,,,,,,,,,,,,,,,,,,,,,,,,,right,1,10,30,40,1,1863.646146,1863.646146,1863.646146,None,None,1,1,0.9390302,,,,,,,,,,,,,,,,,,,,,,10,9,2,2024-10-31_09h28.31.578,uWM_experiment,2022.2.3,59.99714413
,,,,,,,,,,,,,,,,,,,,5,0,5,0,3,0,3,0,,,,,,,,,,,,,,,,,,,,,,,,,,,,,,,,,,,,,,,,,,,,,,,,,,,,,,,,,,,,,,,,,,,,,,0.040189765,,,,,,,,,,,,,,,,,,,,,,,,,,,,left,1,40,-30,10,1,1870.063073,1870.063073,1870.063073,None,None,2,0,1.1061593,,,,,,,,,,,,,,,,,,,,,,10,9,2,2024-10-31_09h28.31.578,uWM_experiment,2022.2.3,59.99714413
,,,,,,,,,,,,,,,,,,,,5,0,5,0,4,0,4,0,,,,,,,,,,,,,,,,,,,,,,,,,,,,,,,,,,,,,,,,,,,,,,,,,,,,,,,,,,,,,,,,,,,,,,0.030189765,,,,,,,,,,,,,,,,,,,,,,,,,,,,left,0,10,30,40,1,1877.530073,1877.530073,1877.530073,None,None,1,1,2.1831957,,,,,,,,,,,,,,,,,,,,,,10,9,2,2024-10-31_09h28.31.578,uWM_experiment,2022.2.3,59.99714413
,,,,,,,,,,,,,,,,,,,,5,0,5,0,5,0,5,0,,,,,,,,,,,,,,,,,,,,,,,,,,,,,,,,,,,,,,,,,,,,,,,,,,,,,,,,,,,,,,,,,,,,,,0.1,,,,,,,,,,,,,,,,,,,,,,,,,,,,left,1,70,-30,40,2,1885.913797,1885.913797,1885.913797,None,None,4,0,1.87152,,,,,,,,,,,,,,,,,,,,,,10,9,2,2024-10-31_09h28.31.578,uWM_experiment,2022.2.3,59.99714413
,,,,,,,,,,,,,,,,,,,,5,0,5,0,6,0,6,0,,,,,,,,,,,,,,,,,,,,,,,,,,,,,,,,,,,,,,,,,,,,,,,,,,,,,,,,,,,,,,,,,,,,,,0.040189765,,,,,,,,,,,,,,,,,,,,,,,,,,,,left,0,70,30,100,1,1895.064194,1895.064194,1895.064194,None,None,1,1,1.1050517,,,,,,,,,,,,,,,,,,,,,,10,9,2,2024-10-31_09h28.31.578,uWM_experiment,2022.2.3,59.99714413
,,,,,,,,,,,,,,,,,,,,5,0,5,0,7,0,7,0,,,,,,,,,,,,,,,,,,,,,,,,,,,,,,,,,,,,,,,,,,,,,,,,,,,,,,,,,,,,,,,,,,,,,,0.050189765,,,,,,,,,,,,,,,,,,,,,,,,,,,,left,1,130,-30,100,1,1902.414513,1902.414513,1902.414513,None,None,2,0,1.4187327,,,,,,,,,,,,,,,,,,,,,,10,9,2,2024-10-31_09h28.31.578,uWM_experiment,2022.2.3,59.99714413
,,,,,,,,,,,,,,,,,,,,5,0,5,0,8,0,8,0,,,,,,,,,,,,,,,,,,,,,,,,,,,,,,,,,,,,,,,,,,,,,,,,,,,,,,,,,,,,,,,,,,,,,,0,,,,,,,,,,,,,,,,,,,,,,,,,,,,right,0,70,-30,40,0,1910.098191,1910.098191,1910.098191,None,None,1,1,1.5831614,,,,,,,,,,,,,,,,,,,,,,10,9,2,2024-10-31_09h28.31.578,uWM_experiment,2022.2.3,59.99714413
,,,,,,,,,,,,,,,,,,,,5,0,5,0,9,0,9,0,,,,,,,,,,,,,,,,,,,,,,,,,,,,,,,,,,,,,,,,,,,,,,,,,,,,,,,,,,,,,,,,,,,,,,0.1,,,,,,,,,,,,,,,,,,,,,,,,,,,,right,0,100,-30,70,2,1918.081887,1918.081887,1918.081887,None,None,4,0,1.0634228,,,,,,,,,,,,,,,,,,,,,,10,9,2,2024-10-31_09h28.31.578,uWM_experiment,2022.2.3,59.99714413
,,,,,,,,,,,,,,,,,,,,5,0,5,0,10,0,10,0,,,,,,,,,,,,,,,,,,,,,,,,,,,,,,,,,,,,,,,,,,,,,,,,,,,,,,,,,,,,,,,,,,,,,,0.040189765,,,,,,,,,,,,,,,,,,,,,,,,,,,,right,1,40,30,70,1,1925.115511,1925.115511,1925.115511,None,None,2,0,1.0938592,,,,,,,,,,,,,,,,,,,,,,10,9,2,2024-10-31_09h28.31.578,uWM_experiment,2022.2.3,59.99714413
,,,,,,,,,,,,,,,,,,,,5,0,5,0,11,0,11,0,,,,,,,,,,,,,,,,,,,,,,,,,,,,,,,,,,,,,,,,,,,,,,,,,,,,,,,,,,,,,,,,,,,,,,0.1,,,,,,,,,,,,,,,,,,,,,,,,,,,,left,1,130,-30,100,2,1933.799301,1933.799301,1933.799301,None,None,4,0,0.8260152,,,,,,,,,,,,,,,,,,,,,,10,9,2,2024-10-31_09h28.31.578,uWM_experiment,2022.2.3,59.99714413
,,,,,,,,,,,,,,,,,,,,5,0,5,0,12,0,12,0,,,,,,,,,,,,,,,,,,,,,,,,,,,,,,,,,,,,,,,,,,,,,,,,,,,,,,,,,,,,,,,,,,,,,,0.030189765,,,,,,,,,,,,,,,,,,,,,,,,,,,,left,1,130,-30,100,1,1940.682904,1940.682904,1940.682904,None,None,1,1,1.0223099,,,,,,,,,,,,,,,,,,,,,,10,9,2,2024-10-31_09h28.31.578,uWM_experiment,2022.2.3,59.99714413
,,,,,,,,,,,,,,,,,,,,5,0,5,0,13,0,13,0,,,,,,,,,,,,,,,,,,,,,,,,,,,,,,,,,,,,,,,,,,,,,,,,,,,,,,,,,,,,,,,,,,,,,,0.040189765,,,,,,,,,,,,,,,,,,,,,,,,,,,,left,1,10,-30,-20,1,1947.716564,1947.716564,1947.716564,None,None,2,0,1.5328098,,,,,,,,,,,,,,,,,,,,,,10,9,2,2024-10-31_09h28.31.578,uWM_experiment,2022.2.3,59.99714413
,,,,,,,,,,,,,,,,,,,,5,0,5,0,14,0,14,0,,,,,,,,,,,,,,,,,,,,,,,,,,,,,,,,,,,,,,,,,,,,,,,,,,,,,,,,,,,,,,,,,,,,,,0,,,,,,,,,,,,,,,,,,,,,,,,,,,,left,0,70,30,100,0,1954.716881,1954.716881,1954.716881,None,None,1,1,0.9324072,,,,,,,,,,,,,,,,,,,,,,10,9,2,2024-10-31_09h28.31.578,uWM_experiment,2022.2.3,59.99714413
,,,,,,,,,,,,,,,,,,,,5,0,5,0,15,0,15,0,,,,,,,,,,,,,,,,,,,,,,,,,,,,,,,,,,,,,,,,,,,,,,,,,,,,,,,,,,,,,,,,,,,,,,0,,,,,,,,,,,,,,,,,,,,,,,,,,,,right,1,10,30,40,0,1961.567185,1961.567185,1961.567185,None,None,1,1,1.0180723,,,,,,,,,,,,,,,,,,,,,,10,9,2,2024-10-31_09h28.31.578,uWM_experiment,2022.2.3,59.99714413
,,,,,,,,,,,,,,,,,,,,5,0,5,0,16,0,16,0,,,,,,,,,,,,,,,,,,,,,,,,,,,,,,,,,,,,,,,,,,,,,,,,,,,,,,,,,,,,,,,,,,,,,,0,,,,,,,,,,,,,,,,,,,,,,,,,,,,left,0,160,30,190,0,1969.367511,1969.367511,1969.367511,None,None,1,1,0.4898328,,,,,,,,,,,,,,,,,,,,,,10,9,2,2024-10-31_09h28.31.578,uWM_experiment,2022.2.3,59.99714413
,,,,,,,,,,,,,,,,,,,,5,0,5,0,17,0,17,0,,,,,,,,,,,,,,,,,,,,,,,,,,,,,,,,,,,,,,,,,,,,,,,,,,,,,,,,,,,,,,,,,,,,,,0.030189765,,,,,,,,,,,,,,,,,,,,,,,,,,,,left,1,70,-30,40,1,1975.75115,1975.75115,1975.75115,None,None,2,0,0.4182638,,,,,,,,,,,,,,,,,,,,,,10,9,2,2024-10-31_09h28.31.578,uWM_experiment,2022.2.3,59.99714413
,,,,,,,,,,,,,,,,,,,,5,0,5,0,18,0,18,0,,,,,,,,,,,,,,,,,,,,,,,,,,,,,,,,,,,,,,,,,,,,,,,,,,,,,,,,,,,,,,,,,,,,,,0.1,,,,,,,,,,,,,,,,,,,,,,,,,,,,left,1,70,-30,40,2,1983.851511,1983.851511,1983.851511,None,None,4,0,1.3017451,,,,,,,,,,,,,,,,,,,,,,10,9,2,2024-10-31_09h28.31.578,uWM_experiment,2022.2.3,59.99714413
,,,,,,,,,,,,,,,,,,,,5,0,5,0,19,0,19,0,,,,,,,,,,,,,,,,,,,,,,,,,,,,,,,,,,,,,,,,,,,,,,,,,,,,,,,,,,,,,,,,,,,,,,0.020189765,,,,,,,,,,,,,,,,,,,,,,,,,,,,right,1,130,30,160,1,1991.935192,1991.935192,1991.935192,None,None,1,1,0.6261166,,,,,,,,,,,,,,,,,,,,,,10,9,2,2024-10-31_09h28.31.578,uWM_experiment,2022.2.3,59.99714413
,,,,,,,,,,,,,,,,,,,,5,0,5,0,20,0,20,0,,,,,,,,,,,,,,,,,,,,,,,,,,,,,,,,,,,,,,,,,,,,,,,,,,,,,,,,,,,,,,,,,,,,,,0.030189765,,,,,,,,,,,,,,,,,,,,,,,,,,,,left,1,40,-30,10,1,1998.285501,1998.285501,1998.285501,None,None,1,1,0.2357528,,,,,,,,,,,,,,,,,,,,,,10,9,2,2024-10-31_09h28.31.578,uWM_experiment,2022.2.3,59.99714413
,,,,,,,,,,,,,,,,,,,,5,0,5,0,21,0,21,0,,,,,,,,,,,,,,,,,,,,,,,,,,,,,,,,,,,,,,,,,,,,,,,,,,,,,,,,,,,,,,,,,,,,,,0.040189765,,,,,,,,,,,,,,,,,,,,,,,,,,,,left,1,40,-30,10,1,2004.335758,2004.335758,2004.335758,None,None,1,1,0.7456002,,,,,,,,,,,,,,,,,,,,,,10,9,2,2024-10-31_09h28.31.578,uWM_experiment,2022.2.3,59.99714413
,,,,,,,,,,,,,,,,,,,,5,0,5,0,22,0,22,0,,,,,,,,,,,,,,,,,,,,,,,,,,,,,,,,,,,,,,,,,,,,,,,,,,,,,,,,,,,,,,,,,,,,,,0.050189765,,,,,,,,,,,,,,,,,,,,,,,,,,,,left,0,70,30,100,1,2011.769425,2011.769425,2011.769425,None,None,2,0,0.5038371,,,,,,,,,,,,,,,,,,,,,,10,9,2,2024-10-31_09h28.31.578,uWM_experiment,2022.2.3,59.99714413
,,,,,,,,,,,,,,,,,,,,5,0,5,0,23,0,23,0,,,,,,,,,,,,,,,,,,,,,,,,,,,,,,,,,,,,,,,,,,,,,,,,,,,,,,,,,,,,,,,,,,,,,,0,,,,,,,,,,,,,,,,,,,,,,,,,,,,right,0,10,-30,-20,0,2019.419769,2019.419769,2019.419769,None,None,1,1,0.3496434,,,,,,,,,,,,,,,,,,,,,,10,9,2,2024-10-31_09h28.31.578,uWM_experiment,2022.2.3,59.99714413
,,,,,,,,,,,,,,,,,,,,5,0,5,0,,,,,0,0,0,0,,,,,,,,,,,,,,,,,,,,,,,,,,,,,,,,,,,,,,,,,,,,,,,,,,,,,,,,,,,,,,,,,,,,,,,,,,,,,,,,,,,,,,,,,,,,,,,,,,,,,,,,,,,,2019.786444,2019.786444,space,3.2229603,space,None,,2023.036594,2023.036594,1.644769,,,,,,,,,,,,10,9,2,2024-10-31_09h28.31.578,uWM_experiment,2022.2.3,59.99714413
,,,,,,,,,,,,,,,,,,,,5,0,5,0,,,,,1,0,1,0,,,,,,,,,,,,,,,,,,,,,,,,,,,,,,,,,,,,,,,,,,,,,,,,,,,,,,,,,,,,,,,,,,,,,,,,,,,,,,,,,,,,,,,,,,,,,,,,,,,,,,,,,,,,,,,,,,,,,,,,,,,,,,,,,10,9,2,2024-10-31_09h28.31.578,uWM_experiment,2022.2.3,59.99714413
,,,,,,,,,,,,,,,,,,,,5,0,5,0,,,,,2,0,2,0,,,,,,,,,,,,,,,,,,,,,,,,,,,,,,,,,,,,,,,,,,,,,,,,,,,,,,,,,,,,,,,,,,,,,,,,,,,,,,,,,,,,,,,,,,,,,,,,,,,,,,,,,,,,,,,,,,,,,,,,,,,,,,,,,10,9,2,2024-10-31_09h28.31.578,uWM_experiment,2022.2.3,59.99714413
,,,,,,,,,,,,,,,,,,,,6,0,6,0,0,0,0,0,,,,,,,,,,,,,,,,,,,,,,,,,,,,,,,,,,,,,,,,,,,,,,,,,,,,,,,,,,,,,,,,,,,,,,0.040189765,,,,,,,,,,,,,,,,,,,,2024.703324,2025.403353,2025.703364,2026.403396,2026.70341,2027.403441,2027.403441,2027.720152,right,1,160,30,190,1,2032.353661,2032.353661,2032.353661,None,None,1,1,1.0636476,,,,,,,None,,,,,,,,,,,,,,,10,9,2,2024-10-31_09h28.31.578,uWM_experiment,2022.2.3,59.99714413
,,,,,,,,,,,,,,,,,,,,6,0,6,0,1,0,1,0,,,,,,,,,,,,,,,,,,,,,,,,,,,,,,,,,,,,,,,,,,,,,,,,,,,,,,,,,,,,,,,,,,,,,,0.050189765,,,,,,,,,,,,,,,,,,,,,,,,,,,,right,1,100,30,130,1,2039.787334,2039.787334,2039.787334,None,None,1,1,0.8059399,,,,,,,,,,,,,,,,,,,,,,10,9,2,2024-10-31_09h28.31.578,uWM_experiment,2022.2.3,59.99714413
,,,,,,,,,,,,,,,,,,,,6,0,6,0,2,0,2,0,,,,,,,,,,,,,,,,,,,,,,,,,,,,,,,,,,,,,,,,,,,,,,,,,,,,,,,,,,,,,,,,,,,,,,0,,,,,,,,,,,,,,,,,,,,,,,,,,,,left,0,160,30,190,0,2046.304295,2046.304295,2046.304295,None,None,1,1,0.99309,,,,,,,,,,,,,,,,,,,,,,10,9,2,2024-10-31_09h28.31.578,uWM_experiment,2022.2.3,59.99714413
,,,,,,,,,,,,,,,,,,,,6,0,6,0,3,0,3,0,,,,,,,,,,,,,,,,,,,,,,,,,,,,,,,,,,,,,,,,,,,,,,,,,,,,,,,,,,,,,,,,,,,,,,0,,,,,,,,,,,,,,,,,,,,,,,,,,,,left,0,160,30,190,0,2052.921264,2052.921264,2052.921264,None,None,1,1,1.1441154,,,,,,,,,,,,,,,,,,,,,,10,9,2,2024-10-31_09h28.31.578,uWM_experiment,2022.2.3,59.99714413
,,,,,,,,,,,,,,,,,,,,6,0,6,0,4,0,4,0,,,,,,,,,,,,,,,,,,,,,,,,,,,,,,,,,,,,,,,,,,,,,,,,,,,,,,,,,,,,,,,,,,,,,,0.060189765,,,,,,,,,,,,,,,,,,,,,,,,,,,,left,1,40,-30,10,1,2059.704912,2059.704912,2059.704912,None,None,2,0,2.1925335,,,,,,,,,,,,,,,,,,,,,,10,9,2,2024-10-31_09h28.31.578,uWM_experiment,2022.2.3,59.99714413
,,,,,,,,,,,,,,,,,,,,6,0,6,0,5,0,5,0,,,,,,,,,,,,,,,,,,,,,,,,,,,,,,,,,,,,,,,,,,,,,,,,,,,,,,,,,,,,,,,,,,,,,,0.050189765,,,,,,,,,,,,,,,,,,,,,,,,,,,,left,1,10,-30,-20,1,2069.238682,2069.238682,2069.238682,None,None,2,0,2.0346575,,,,,,,,,,,,,,,,,,,,,,10,9,2,2024-10-31_09h28.31.578,uWM_experiment,2022.2.3,59.99714413
,,,,,,,,,,,,,,,,,,,,6,0,6,0,6,0,6,0,,,,,,,,,,,,,,,,,,,,,,,,,,,,,,,,,,,,,,,,,,,,,,,,,,,,,,,,,,,,,,,,,,,,,,0.040189765,,,,,,,,,,,,,,,,,,,,,,,,,,,,right,0,100,-30,70,1,2077.755725,2077.755725,2077.755725,None,None,1,1,1.8055653,,,,,,,,,,,,,,,,,,,,,,10,9,2,2024-10-31_09h28.31.578,uWM_experiment,2022.2.3,59.99714413
,,,,,,,,,,,,,,,,,,,,6,0,6,0,7,0,7,0,,,,,,,,,,,,,,,,,,,,,,,,,,,,,,,,,,,,,,,,,,,,,,,,,,,,,,,,,,,,,,,,,,,,,,0.050189765,,,,,,,,,,,,,,,,,,,,,,,,,,,,right,1,160,30,190,1,2086.039421,2086.039421,2086.039421,None,None,1,1,1.153919,,,,,,,,,,,,,,,,,,,,,,10,9,2,2024-10-31_09h28.31.578,uWM_experiment,2022.2.3,59.99714413
,,,,,,,,,,,,,,,,,,,,6,0,6,0,8,0,8,0,,,,,,,,,,,,,,,,,,,,,,,,,,,,,,,,,,,,,,,,,,,,,,,,,,,,,,,,,,,,,,,,,,,,,,0.060189765,,,,,,,,,,,,,,,,,,,,,,,,,,,,left,0,70,30,100,1,2093.323065,2093.323065,2093.323065,None,None,1,1,0.9504233,,,,,,,,,,,,,,,,,,,,,,10,9,2,2024-10-31_09h28.31.578,uWM_experiment,2022.2.3,59.99714413
,,,,,,,,,,,,,,,,,,,,6,0,6,0,9,0,9,0,,,,,,,,,,,,,,,,,,,,,,,,,,,,,,,,,,,,,,,,,,,,,,,,,,,,,,,,,,,,,,,,,,,,,,0.070189765,,,,,,,,,,,,,,,,,,,,,,,,,,,,right,1,130,30,160,1,2100.640138,2100.640138,2100.640138,None,None,3,0,3.345258,,,,,,,,,,,,,,,,,,,,,,10,9,2,2024-10-31_09h28.31.578,uWM_experiment,2022.2.3,59.99714413
,,,,,,,,,,,,,,,,,,,,6,0,6,0,10,0,10,0,,,,,,,,,,,,,,,,,,,,,,,,,,,,,,,,,,,,,,,,,,,,,,,,,,,,,,,,,,,,,,,,,,,,,,0.060189765,,,,,,,,,,,,,,,,,,,,,,,,,,,,right,0,100,-30,70,1,2110.32384,2110.32384,2110.32384,None,None,1,1,1.557559,,,,,,,,,,,,,,,,,,,,,,10,9,2,2024-10-31_09h28.31.578,uWM_experiment,2022.2.3,59.99714413
,,,,,,,,,,,,,,,,,,,,6,0,6,0,11,0,11,0,,,,,,,,,,,,,,,,,,,,,,,,,,,,,,,,,,,,,,,,,,,,,,,,,,,,,,,,,,,,,,,,,,,,,,0.070189765,,,,,,,,,,,,,,,,,,,,,,,,,,,,left,1,40,-30,10,1,2118.607531,2118.607531,2118.607531,None,None,2,0,2.8658979,,,,,,,,,,,,,,,,,,,,,,10,9,2,2024-10-31_09h28.31.578,uWM_experiment,2022.2.3,59.99714413
,,,,,,,,,,,,,,,,,,,,6,0,6,0,12,0,12,0,,,,,,,,,,,,,,,,,,,,,,,,,,,,,,,,,,,,,,,,,,,,,,,,,,,,,,,,,,,,,,,,,,,,,,0,,,,,,,,,,,,,,,,,,,,,,,,,,,,left,0,10,30,40,0,2128.474663,2128.474663,2128.474663,None,None,1,1,0.9987541,,,,,,,,,,,,,,,,,,,,,,10,9,2,2024-10-31_09h28.31.578,uWM_experiment,2022.2.3,59.99714413
,,,,,,,,,,,,,,,,,,,,6,0,6,0,13,0,13,0,,,,,,,,,,,,,,,,,,,,,,,,,,,,,,,,,,,,,,,,,,,,,,,,,,,,,,,,,,,,,,,,,,,,,,0.1,,,,,,,,,,,,,,,,,,,,,,,,,,,,right,0,100,-30,70,2,2135.341642,2135.341642,2135.341642,None,None,4,0,1.1477666,,,,,,,,,,,,,,,,,,,,,,10,9,2,2024-10-31_09h28.31.578,uWM_experiment,2022.2.3,59.99714413
,,,,,,,,,,,,,,,,,,,,6,0,6,0,14,0,14,0,,,,,,,,,,,,,,,,,,,,,,,,,,,,,,,,,,,,,,,,,,,,,,,,,,,,,,,,,,,,,,,,,,,,,,0.060189765,,,,,,,,,,,,,,,,,,,,,,,,,,,,left,1,10,-30,-20,1,2142.591948,2142.591948,2142.591948,None,None,2,0,1.40948,,,,,,,,,,,,,,,,,,,,,,10,9,2,2024-10-31_09h28.31.578,uWM_experiment,2022.2.3,59.99714413
,,,,,,,,,,,,,,,,,,,,6,0,6,0,15,0,15,0,,,,,,,,,,,,,,,,,,,,,,,,,,,,,,,,,,,,,,,,,,,,,,,,,,,,,,,,,,,,,,,,,,,,,,0.050189765,,,,,,,,,,,,,,,,,,,,,,,,,,,,left,1,40,-30,10,1,2150.175642,2150.175642,2150.175642,None,None,2,0,1.3696855,,,,,,,,,,,,,,,,,,,,,,10,9,2,2024-10-31_09h28.31.578,uWM_experiment,2022.2.3,59.99714413
,,,,,,,,,,,,,,,,,,,,6,0,6,0,16,0,16,0,,,,,,,,,,,,,,,,,,,,,,,,,,,,,,,,,,,,,,,,,,,,,,,,,,,,,,,,,,,,,,,,,,,,,,0,,,,,,,,,,,,,,,,,,,,,,,,,,,,left,0,70,30,100,0,2157.609294,2157.609294,2157.609294,None,None,1,1,1.2242007,,,,,,,,,,,,,,,,,,,,,,10,9,2,2024-10-31_09h28.31.578,uWM_experiment,2022.2.3,59.99714413
,,,,,,,,,,,,,,,,,,,,6,0,6,0,17,0,17,0,,,,,,,,,,,,,,,,,,,,,,,,,,,,,,,,,,,,,,,,,,,,,,,,,,,,,,,,,,,,,,,,,,,,,,0,,,,,,,,,,,,,,,,,,,,,,,,,,,,left,0,130,30,160,0,2164.826293,2164.826293,2164.826293,None,None,1,1,2.6311785,,,,,,,,,,,,,,,,,,,,,,10,9,2,2024-10-31_09h28.31.578,uWM_experiment,2022.2.3,59.99714413
,,,,,,,,,,,,,,,,,,,,6,0,6,0,18,0,18,0,,,,,,,,,,,,,,,,,,,,,,,,,,,,,,,,,,,,,,,,,,,,,,,,,,,,,,,,,,,,,,,,,,,,,,0.040189765,,,,,,,,,,,,,,,,,,,,,,,,,,,,right,0,100,-30,70,1,2173.643347,2173.643347,2173.643347,None,None,1,1,2.3101135,,,,,,,,,,,,,,,,,,,,,,10,9,2,2024-10-31_09h28.31.578,uWM_experiment,2022.2.3,59.99714413
,,,,,,,,,,,,,,,,,,,,6,0,6,0,19,0,19,0,,,,,,,,,,,,,,,,,,,,,,,,,,,,,,,,,,,,,,,,,,,,,,,,,,,,,,,,,,,,,,,,,,,,,,0.050189765,,,,,,,,,,,,,,,,,,,,,,,,,,,,left,1,10,-30,-20,1,2181.843718,2181.843718,2181.843718,None,None,1,1,2.5978364,,,,,,,,,,,,,,,,,,,,,,10,9,2,2024-10-31_09h28.31.578,uWM_experiment,2022.2.3,59.99714413
,,,,,,,,,,,,,,,,,,,,6,0,6,0,20,0,20,0,,,,,,,,,,,,,,,,,,,,,,,,,,,,,,,,,,,,,,,,,,,,,,,,,,,,,,,,,,,,,,,,,,,,,,0,,,,,,,,,,,,,,,,,,,,,,,,,,,,right,1,40,30,70,0,2190.610786,2190.610786,2190.610786,None,None,1,1,6.5427324,,,,,,,,,,,,,,,,,,,,,,10,9,2,2024-10-31_09h28.31.578,uWM_experiment,2022.2.3,59.99714413
,,,,,,,,,,,,,,,,,,,,6,0,6,0,21,0,21,0,,,,,,,,,,,,,,,,,,,,,,,,,,,,,,,,,,,,,,,,,,,,,,,,,,,,,,,,,,,,,,,,,,,,,,0,,,,,,,,,,,,,,,,,,,,,,,,,,,,left,0,100,30,130,0,2204.04471,2204.04471,2204.04471,None,None,1,1,0.8767888,,,,,,,,,,,,,,,,,,,,,,10,9,2,2024-10-31_09h28.31.578,uWM_experiment,2022.2.3,59.99714413
,,,,,,,,,,,,,,,,,,,,6,0,6,0,22,0,22,0,,,,,,,,,,,,,,,,,,,,,,,,,,,,,,,,,,,,,,,,,,,,,,,,,,,,,,,,,,,,,,,,,,,,,,0.060189765,,,,,,,,,,,,,,,,,,,,,,,,,,,,left,1,130,-30,100,1,2210.978373,2210.978373,2210.978373,None,None,2,0,4.7030009,,,,,,,,,,,,,,,,,,,,,,10,9,2,2024-10-31_09h28.31.578,uWM_experiment,2022.2.3,59.99714413
,,,,,,,,,,,,,,,,,,,,6,0,6,0,23,0,23,0,,,,,,,,,,,,,,,,,,,,,,,,,,,,,,,,,,,,,,,,,,,,,,,,,,,,,,,,,,,,,,,,,,,,,,0,,,,,,,,,,,,,,,,,,,,,,,,,,,,left,1,130,-30,100,0,2222.0122,2222.0122,2222.0122,None,None,1,1,1.3172126,,,,,,,,,,,,,,,,,,,,,,10,9,2,2024-10-31_09h28.31.578,uWM_experiment,2022.2.3,59.99714413
,,,,,,,,,,,,,,,,,,,,6,0,6,0,,,,,0,0,0,0,,,,,,,,,,,,,,,,,,,,,,,,,,,,,,,,,,,,,,,,,,,,,,,,,,,,,,,,,,,,,,,,,,,,,,,,,,,,,,,,,,,,,,,,,,,,,,,,,,,,,,,,,,,,2223.362254,2223.362254,space,4.5032746,None,space,,,,,2227.895768,2227.895768,8.825766,,,,,,,,,10,9,2,2024-10-31_09h28.31.578,uWM_experiment,2022.2.3,59.99714413
,,,,,,,,,,,,,,,,,,,,6,0,6,0,,,,,1,0,1,0,,,,,,,,,,,,,,,,,,,,,,,,,,,,,,,,,,,,,,,,,,,,,,,,,,,,,,,,,,,,,,,,,,,,,,,,,,,,,,,,,,,,,,,,,,,,,,,,,,,,,,,,,,,,,,,,,,,,,,,,,,,,,,,,,10,9,2,2024-10-31_09h28.31.578,uWM_experiment,2022.2.3,59.99714413
,,,,,,,,,,,,,,,,,,,,6,0,6,0,,,,,2,0,2,0,,,,,,,,,,,,,,,,,,,,,,,,,,,,,,,,,,,,,,,,,,,,,,,,,,,,,,,,,,,,,,,,,,,,,,,,,,,,,,,,,,,,,,,,,,,,,,,,,,,,,,,,,,,,,,,,,,,,,,,,,,,,,,,,,10,9,2,2024-10-31_09h28.31.578,uWM_experiment,2022.2.3,59.99714413
,,,,,,,,,,,,,,,,,,,,7,0,7,0,0,0,0,0,,,,,,,,,,,,,,,,,,,,,,,,,,,,,,,,,,,,,,,,,,,,,,,,,,,,,,,,,,,,,,,,,,,,,,0.050189765,,,,,,,,,,,,,,,,,,,,2252.196875,2252.896901,2253.180248,2253.880283,2254.180313,2254.880324,2254.880324,2255.19701,left,0,70,30,100,1,2260.447239,2260.447239,2260.447239,None,None,2,0,1.2261822,,,,,,,space,,,,,,,2247.246648,2247.246648,4.9309022,,,,,,10,9,2,2024-10-31_09h28.31.578,uWM_experiment,2022.2.3,59.99714413
,,,,,,,,,,,,,,,,,,,,7,0,7,0,1,0,1,0,,,,,,,,,,,,,,,,,,,,,,,,,,,,,,,,,,,,,,,,,,,,,,,,,,,,,,,,,,,,,,,,,,,,,,0.040189765,,,,,,,,,,,,,,,,,,,,,,,,,,,,left,1,10,-30,-20,1,2267.697589,2267.697589,2267.697589,None,None,1,1,0.9999438,,,,,,,,,,,,,,,,,,,,,,10,9,2,2024-10-31_09h28.31.578,uWM_experiment,2022.2.3,59.99714413
,,,,,,,,,,,,,,,,,,,,7,0,7,0,2,0,2,0,,,,,,,,,,,,,,,,,,,,,,,,,,,,,,,,,,,,,,,,,,,,,,,,,,,,,,,,,,,,,,,,,,,,,,0,,,,,,,,,,,,,,,,,,,,,,,,,,,,left,1,130,-30,100,0,2274.881245,2274.881245,2274.881245,None,None,1,1,1.1443507,,,,,,,,,,,,,,,,,,,,,,10,9,2,2024-10-31_09h28.31.578,uWM_experiment,2022.2.3,59.99714413
,,,,,,,,,,,,,,,,,,,,7,0,7,0,3,0,3,0,,,,,,,,,,,,,,,,,,,,,,,,,,,,,,,,,,,,,,,,,,,,,,,,,,,,,,,,,,,,,,,,,,,,,,0.050189765,,,,,,,,,,,,,,,,,,,,,,,,,,,,right,1,130,30,160,1,2281.831557,2281.831557,2281.831557,None,None,2,0,1.0338938,,,,,,,,,,,,,,,,,,,,,,10,9,2,2024-10-31_09h28.31.578,uWM_experiment,2022.2.3,59.99714413
,,,,,,,,,,,,,,,,,,,,7,0,7,0,4,0,4,0,,,,,,,,,,,,,,,,,,,,,,,,,,,,,,,,,,,,,,,,,,,,,,,,,,,,,,,,,,,,,,,,,,,,,,0.040189765,,,,,,,,,,,,,,,,,,,,,,,,,,,,right,1,130,30,160,1,2289.681891,2289.681891,2289.681891,None,None,2,0,1.8875464,,,,,,,,,,,,,,,,,,,,,,10,9,2,2024-10-31_09h28.31.578,uWM_experiment,2022.2.3,59.99714413
,,,,,,,,,,,,,,,,,,,,7,0,7,0,5,0,5,0,,,,,,,,,,,,,,,,,,,,,,,,,,,,,,,,,,,,,,,,,,,,,,,,,,,,,,,,,,,,,,,,,,,,,,0.030189765,,,,,,,,,,,,,,,,,,,,,,,,,,,,left,1,130,-30,100,1,2297.682275,2297.682275,2297.682275,None,None,2,0,1.1433254,,,,,,,,,,,,,,,,,,,,,,10,9,2,2024-10-31_09h28.31.578,uWM_experiment,2022.2.3,59.99714413
,,,,,,,,,,,,,,,,,,,,7,0,7,0,6,0,6,0,,,,,,,,,,,,,,,,,,,,,,,,,,,,,,,,,,,,,,,,,,,,,,,,,,,,,,,,,,,,,,,,,,,,,,0.020189765,,,,,,,,,,,,,,,,,,,,,,,,,,,,left,1,130,-30,100,1,2305.29927,2305.29927,2305.29927,None,None,1,1,1.3503484,,,,,,,,,,,,,,,,,,,,,,10,9,2,2024-10-31_09h28.31.578,uWM_experiment,2022.2.3,59.99714413
,,,,,,,,,,,,,,,,,,,,7,0,7,0,7,0,7,0,,,,,,,,,,,,,,,,,,,,,,,,,,,,,,,,,,,,,,,,,,,,,,,,,,,,,,,,,,,,,,,,,,,,,,0.030189765,,,,,,,,,,,,,,,,,,,,,,,,,,,,right,1,100,30,130,1,2312.982954,2312.982954,2312.982954,None,None,1,1,1.1625949,,,,,,,,,,,,,,,,,,,,,,10,9,2,2024-10-31_09h28.31.578,uWM_experiment,2022.2.3,59.99714413
,,,,,,,,,,,,,,,,,,,,7,0,7,0,8,0,8,0,,,,,,,,,,,,,,,,,,,,,,,,,,,,,,,,,,,,,,,,,,,,,,,,,,,,,,,,,,,,,,,,,,,,,,0.040189765,,,,,,,,,,,,,,,,,,,,,,,,,,,,left,1,10,-30,-20,1,2321.566664,2321.566664,2321.566664,None,None,1,1,2.7388038,,,,,,,,,,,,,,,,,,,,,,10,9,2,2024-10-31_09h28.31.578,uWM_experiment,2022.2.3,59.99714413
,,,,,,,,,,,,,,,,,,,,7,0,7,0,9,0,9,0,,,,,,,,,,,,,,,,,,,,,,,,,,,,,,,,,,,,,,,,,,,,,,,,,,,,,,,,,,,,,,,,,,,,,,0.050189765,,,,,,,,,,,,,,,,,,,,,,,,,,,,left,1,10,-30,-20,1,2330.233707,2330.233707,2330.233707,None,None,3,0,3.7998764,,,,,,,,,,,,,,,,,,,,,,10,9,2,2024-10-31_09h28.31.578,uWM_experiment,2022.2.3,59.99714413
,,,,,,,,,,,,,,,,,,,,7,0,7,0,10,0,10,0,,,,,,,,,,,,,,,,,,,,,,,,,,,,,,,,,,,,,,,,,,,,,,,,,,,,,,,,,,,,,,,,,,,,,,0.1,,,,,,,,,,,,,,,,,,,,,,,,,,,,left,1,130,-30,100,2,2340.400864,2340.400864,2340.400864,None,None,4,0,1.1287671,,,,,,,,,,,,,,,,,,,,,,10,9,2,2024-10-31_09h28.31.578,uWM_experiment,2022.2.3,59.99714413
,,,,,,,,,,,,,,,,,,,,7,0,7,0,11,0,11,0,,,,,,,,,,,,,,,,,,,,,,,,,,,,,,,,,,,,,,,,,,,,,,,,,,,,,,,,,,,,,,,,,,,,,,0.040189765,,,,,,,,,,,,,,,,,,,,,,,,,,,,left,0,70,30,100,1,2347.86785,2347.86785,2347.86785,None,None,2,0,1.7417457,,,,,,,,,,,,,,,,,,,,,,10,9,2,2024-10-31_09h28.31.578,uWM_experiment,2022.2.3,59.99714413
,,,,,,,,,,,,,,,,,,,,7,0,7,0,12,0,12,0,,,,,,,,,,,,,,,,,,,,,,,,,,,,,,,,,,,,,,,,,,,,,,,,,,,,,,,,,,,,,,,,,,,,,,0,,,,,,,,,,,,,,,,,,,,,,,,,,,,right,0,100,-30,70,0,2355.784877,2355.784877,2355.784877,None,None,1,1,1.1525524,,,,,,,,,,,,,,,,,,,,,,10,9,2,2024-10-31_09h28.31.578,uWM_experiment,2022.2.3,59.99714413
,,,,,,,,,,,,,,,,,,,,7,0,7,0,13,0,13,0,,,,,,,,,,,,,,,,,,,,,,,,,,,,,,,,,,,,,,,,,,,,,,,,,,,,,,,,,,,,,,,,,,,,,,0.030189765,,,,,,,,,,,,,,,,,,,,,,,,,,,,left,0,70,30,100,1,2362.835188,2362.835188,2362.835188,None,None,1,1,1.1182676,,,,,,,,,,,,,,,,,,,,,,10,9,2,2024-10-31_09h28.31.578,uWM_experiment,2022.2.3,59.99714413
,,,,,,,,,,,,,,,,,,,,7,0,7,0,14,0,14,0,,,,,,,,,,,,,,,,,,,,,,,,,,,,,,,,,,,,,,,,,,,,,,,,,,,,,,,,,,,,,,,,,,,,,,0,,,,,,,,,,,,,,,,,,,,,,,,,,,,left,0,10,30,40,0,2370.068848,2370.068848,2370.068848,None,None,1,1,0.9807613,,,,,,,,,,,,,,,,,,,,,,10,9,2,2024-10-31_09h28.31.578,uWM_experiment,2022.2.3,59.99714413
,,,,,,,,,,,,,,,,,,,,7,0,7,0,15,0,15,0,,,,,,,,,,,,,,,,,,,,,,,,,,,,,,,,,,,,,,,,,,,,,,,,,,,,,,,,,,,,,,,,,,,,,,0.040189765,,,,,,,,,,,,,,,,,,,,,,,,,,,,left,1,40,-30,10,1,2376.652475,2376.652475,2376.652475,None,None,1,1,1.5651114,,,,,,,,,,,,,,,,,,,,,,10,9,2,2024-10-31_09h28.31.578,uWM_experiment,2022.2.3,59.99714413
,,,,,,,,,,,,,,,,,,,,7,0,7,0,16,0,16,0,,,,,,,,,,,,,,,,,,,,,,,,,,,,,,,,,,,,,,,,,,,,,,,,,,,,,,,,,,,,,,,,,,,,,,0.050189765,,,,,,,,,,,,,,,,,,,,,,,,,,,,right,1,40,30,70,1,2384.186144,2384.186144,2384.186144,None,None,1,1,1.1753673,,,,,,,,,,,,,,,,,,,,,,10,9,2,2024-10-31_09h28.31.578,uWM_experiment,2022.2.3,59.99714413
,,,,,,,,,,,,,,,,,,,,7,0,7,0,17,0,17,0,,,,,,,,,,,,,,,,,,,,,,,,,,,,,,,,,,,,,,,,,,,,,,,,,,,,,,,,,,,,,,,,,,,,,,0.060189765,,,,,,,,,,,,,,,,,,,,,,,,,,,,right,1,160,30,190,1,2391.519801,2391.519801,2391.519801,None,None,2,0,1.5056697,,,,,,,,,,,,,,,,,,,,,,10,9,2,2024-10-31_09h28.31.578,uWM_experiment,2022.2.3,59.99714413
,,,,,,,,,,,,,,,,,,,,7,0,7,0,18,0,18,0,,,,,,,,,,,,,,,,,,,,,,,,,,,,,,,,,,,,,,,,,,,,,,,,,,,,,,,,,,,,,,,,,,,,,,0,,,,,,,,,,,,,,,,,,,,,,,,,,,,left,0,160,30,190,0,2399.886851,2399.886851,2399.886851,None,None,1,1,1.0907707,,,,,,,,,,,,,,,,,,,,,,10,9,2,2024-10-31_09h28.31.578,uWM_experiment,2022.2.3,59.99714413
,,,,,,,,,,,,,,,,,,,,7,0,7,0,19,0,19,0,,,,,,,,,,,,,,,,,,,,,,,,,,,,,,,,,,,,,,,,,,,,,,,,,,,,,,,,,,,,,,,,,,,,,,0.050189765,,,,,,,,,,,,,,,,,,,,,,,,,,,,right,1,160,30,190,1,2407.170496,2407.170496,2407.170496,None,None,2,0,1.4310821,,,,,,,,,,,,,,,,,,,,,,10,9,2,2024-10-31_09h28.31.578,uWM_experiment,2022.2.3,59.99714413
,,,,,,,,,,,,,,,,,,,,7,0,7,0,20,0,20,0,,,,,,,,,,,,,,,,,,,,,,,,,,,,,,,,,,,,,,,,,,,,,,,,,,,,,,,,,,,,,,,,,,,,,,0.040189765,,,,,,,,,,,,,,,,,,,,,,,,,,,,right,1,10,30,40,1,2414.837524,2414.837524,2414.837524,None,None,1,1,1.1640435,,,,,,,,,,,,,,,,,,,,,,10,9,2,2024-10-31_09h28.31.578,uWM_experiment,2022.2.3,59.99714413
,,,,,,,,,,,,,,,,,,,,7,0,7,0,21,0,21,0,,,,,,,,,,,,,,,,,,,,,,,,,,,,,,,,,,,,,,,,,,,,,,,,,,,,,,,,,,,,,,,,,,,,,,0.050189765,,,,,,,,,,,,,,,,,,,,,,,,,,,,right,1,10,30,40,1,2423.088095,2423.088095,2423.088095,None,None,1,1,0.7053936,,,,,,,,,,,,,,,,,,,,,,10,9,2,2024-10-31_09h28.31.578,uWM_experiment,2022.2.3,59.99714413
,,,,,,,,,,,,,,,,,,,,7,0,7,0,22,0,22,0,,,,,,,,,,,,,,,,,,,,,,,,,,,,,,,,,,,,,,,,,,,,,,,,,,,,,,,,,,,,,,,,,,,,,,0.060189765,,,,,,,,,,,,,,,,,,,,,,,,,,,,right,1,10,30,40,1,2429.771539,2429.771539,2429.771539,None,None,3,0,1.5739907,,,,,,,,,,,,,,,,,,,,,,10,9,2,2024-10-31_09h28.31.578,uWM_experiment,2022.2.3,59.99714413
,,,,,,,,,,,,,,,,,,,,7,0,7,0,23,0,23,0,,,,,,,,,,,,,,,,,,,,,,,,,,,,,,,,,,,,,,,,,,,,,,,,,,,,,,,,,,,,,,,,,,,,,,0,,,,,,,,,,,,,,,,,,,,,,,,,,,,right,1,10,30,40,0,2437.905193,2437.905193,2437.905193,None,None,1,1,0.584408,,,,,,,,,,,,,,,,,,,,,,10,9,2,2024-10-31_09h28.31.578,uWM_experiment,2022.2.3,59.99714413
,,,,,,,,,,,,,,,,,,,,7,0,7,0,,,,,0,0,0,0,,,,,,,,,,,,,,,,,,,,,,,,,,,,,,,,,,,,,,,,,,,,,,,,,,,,,,,,,,,,,,,,,,,,,,,,,,,,,,,,,,,,,,,,,,,,,,,,,,,,,,,,,,,,2438.521911,2438.521911,space,4.7277141,None,None,,,,,,,,,,,,,,,,10,9,2,2024-10-31_09h28.31.578,uWM_experiment,2022.2.3,59.99714413
,,,,,,,,,,,,,,,,,,,,7,0,7,0,,,,,1,0,1,0,,,,,,,,,,,,,,,,,,,,,,,,,,,,,,,,,,,,,,,,,,,,,,,,,,,,,,,,,,,,,,,,,,,,,,,,,,,,,,,,,,,,,,,,,,,,,,,,,,,,,,,,,,,,,,,,,,,,,,,,,,,,,,,,,10,9,2,2024-10-31_09h28.31.578,uWM_experiment,2022.2.3,59.99714413
,,,,,,,,,,,,,,,,,,,,7,0,7,0,,,,,2,0,2,0,,,,,,,,,,,,,,,,,,,,,,,,,,,,,,,,,,,,,,,,,,,,,,,,,,,,,,,,,,,,,,,,,,,,,,,,,,,,,,,,,,,,,,,,,,,,,,,,,,,,,,,,,,,,,,,,,,,,,,,,,,,,,,,,,10,9,2,2024-10-31_09h28.31.578,uWM_experiment,2022.2.3,59.99714413
,,,,,,,,,,,,,,,,,,,,8,0,8,0,0,0,0,0,,,,,,,,,,,,,,,,,,,,,,,,,,,,,,,,,,,,,,,,,,,,,,,,,,,,,,,,,,,,,,,,,,,,,,0.050189765,,,,,,,,,,,,,,,,,,,,2443.27212,2443.972143,2444.27216,2444.972174,2445.272202,2445.972232,2445.972232,2446.288916,left,1,130,-30,100,1,2451.122461,2451.122461,2451.122461,None,None,2,0,0.3831371,,,,,,,None,,,,,,,,,,,,,,,10,9,2,2024-10-31_09h28.31.578,uWM_experiment,2022.2.3,59.99714413
,,,,,,,,,,,,,,,,,,,,8,0,8,0,1,0,1,0,,,,,,,,,,,,,,,,,,,,,,,,,,,,,,,,,,,,,,,,,,,,,,,,,,,,,,,,,,,,,,,,,,,,,,0.040189765,,,,,,,,,,,,,,,,,,,,,,,,,,,,right,0,100,-30,70,1,2457.922772,2457.922772,2457.922772,None,None,2,0,0.7108168,,,,,,,,,,,,,,,,,,,,,,10,9,2,2024-10-31_09h28.31.578,uWM_experiment,2022.2.3,59.99714413
,,,,,,,,,,,,,,,,,,,,8,0,8,0,2,0,2,0,,,,,,,,,,,,,,,,,,,,,,,,,,,,,,,,,,,,,,,,,,,,,,,,,,,,,,,,,,,,,,,,,,,,,,0.030189765,,,,,,,,,,,,,,,,,,,,,,,,,,,,right,1,130,30,160,1,2464.273079,2464.273079,2464.273079,None,None,2,0,0.4565423,,,,,,,,,,,,,,,,,,,,,,10,9,2,2024-10-31_09h28.31.578,uWM_experiment,2022.2.3,59.99714413
,,,,,,,,,,,,,,,,,,,,8,0,8,0,3,0,3,0,,,,,,,,,,,,,,,,,,,,,,,,,,,,,,,,,,,,,,,,,,,,,,,,,,,,,,,,,,,,,,,,,,,,,,0,,,,,,,,,,,,,,,,,,,,,,,,,,,,left,1,130,-30,100,0,2470.456695,2470.456695,2470.456695,None,None,1,1,0.7608831,,,,,,,,,,,,,,,,,,,,,,10,9,2,2024-10-31_09h28.31.578,uWM_experiment,2022.2.3,59.99714413
,,,,,,,,,,,,,,,,,,,,8,0,8,0,4,0,4,0,,,,,,,,,,,,,,,,,,,,,,,,,,,,,,,,,,,,,,,,,,,,,,,,,,,,,,,,,,,,,,,,,,,,,,0,,,,,,,,,,,,,,,,,,,,,,,,,,,,left,0,70,30,100,0,2478.407002,2478.407002,2478.407002,None,None,1,1,0.3785646,,,,,,,,,,,,,,,,,,,,,,10,9,2,2024-10-31_09h28.31.578,uWM_experiment,2022.2.3,59.99714413
,,,,,,,,,,,,,,,,,,,,8,0,8,0,5,0,5,0,,,,,,,,,,,,,,,,,,,,,,,,,,,,,,,,,,,,,,,,,,,,,,,,,,,,,,,,,,,,,,,,,,,,,,0.020189765,,,,,,,,,,,,,,,,,,,,,,,,,,,,right,1,130,30,160,1,2485.574031,2485.574031,2485.574031,None,None,1,1,0.707517,,,,,,,,,,,,,,,,,,,,,,10,9,2,2024-10-31_09h28.31.578,uWM_experiment,2022.2.3,59.99714413
,,,,,,,,,,,,,,,,,,,,8,0,8,0,6,0,6,0,,,,,,,,,,,,,,,,,,,,,,,,,,,,,,,,,,,,,,,,,,,,,,,,,,,,,,,,,,,,,,,,,,,,,,0.030189765,,,,,,,,,,,,,,,,,,,,,,,,,,,,left,1,130,-30,100,1,2492.174319,2492.174319,2492.174319,None,None,1,1,0.8993262,,,,,,,,,,,,,,,,,,,,,,10,9,2,2024-10-31_09h28.31.578,uWM_experiment,2022.2.3,59.99714413
,,,,,,,,,,,,,,,,,,,,8,0,8,0,7,0,7,0,,,,,,,,,,,,,,,,,,,,,,,,,,,,,,,,,,,,,,,,,,,,,,,,,,,,,,,,,,,,,,,,,,,,,,0,,,,,,,,,,,,,,,,,,,,,,,,,,,,right,1,130,30,160,0,2499.024639,2499.024639,2499.024639,None,None,1,1,0.4569539,,,,,,,,,,,,,,,,,,,,,,10,9,2,2024-10-31_09h28.31.578,uWM_experiment,2022.2.3,59.99714413
,,,,,,,,,,,,,,,,,,,,8,0,8,0,8,0,8,0,,,,,,,,,,,,,,,,,,,,,,,,,,,,,,,,,,,,,,,,,,,,,,,,,,,,,,,,,,,,,,,,,,,,,,0.040189765,,,,,,,,,,,,,,,,,,,,,,,,,,,,right,1,160,30,190,1,2505.224915,2505.224915,2505.224915,None,None,1,1,0.9606643,,,,,,,,,,,,,,,,,,,,,,10,9,2,2024-10-31_09h28.31.578,uWM_experiment,2022.2.3,59.99714413
,,,,,,,,,,,,,,,,,,,,8,0,8,0,9,0,9,0,,,,,,,,,,,,,,,,,,,,,,,,,,,,,,,,,,,,,,,,,,,,,,,,,,,,,,,,,,,,,,,,,,,,,,0.050189765,,,,,,,,,,,,,,,,,,,,,,,,,,,,left,0,70,30,100,1,2511.775189,2511.775189,2511.775189,None,None,2,0,2.1944369,,,,,,,,,,,,,,,,,,,,,,10,9,2,2024-10-31_09h28.31.578,uWM_experiment,2022.2.3,59.99714413
,,,,,,,,,,,,,,,,,,,,8,0,8,0,10,0,10,0,,,,,,,,,,,,,,,,,,,,,,,,,,,,,,,,,,,,,,,,,,,,,,,,,,,,,,,,,,,,,,,,,,,,,,0.1,,,,,,,,,,,,,,,,,,,,,,,,,,,,right,0,100,-30,70,2,2520.758963,2520.758963,2520.758963,None,None,4,0,0.6986608,,,,,,,,,,,,,,,,,,,,,,10,9,2,2024-10-31_09h28.31.578,uWM_experiment,2022.2.3,59.99714413
,,,,,,,,,,,,,,,,,,,,8,0,8,0,11,0,11,0,,,,,,,,,,,,,,,,,,,,,,,,,,,,,,,,,,,,,,,,,,,,,,,,,,,,,,,,,,,,,,,,,,,,,,0.040189765,,,,,,,,,,,,,,,,,,,,,,,,,,,,right,0,100,-30,70,1,2527.792597,2527.792597,2527.792597,None,None,2,0,1.0970667,,,,,,,,,,,,,,,,,,,,,,10,9,2,2024-10-31_09h28.31.578,uWM_experiment,2022.2.3,59.99714413
,,,,,,,,,,,,,,,,,,,,8,0,8,0,12,0,12,0,,,,,,,,,,,,,,,,,,,,,,,,,,,,,,,,,,,,,,,,,,,,,,,,,,,,,,,,,,,,,,,,,,,,,,0,,,,,,,,,,,,,,,,,,,,,,,,,,,,right,0,160,-30,130,0,2534.842874,2534.842874,2534.842874,None,None,2,0,1.3987481,,,,,,,,,,,,,,,,,,,,,,10,9,2,2024-10-31_09h28.31.578,uWM_experiment,2022.2.3,59.99714413
,,,,,,,,,,,,,,,,,,,,8,0,8,0,13,0,13,0,,,,,,,,,,,,,,,,,,,,,,,,,,,,,,,,,,,,,,,,,,,,,,,,,,,,,,,,,,,,,,,,,,,,,,0.030189765,,,,,,,,,,,,,,,,,,,,,,,,,,,,left,1,130,-30,100,1,2542.543248,2542.543248,2542.543248,None,None,1,1,1.8183528,,,,,,,,,,,,,,,,,,,,,,10,9,2,2024-10-31_09h28.31.578,uWM_experiment,2022.2.3,59.99714413
,,,,,,,,,,,,,,,,,,,,8,0,8,0,14,0,14,0,,,,,,,,,,,,,,,,,,,,,,,,,,,,,,,,,,,,,,,,,,,,,,,,,,,,,,,,,,,,,,,,,,,,,,0.040189765,,,,,,,,,,,,,,,,,,,,,,,,,,,,left,0,70,30,100,1,2550.476945,2550.476945,2550.476945,None,None,2,0,2.3649635,,,,,,,,,,,,,,,,,,,,,,10,9,2,2024-10-31_09h28.31.578,uWM_experiment,2022.2.3,59.99714413
,,,,,,,,,,,,,,,,,,,,8,0,8,0,15,0,15,0,,,,,,,,,,,,,,,,,,,,,,,,,,,,,,,,,,,,,,,,,,,,,,,,,,,,,,,,,,,,,,,,,,,,,,0.030189765,,,,,,,,,,,,,,,,,,,,,,,,,,,,right,1,160,30,190,1,2559.377332,2559.377332,2559.377332,None,None,2,0,3.2562157,,,,,,,,,,,,,,,,,,,,,,10,9,2,2024-10-31_09h28.31.578,uWM_experiment,2022.2.3,59.99714413
,,,,,,,,,,,,,,,,,,,,8,0,8,0,16,0,16,0,,,,,,,,,,,,,,,,,,,,,,,,,,,,,,,,,,,,,,,,,,,,,,,,,,,,,,,,,,,,,,,,,,,,,,0.020189765,,,,,,,,,,,,,,,,,,,,,,,,,,,,left,1,160,-30,130,1,2570.294493,2570.294493,2570.294493,None,None,1,1,1.6752029,,,,,,,,,,,,,,,,,,,,,,10,9,2,2024-10-31_09h28.31.578,uWM_experiment,2022.2.3,59.99714413
,,,,,,,,,,,,,,,,,,,,8,0,8,0,17,0,17,0,,,,,,,,,,,,,,,,,,,,,,,,,,,,,,,,,,,,,,,,,,,,,,,,,,,,,,,,,,,,,,,,,,,,,,0,,,,,,,,,,,,,,,,,,,,,,,,,,,,left,1,40,-30,10,0,2578.094829,2578.094829,2578.094829,None,None,1,1,1.322764,,,,,,,,,,,,,,,,,,,,,,10,9,2,2024-10-31_09h28.31.578,uWM_experiment,2022.2.3,59.99714413
,,,,,,,,,,,,,,,,,,,,8,0,8,0,18,0,18,0,,,,,,,,,,,,,,,,,,,,,,,,,,,,,,,,,,,,,,,,,,,,,,,,,,,,,,,,,,,,,,,,,,,,,,0.030189765,,,,,,,,,,,,,,,,,,,,,,,,,,,,right,1,40,30,70,1,2587.345262,2587.345262,2587.345262,None,None,1,1,1.5764446,,,,,,,,,,,,,,,,,,,,,,10,9,2,2024-10-31_09h28.31.578,uWM_experiment,2022.2.3,59.99714413
,,,,,,,,,,,,,,,,,,,,8,0,8,0,19,0,19,0,,,,,,,,,,,,,,,,,,,,,,,,,,,,,,,,,,,,,,,,,,,,,,,,,,,,,,,,,,,,,,,,,,,,,,0.040189765,,,,,,,,,,,,,,,,,,,,,,,,,,,,left,1,130,-30,100,1,2595.728962,2595.728962,2595.728962,None,None,1,1,6.320622,,,,,,,,,,,,,,,,,,,,,,10,9,2,2024-10-31_09h28.31.578,uWM_experiment,2022.2.3,59.99714413
,,,,,,,,,,,,,,,,,,,,8,0,8,0,20,0,20,0,,,,,,,,,,,,,,,,,,,,,,,,,,,,,,,,,,,,,,,,,,,,,,,,,,,,,,,,,,,,,,,,,,,,,,0.1,,,,,,,,,,,,,,,,,,,,,,,,,,,,left,0,10,30,40,2,2609.696272,2609.696272,2609.696272,None,None,4,0,1.4893509,,,,,,,,,,,,,,,,,,,,,,10,9,2,2024-10-31_09h28.31.578,uWM_experiment,2022.2.3,59.99714413
,,,,,,,,,,,,,,,,,,,,8,0,8,0,21,0,21,0,,,,,,,,,,,,,,,,,,,,,,,,,,,,,,,,,,,,,,,,,,,,,,,,,,,,,,,,,,,,,,,,,,,,,,0.1,,,,,,,,,,,,,,,,,,,,,,,,,,,,left,1,160,-30,130,2,2618.346657,2618.346657,2618.346657,None,None,4,0,2.2630669,,,,,,,,,,,,,,,,,,,,,,10,9,2,2024-10-31_09h28.31.578,uWM_experiment,2022.2.3,59.99714413
,,,,,,,,,,,,,,,,,,,,8,0,8,0,22,0,22,0,,,,,,,,,,,,,,,,,,,,,,,,,,,,,,,,,,,,,,,,,,,,,,,,,,,,,,,,,,,,,,,,,,,,,,0.050189765,,,,,,,,,,,,,,,,,,,,,,,,,,,,right,1,40,30,70,1,2626.480317,2626.480317,2626.480317,None,None,2,0,3.1372914,,,,,,,,,,,,,,,,,,,,,,10,9,2,2024-10-31_09h28.31.578,uWM_experiment,2022.2.3,59.99714413
,,,,,,,,,,,,,,,,,,,,8,0,8,0,23,0,23,0,,,,,,,,,,,,,,,,,,,,,,,,,,,,,,,,,,,,,,,,,,,,,,,,,,,,,,,,,,,,,,,,,,,,,,0.040189765,,,,,,,,,,,,,,,,,,,,,,,,,,,,left,1,100,-30,70,1,2636.097455,2636.097455,2636.097455,None,None,1,1,1.0962408,,,,,,,,,,,,,,,,,,,,,,10,9,2,2024-10-31_09h28.31.578,uWM_experiment,2022.2.3,59.99714413
,,,,,,,,,,,,,,,,,,,,8,0,8,0,,,,,0,0,0,0,,,,,,,,,,,,,,,,,,,,,,,,,,,,,,,,,,,,,,,,,,,,,,,,,,,,,,,,,,,,,,,,,,,,,,,,,,,,,,,,,,,,,,,,,,,,,,,,,,,,,,,,,,,,2637.214139,2637.214139,space,27.9475418,space,None,,2665.182074,2665.182074,5.907611,,,,,,,,,,,,10,9,2,2024-10-31_09h28.31.578,uWM_experiment,2022.2.3,59.99714413
,,,,,,,,,,,,,,,,,,,,8,0,8,0,,,,,1,0,1,0,,,,,,,,,,,,,,,,,,,,,,,,,,,,,,,,,,,,,,,,,,,,,,,,,,,,,,,,,,,,,,,,,,,,,,,,,,,,,,,,,,,,,,,,,,,,,,,,,,,,,,,,,,,,,,,,,,,,,,,,,,,,,,,,,10,9,2,2024-10-31_09h28.31.578,uWM_experiment,2022.2.3,59.99714413
,,,,,,,,,,,,,,,,,,,,8,0,8,0,,,,,2,0,2,0,,,,,,,,,,,,,,,,,,,,,,,,,,,,,,,,,,,,,,,,,,,,,,,,,,,,,,,,,,,,,,,,,,,,,,,,,,,,,,,,,,,,,,,,,,,,,,,,,,,,,,,,,,,,,,,,,,,,,,,,,,,,,,,,,10,9,2,2024-10-31_09h28.31.578,uWM_experiment,2022.2.3,59.99714413
,,,,,,,,,,,,,,,,,,,,9,0,9,0,0,0,0,0,,,,,,,,,,,,,,,,,,,,,,,,,,,,,,,,,,,,,,,,,,,,,,,,,,,,,,,,,,,,,,,,,,,,,,0.050189765,,,,,,,,,,,,,,,,,,,,2671.115687,2671.815698,2672.115716,2672.815742,2673.115756,2673.815789,2673.815789,2674.132484,left,1,160,-30,130,1,2680.182724,2680.182724,2680.182724,None,None,1,1,1.4510358,,,,,,,None,,,,,,,,,,,,,,,10,9,2,2024-10-31_09h28.31.578,uWM_experiment,2022.2.3,59.99714413
,,,,,,,,,,,,,,,,,,,,9,0,9,0,1,0,1,0,,,,,,,,,,,,,,,,,,,,,,,,,,,,,,,,,,,,,,,,,,,,,,,,,,,,,,,,,,,,,,,,,,,,,,0.060189765,,,,,,,,,,,,,,,,,,,,,,,,,,,,left,1,40,-30,10,1,2687.599765,2687.599765,2687.599765,None,None,2,0,1.6980231,,,,,,,,,,,,,,,,,,,,,,10,9,2,2024-10-31_09h28.31.578,uWM_experiment,2022.2.3,59.99714413
,,,,,,,,,,,,,,,,,,,,9,0,9,0,2,0,2,0,,,,,,,,,,,,,,,,,,,,,,,,,,,,,,,,,,,,,,,,,,,,,,,,,,,,,,,,,,,,,,,,,,,,,,0,,,,,,,,,,,,,,,,,,,,,,,,,,,,left,1,130,-30,100,0,2695.083435,2695.083435,2695.083435,None,None,1,1,1.1902344,,,,,,,,,,,,,,,,,,,,,,10,9,2,2024-10-31_09h28.31.578,uWM_experiment,2022.2.3,59.99714413
,,,,,,,,,,,,,,,,,,,,9,0,9,0,3,0,3,0,,,,,,,,,,,,,,,,,,,,,,,,,,,,,,,,,,,,,,,,,,,,,,,,,,,,,,,,,,,,,,,,,,,,,,0.050189765,,,,,,,,,,,,,,,,,,,,,,,,,,,,right,1,130,30,160,1,2702.483742,2702.483742,2702.483742,None,None,1,1,0.3900426,,,,,,,,,,,,,,,,,,,,,,10,9,2,2024-10-31_09h28.31.578,uWM_experiment,2022.2.3,59.99714413
,,,,,,,,,,,,,,,,,,,,9,0,9,0,4,0,4,0,,,,,,,,,,,,,,,,,,,,,,,,,,,,,,,,,,,,,,,,,,,,,,,,,,,,,,,,,,,,,,,,,,,,,,0,,,,,,,,,,,,,,,,,,,,,,,,,,,,right,0,100,-30,70,0,2710.01742,2710.01742,2710.01742,None,None,1,1,1.4963466,,,,,,,,,,,,,,,,,,,,,,10,9,2,2024-10-31_09h28.31.578,uWM_experiment,2022.2.3,59.99714413
,,,,,,,,,,,,,,,,,,,,9,0,9,0,5,0,5,0,,,,,,,,,,,,,,,,,,,,,,,,,,,,,,,,,,,,,,,,,,,,,,,,,,,,,,,,,,,,,,,,,,,,,,0.060189765,,,,,,,,,,,,,,,,,,,,,,,,,,,,left,0,70,30,100,1,2717.067728,2717.067728,2717.067728,None,None,2,0,3.0859718,,,,,,,,,,,,,,,,,,,,,,10,9,2,2024-10-31_09h28.31.578,uWM_experiment,2022.2.3,59.99714413
,,,,,,,,,,,,,,,,,,,,9,0,9,0,6,0,6,0,,,,,,,,,,,,,,,,,,,,,,,,,,,,,,,,,,,,,,,,,,,,,,,,,,,,,,,,,,,,,,,,,,,,,,0.050189765,,,,,,,,,,,,,,,,,,,,,,,,,,,,left,1,130,-30,100,1,2725.851451,2725.851451,2725.851451,None,None,2,0,1.8541794,,,,,,,,,,,,,,,,,,,,,,10,9,2,2024-10-31_09h28.31.578,uWM_experiment,2022.2.3,59.99714413
,,,,,,,,,,,,,,,,,,,,9,0,9,0,7,0,7,0,,,,,,,,,,,,,,,,,,,,,,,,,,,,,,,,,,,,,,,,,,,,,,,,,,,,,,,,,,,,,,,,,,,,,,0.040189765,,,,,,,,,,,,,,,,,,,,,,,,,,,,left,1,10,-30,-20,1,2733.135127,2733.135127,2733.135127,None,None,2,0,1.8745799,,,,,,,,,,,,,,,,,,,,,,10,9,2,2024-10-31_09h28.31.578,uWM_experiment,2022.2.3,59.99714413
,,,,,,,,,,,,,,,,,,,,9,0,9,0,8,0,8,0,,,,,,,,,,,,,,,,,,,,,,,,,,,,,,,,,,,,,,,,,,,,,,,,,,,,,,,,,,,,,,,,,,,,,,0.030189765,,,,,,,,,,,,,,,,,,,,,,,,,,,,left,1,40,-30,10,1,2741.152138,2741.152138,2741.152138,None,None,2,0,0.4736463,,,,,,,,,,,,,,,,,,,,,,10,9,2,2024-10-31_09h28.31.578,uWM_experiment,2022.2.3,59.99714413
,,,,,,,,,,,,,,,,,,,,9,0,9,0,9,0,9,0,,,,,,,,,,,,,,,,,,,,,,,,,,,,,,,,,,,,,,,,,,,,,,,,,,,,,,,,,,,,,,,,,,,,,,0.020189765,,,,,,,,,,,,,,,,,,,,,,,,,,,,left,1,160,-30,130,1,2747.252424,2747.252424,2747.252424,None,None,1,1,0.7012581,,,,,,,,,,,,,,,,,,,,,,10,9,2,2024-10-31_09h28.31.578,uWM_experiment,2022.2.3,59.99714413
,,,,,,,,,,,,,,,,,,,,9,0,9,0,10,0,10,0,,,,,,,,,,,,,,,,,,,,,,,,,,,,,,,,,,,,,,,,,,,,,,,,,,,,,,,,,,,,,,,,,,,,,,0.030189765,,,,,,,,,,,,,,,,,,,,,,,,,,,,left,0,100,30,130,1,2754.336093,2754.336093,2754.336093,None,None,1,1,0.6016594,,,,,,,,,,,,,,,,,,,,,,10,9,2,2024-10-31_09h28.31.578,uWM_experiment,2022.2.3,59.99714413
,,,,,,,,,,,,,,,,,,,,9,0,9,0,11,0,11,0,,,,,,,,,,,,,,,,,,,,,,,,,,,,,,,,,,,,,,,,,,,,,,,,,,,,,,,,,,,,,,,,,,,,,,0.040189765,,,,,,,,,,,,,,,,,,,,,,,,,,,,right,1,130,30,160,1,2760.75305,2760.75305,2760.75305,None,None,2,0,0.6886134,,,,,,,,,,,,,,,,,,,,,,10,9,2,2024-10-31_09h28.31.578,uWM_experiment,2022.2.3,59.99714413
,,,,,,,,,,,,,,,,,,,,9,0,9,0,12,0,12,0,,,,,,,,,,,,,,,,,,,,,,,,,,,,,,,,,,,,,,,,,,,,,,,,,,,,,,,,,,,,,,,,,,,,,,0.030189765,,,,,,,,,,,,,,,,,,,,,,,,,,,,left,0,130,30,160,1,2767.670025,2767.670025,2767.670025,None,None,1,1,1.915746,,,,,,,,,,,,,,,,,,,,,,10,9,2,2024-10-31_09h28.31.578,uWM_experiment,2022.2.3,59.99714413
,,,,,,,,,,,,,,,,,,,,9,0,9,0,13,0,13,0,,,,,,,,,,,,,,,,,,,,,,,,,,,,,,,,,,,,,,,,,,,,,,,,,,,,,,,,,,,,,,,,,,,,,,0,,,,,,,,,,,,,,,,,,,,,,,,,,,,left,0,100,30,130,0,2776.803759,2776.803759,2776.803759,None,None,1,1,0.8300356,,,,,,,,,,,,,,,,,,,,,,10,9,2,2024-10-31_09h28.31.578,uWM_experiment,2022.2.3,59.99714413
,,,,,,,,,,,,,,,,,,,,9,0,9,0,14,0,14,0,,,,,,,,,,,,,,,,,,,,,,,,,,,,,,,,,,,,,,,,,,,,,,,,,,,,,,,,,,,,,,,,,,,,,,0.040189765,,,,,,,,,,,,,,,,,,,,,,,,,,,,left,1,130,-30,100,1,2784.6541,2784.6541,2784.6541,None,None,2,0,0.387581,,,,,,,,,,,,,,,,,,,,,,10,9,2,2024-10-31_09h28.31.578,uWM_experiment,2022.2.3,59.99714413
,,,,,,,,,,,,,,,,,,,,9,0,9,0,15,0,15,0,,,,,,,,,,,,,,,,,,,,,,,,,,,,,,,,,,,,,,,,,,,,,,,,,,,,,,,,,,,,,,,,,,,,,,0.030189765,,,,,,,,,,,,,,,,,,,,,,,,,,,,right,0,100,-30,70,1,2791.071058,2791.071058,2791.071058,None,None,1,1,0.498787,,,,,,,,,,,,,,,,,,,,,,10,9,2,2024-10-31_09h28.31.578,uWM_experiment,2022.2.3,59.99714413
,,,,,,,,,,,,,,,,,,,,9,0,9,0,16,0,16,0,,,,,,,,,,,,,,,,,,,,,,,,,,,,,,,,,,,,,,,,,,,,,,,,,,,,,,,,,,,,,,,,,,,,,,0.040189765,,,,,,,,,,,,,,,,,,,,,,,,,,,,right,1,100,30,130,1,2797.554677,2797.554677,2797.554677,None,None,2,0,1.1431597,,,,,,,,,,,,,,,,,,,,,,10,9,2,2024-10-31_09h28.31.578,uWM_experiment,2022.2.3,59.99714413
,,,,,,,,,,,,,,,,,,,,9,0,9,0,17,0,17,0,,,,,,,,,,,,,,,,,,,,,,,,,,,,,,,,,,,,,,,,,,,,,,,,,,,,,,,,,,,,,,,,,,,,,,0.030189765,,,,,,,,,,,,,,,,,,,,,,,,,,,,right,0,10,-30,-20,1,2806.138423,2806.138423,2806.138423,None,None,1,1,0.3032606,,,,,,,,,,,,,,,,,,,,,,10,9,2,2024-10-31_09h28.31.578,uWM_experiment,2022.2.3,59.99714413
,,,,,,,,,,,,,,,,,,,,9,0,9,0,18,0,18,0,,,,,,,,,,,,,,,,,,,,,,,,,,,,,,,,,,,,,,,,,,,,,,,,,,,,,,,,,,,,,,,,,,,,,,0.040189765,,,,,,,,,,,,,,,,,,,,,,,,,,,,left,1,40,-30,10,1,2812.655359,2812.655359,2812.655359,None,None,2,0,0.8904958,,,,,,,,,,,,,,,,,,,,,,10,9,2,2024-10-31_09h28.31.578,uWM_experiment,2022.2.3,59.99714413
,,,,,,,,,,,,,,,,,,,,9,0,9,0,19,0,19,0,,,,,,,,,,,,,,,,,,,,,,,,,,,,,,,,,,,,,,,,,,,,,,,,,,,,,,,,,,,,,,,,,,,,,,0,,,,,,,,,,,,,,,,,,,,,,,,,,,,left,0,160,30,190,0,2825.205925,2825.205925,2825.205925,None,None,1,1,1.6279314,,,,,,,,,,,,,,,,,,,,,,10,9,2,2024-10-31_09h28.31.578,uWM_experiment,2022.2.3,59.99714413
,,,,,,,,,,,,,,,,,,,,9,0,9,0,20,0,20,0,,,,,,,,,,,,,,,,,,,,,,,,,,,,,,,,,,,,,,,,,,,,,,,,,,,,,,,,,,,,,,,,,,,,,,0.030189765,,,,,,,,,,,,,,,,,,,,,,,,,,,,left,0,70,30,100,1,2834.556351,2834.556351,2834.556351,None,None,1,1,7.0533534,,,,,,,,,,,,,,,,,,,,,,10,9,2,2024-10-31_09h28.31.578,uWM_experiment,2022.2.3,59.99714413
,,,,,,,,,,,,,,,,,,,,9,0,9,0,21,0,21,0,,,,,,,,,,,,,,,,,,,,,,,,,,,,,,,,,,,,,,,,,,,,,,,,,,,,,,,,,,,,,,,,,,,,,,0.040189765,,,,,,,,,,,,,,,,,,,,,,,,,,,,left,1,130,-30,100,1,2853.157186,2853.157186,2853.157186,None,None,1,1,1.7646017,,,,,,,,,,,,,,,,,,,,,,10,9,2,2024-10-31_09h28.31.578,uWM_experiment,2022.2.3,59.99714413
,,,,,,,,,,,,,,,,,,,,9,0,9,0,22,0,22,0,,,,,,,,,,,,,,,,,,,,,,,,,,,,,,,,,,,,,,,,,,,,,,,,,,,,,,,,,,,,,,,,,,,,,,0.050189765,,,,,,,,,,,,,,,,,,,,,,,,,,,,left,0,160,30,190,1,2861.874239,2861.874239,2861.874239,None,None,1,1,1.8156374,,,,,,,,,,,,,,,,,,,,,,10,9,2,2024-10-31_09h28.31.578,uWM_experiment,2022.2.3,59.99714413
,,,,,,,,,,,,,,,,,,,,9,0,9,0,23,0,23,0,,,,,,,,,,,,,,,,,,,,,,,,,,,,,,,,,,,,,,,,,,,,,,,,,,,,,,,,,,,,,,,,,,,,,,0.060189765,,,,,,,,,,,,,,,,,,,,,,,,,,,,left,0,70,30,100,1,2869.857968,2869.857968,2869.857968,None,None,2,0,1.1118423,,,,,,,,,,,,,,,,,,,,,,10,9,2,2024-10-31_09h28.31.578,uWM_experiment,2022.2.3,59.99714413
,,,,,,,,,,,,,,,,,,,,9,0,9,0,,,,,0,0,0,0,,,,,,,,,,,,,,,,,,,,,,,,,,,,,,,,,,,,,,,,,,,,,,,,,,,,,,,,,,,,,,,,,,,,,,,,,,,,,,,,,,,,,,,,,,,,,,,,,,,,,,,,,,,,2870.991284,2870.991284,space,7.794607,None,None,,,,,,,,,,,,,,,,10,9,2,2024-10-31_09h28.31.578,uWM_experiment,2022.2.3,59.99714413
,,,,,,,,,,,,,,,,,,,,9,0,9,0,,,,,1,0,1,0,,,,,,,,,,,,,,,,,,,,,,,,,,,,,,,,,,,,,,,,,,,,,,,,,,,,,,,,,,,,,,,,,,,,,,,,,,,,,,,,,,,,,,,,,,,,,,,,,,,,,,,,,,,,,,,,,,,,,,,,,,,,,,,,,10,9,2,2024-10-31_09h28.31.578,uWM_experiment,2022.2.3,59.99714413
,,,,,,,,,,,,,,,,,,,,9,0,9,0,,,,,2,0,2,0,,,,,,,,,,,,,,,,,,,,,,,,,,,,,,,,,,,,,,,,,,,,,,,,,,,,,,,,,,,,,,,,,,,,,,,,,,,,,,,,,,,,,,,,,,,,,,,,,,,,,,,,,,,,,,,,,,,,,,,,,,,,,,,,,10,9,2,2024-10-31_09h28.31.578,uWM_experiment,2022.2.3,59.99714413
,,,,,,,,,,,,,,,,,,,,10,0,10,0,0,0,0,0,,,,,,,,,,,,,,,,,,,,,,,,,,,,,,,,,,,,,,,,,,,,,,,,,,,,,,,,,,,,,,,,,,,,,,0,,,,,,,,,,,,,,,,,,,,2878.808325,2879.508349,2879.8084,2880.508397,2880.808422,2881.508443,2881.508443,2881.825143,right,1,130,30,160,0,2887.608732,2887.608732,2887.608732,None,None,1,1,1.1290546,,,,,,,None,,,,,,,,,,,,,,,10,9,2,2024-10-31_09h28.31.578,uWM_experiment,2022.2.3,59.99714413
,,,,,,,,,,,,,,,,,,,,10,0,10,0,1,0,1,0,,,,,,,,,,,,,,,,,,,,,,,,,,,,,,,,,,,,,,,,,,,,,,,,,,,,,,,,,,,,,,,,,,,,,,0.050189765,,,,,,,,,,,,,,,,,,,,,,,,,,,,left,1,40,-30,10,1,2894.642378,2894.642378,2894.642378,None,None,2,0,1.2474359,,,,,,,,,,,,,,,,,,,,,,10,9,2,2024-10-31_09h28.31.578,uWM_experiment,2022.2.3,59.99714413
,,,,,,,,,,,,,,,,,,,,10,0,10,0,2,0,2,0,,,,,,,,,,,,,,,,,,,,,,,,,,,,,,,,,,,,,,,,,,,,,,,,,,,,,,,,,,,,,,,,,,,,,,0,,,,,,,,,,,,,,,,,,,,,,,,,,,,right,0,70,-30,40,0,2902.009386,2902.009386,2902.009386,None,None,1,1,1.0804511,,,,,,,,,,,,,,,,,,,,,,10,9,2,2024-10-31_09h28.31.578,uWM_experiment,2022.2.3,59.99714413
,,,,,,,,,,,,,,,,,,,,10,0,10,0,3,0,3,0,,,,,,,,,,,,,,,,,,,,,,,,,,,,,,,,,,,,,,,,,,,,,,,,,,,,,,,,,,,,,,,,,,,,,,0.040189765,,,,,,,,,,,,,,,,,,,,,,,,,,,,right,1,10,30,40,1,2909.826378,2909.826378,2909.826378,None,None,1,1,0.8873746,,,,,,,,,,,,,,,,,,,,,,10,9,2,2024-10-31_09h28.31.578,uWM_experiment,2022.2.3,59.99714413
,,,,,,,,,,,,,,,,,,,,10,0,10,0,4,0,4,0,,,,,,,,,,,,,,,,,,,,,,,,,,,,,,,,,,,,,,,,,,,,,,,,,,,,,,,,,,,,,,,,,,,,,,0,,,,,,,,,,,,,,,,,,,,,,,,,,,,left,1,130,-30,100,0,2918.27676,2918.27676,2918.27676,None,None,1,1,0.9891287,,,,,,,,,,,,,,,,,,,,,,10,9,2,2024-10-31_09h28.31.578,uWM_experiment,2022.2.3,59.99714413
,,,,,,,,,,,,,,,,,,,,10,0,10,0,5,0,5,0,,,,,,,,,,,,,,,,,,,,,,,,,,,,,,,,,,,,,,,,,,,,,,,,,,,,,,,,,,,,,,,,,,,,,,0.050189765,,,,,,,,,,,,,,,,,,,,,,,,,,,,right,1,160,30,190,1,2928.193903,2928.193903,2928.193903,None,None,2,0,1.3838826,,,,,,,,,,,,,,,,,,,,,,10,9,2,2024-10-31_09h28.31.578,uWM_experiment,2022.2.3,59.99714413
,,,,,,,,,,,,,,,,,,,,10,0,10,0,6,0,6,0,,,,,,,,,,,,,,,,,,,,,,,,,,,,,,,,,,,,,,,,,,,,,,,,,,,,,,,,,,,,,,,,,,,,,,0.040189765,,,,,,,,,,,,,,,,,,,,,,,,,,,,right,0,70,-30,40,1,2935.160872,2935.160872,2935.160872,None,None,2,0,1.481069,,,,,,,,,,,,,,,,,,,,,,10,9,2,2024-10-31_09h28.31.578,uWM_experiment,2022.2.3,59.99714413
,,,,,,,,,,,,,,,,,,,,10,0,10,0,7,0,7,0,,,,,,,,,,,,,,,,,,,,,,,,,,,,,,,,,,,,,,,,,,,,,,,,,,,,,,,,,,,,,,,,,,,,,,0.030189765,,,,,,,,,,,,,,,,,,,,,,,,,,,,left,0,70,30,100,1,2942.64453,2942.64453,2942.64453,None,None,1,1,1.1012348,,,,,,,,,,,,,,,,,,,,,,10,9,2,2024-10-31_09h28.31.578,uWM_experiment,2022.2.3,59.99714413
,,,,,,,,,,,,,,,,,,,,10,0,10,0,8,0,8,0,,,,,,,,,,,,,,,,,,,,,,,,,,,,,,,,,,,,,,,,,,,,,,,,,,,,,,,,,,,,,,,,,,,,,,0,,,,,,,,,,,,,,,,,,,,,,,,,,,,right,1,40,30,70,0,2949.444847,2949.444847,2949.444847,None,None,1,1,0.9649647,,,,,,,,,,,,,,,,,,,,,,10,9,2,2024-10-31_09h28.31.578,uWM_experiment,2022.2.3,59.99714413
,,,,,,,,,,,,,,,,,,,,10,0,10,0,9,0,9,0,,,,,,,,,,,,,,,,,,,,,,,,,,,,,,,,,,,,,,,,,,,,,,,,,,,,,,,,,,,,,,,,,,,,,,0.040189765,,,,,,,,,,,,,,,,,,,,,,,,,,,,left,1,40,-30,10,1,2956.528475,2956.528475,2956.528475,None,None,2,0,1.0333651,,,,,,,,,,,,,,,,,,,,,,10,9,2,2024-10-31_09h28.31.578,uWM_experiment,2022.2.3,59.99714413
,,,,,,,,,,,,,,,,,,,,10,0,10,0,10,0,10,0,,,,,,,,,,,,,,,,,,,,,,,,,,,,,,,,,,,,,,,,,,,,,,,,,,,,,,,,,,,,,,,,,,,,,,0,,,,,,,,,,,,,,,,,,,,,,,,,,,,left,0,130,30,160,0,2963.728794,2963.728794,2963.728794,None,None,1,1,1.9529817,,,,,,,,,,,,,,,,,,,,,,10,9,2,2024-10-31_09h28.31.578,uWM_experiment,2022.2.3,59.99714413
,,,,,,,,,,,,,,,,,,,,10,0,10,0,11,0,11,0,,,,,,,,,,,,,,,,,,,,,,,,,,,,,,,,,,,,,,,,,,,,,,,,,,,,,,,,,,,,,,,,,,,,,,0.030189765,,,,,,,,,,,,,,,,,,,,,,,,,,,,right,1,40,30,70,1,2972.229647,2972.229647,2972.229647,None,None,1,1,1.8441735,,,,,,,,,,,,,,,,,,,,,,10,9,2,2024-10-31_09h28.31.578,uWM_experiment,2022.2.3,59.99714413
,,,,,,,,,,,,,,,,,,,,10,0,10,0,12,0,12,0,,,,,,,,,,,,,,,,,,,,,,,,,,,,,,,,,,,,,,,,,,,,,,,,,,,,,,,,,,,,,,,,,,,,,,0.040189765,,,,,,,,,,,,,,,,,,,,,,,,,,,,left,1,160,-30,130,1,2979.6962,2979.6962,2979.6962,None,None,1,1,0.9936354,,,,,,,,,,,,,,,,,,,,,,10,9,2,2024-10-31_09h28.31.578,uWM_experiment,2022.2.3,59.99714413
,,,,,,,,,,,,,,,,,,,,10,0,10,0,13,0,13,0,,,,,,,,,,,,,,,,,,,,,,,,,,,,,,,,,,,,,,,,,,,,,,,,,,,,,,,,,,,,,,,,,,,,,,0.050189765,,,,,,,,,,,,,,,,,,,,,,,,,,,,right,1,130,30,160,1,2985.996459,2985.996459,2985.996459,None,None,2,0,1.1974273,,,,,,,,,,,,,,,,,,,,,,10,9,2,2024-10-31_09h28.31.578,uWM_experiment,2022.2.3,59.99714413
,,,,,,,,,,,,,,,,,,,,10,0,10,0,14,0,14,0,,,,,,,,,,,,,,,,,,,,,,,,,,,,,,,,,,,,,,,,,,,,,,,,,,,,,,,,,,,,,,,,,,,,,,0.040189765,,,,,,,,,,,,,,,,,,,,,,,,,,,,left,1,40,-30,10,1,2992.996767,2992.996767,2992.996767,None,None,2,0,0.9250896,,,,,,,,,,,,,,,,,,,,,,10,9,2,2024-10-31_09h28.31.578,uWM_experiment,2022.2.3,59.99714413
